PacketCounter,SampleTimeFine,Quat_W,Quat_X,Quat_Y,Quat_Z,Acc_X,Acc_Y,Acc_Z,Gyr_X,Gyr_Y,Gyr_Z 
1,1919748495,0.22883593,-0.69335693,-0.22934447,-0.64365476,-0.7551325559616089,0.7763686180114746,1.933573842048645,3.1857388019561768,1.5548986196517944, -0.36376550793647766
2,1919765162,0.22861527,-0.6936319,-0.22938341,-0.64342296,9.808016777038574,-0.2324068546295166,-0.6879579424858093,-1.7132335901260376,-1.3134576082229614, -0.02676527202129364
3,1919781829,0.22840531,-0.69400233,-0.2292657,-0.64313984,9.827089309692383,-0.23697443306446075,-0.6765631437301636,-1.6562578678131104,-1.2654465436935425, 0.0007875904557295144
4,1919798496,0.22835621,-0.69424164,-0.22922593,-0.6429134,9.834759712219238,-0.24819400906562805,-0.6754975318908691,-1.7093532085418701,-1.14454185962677, -0.13049669563770294
5,1919815163,0.22823875,-0.6944764,-0.22903243,-0.6427703,9.826129913330078,-0.23406648635864258,-0.7031521201133728,-1.7569160461425781,-1.207177758216858, -0.0876210480928421
6,1919831830,0.22813106,-0.6946834,-0.22892784,-0.64262235,9.835289001464844,-0.2334894835948944,-0.740001916885376,-1.5508615970611572,-1.0650144815444946, -0.15571239590644836
7,1919848497,0.22798976,-0.69490445,-0.22885038,-0.642461,9.819154739379883,-0.19364364445209503,-0.7220277190208435,-1.632399559020996,-0.8722915649414062, -0.16905659437179565
8,1919865164,0.22782646,-0.69509184,-0.22883444,-0.6423218,9.809892654418945,-0.22097642719745636,-0.6928043961524963,-1.5372486114501953,-0.8398917317390442, -0.11425825953483582
9,1919881831,0.22759901,-0.6952798,-0.22873507,-0.64223444,9.82052993774414,-0.23882199823856354,-0.6835033297538757,-1.5281177759170532,-0.9306502938270569, -0.1000688225030899
10,1919898498,0.22744054,-0.6954199,-0.22867653,-0.6421598,9.817169189453125,-0.23183387517929077,-0.700771689414978,-1.570878267288208,-0.8891448974609375, -0.13875681161880493
11,1919915165,0.2271753,-0.6956001,-0.22850317,-0.6421203,9.821553230285645,-0.24398082494735718,-0.7183913588523865,-1.7000941038131714,-1.004004955291748, -0.14216327667236328
12,1919931832,0.22705755,-0.6957352,-0.2284666,-0.64202845,9.823883056640625,-0.23073187470436096,-0.720552384853363,-1.5430625677108765,-1.0082566738128662, -0.09994074702262878
13,1919948499,0.2268955,-0.69588625,-0.22837073,-0.6419562,9.813916206359863,-0.21535880863666534,-0.7402530908584595,-1.515426516532898,-0.9817090630531311, -0.04265794903039932
14,1919965166,0.22663607,-0.69606805,-0.22819977,-0.6419114,9.812250137329102,-0.21750646829605103,-0.7381309270858765,-1.6059290170669556,-0.9953094720840454, -0.10743246227502823
15,1919981833,0.22647274,-0.69622016,-0.22812551,-0.6418305,9.826766967773438,-0.23459626734256744,-0.7356371879577637,-1.571825623512268,-1.0048885345458984, -0.03327089175581932
16,1919998500,0.22633448,-0.69635993,-0.22806351,-0.6417498,9.814736366271973,-0.22227124869823456,-0.7209025025367737,-1.58390212059021,-0.9364899396896362, -0.0012678285129368305
17,1920015167,0.22621736,-0.6964873,-0.22801939,-0.6416685,9.808932304382324,-0.23558472096920013,-0.7445178627967834,-1.558699369430542,-0.9196752905845642, 0.01507947500795126
18,1920031834,0.22598904,-0.6966529,-0.22786261,-0.6416248,9.819425582885742,-0.24489735066890717,-0.747868537902832,-1.616955041885376,-0.9273845553398132, -0.029569856822490692
19,1920048501,0.22589059,-0.6967651,-0.22781871,-0.6415532,9.791017532348633,-0.25374695658683777,-0.7235258221626282,-1.6423760652542114,-0.7677791714668274, 0.03405848890542984
20,1920065168,0.22571595,-0.6969072,-0.22768188,-0.641509,9.804194450378418,-0.22664691507816315,-0.7375051975250244,-1.8269025087356567,-0.7967341542243958, 0.06708605587482452
21,1920081835,0.22553909,-0.6970417,-0.2275482,-0.64147264,9.785140991210938,-0.23657852411270142,-0.7563770413398743,-1.77008056640625,-0.7494146823883057, 0.027706531807780266
22,1920098502,0.22505614,-0.6972671,-0.22708051,-0.6415629,9.794063568115234,-0.2253810167312622,-0.7222039103507996,-1.7575305700302124,-0.5708557963371277, -0.024524157866835594
23,1920115169,0.22498146,-0.6973429,-0.22705382,-0.64151615,9.819686889648438,-0.2360125333070755,-0.7452840805053711,-1.9595249891281128,-0.5423488020896912, -0.0027661710046231747
24,1920131836,0.22481579,-0.6974439,-0.22692406,-0.64151037,9.828619956970215,-0.22523631155490875,-0.7491004467010498,-1.9672088623046875,-0.4703259766101837, -0.007850292138755322
25,1920148503,0.2247391,-0.6975278,-0.22687969,-0.6414616,9.838968276977539,-0.23376917839050293,-0.7178784608840942,-1.7820804119110107,-0.5832780003547668, 0.07982837408781052
26,1920165170,0.22454627,-0.6976414,-0.226711,-0.6414652,9.83460521697998,-0.2450607270002365,-0.7184683680534363,-1.7454415559768677,-0.5126126408576965, 0.03441707044839859
27,1920181837,0.22433998,-0.6977476,-0.2265259,-0.6414873,9.831921577453613,-0.27329832315444946,-0.7462685108184814,-1.7710927724838257,-0.41468241810798645, -0.002791784470900893
28,1920198504,0.22429219,-0.6978033,-0.22650559,-0.64145064,9.843875885009766,-0.2361263781785965,-0.736890971660614,-1.8161065578460693,-0.4455328583717346, 0.0243256576359272
29,1920215171,0.22414187,-0.69789124,-0.22639264,-0.64144737,9.828943252563477,-0.2278696596622467,-0.7200080752372742,-1.8621710538864136,-0.4749874174594879, -0.053479306399822235
30,1920231838,0.22400452,-0.6979687,-0.22629611,-0.64144516,9.831663131713867,-0.23589783906936646,-0.7179531455039978,-1.882968544960022,-0.44309964776039124, -0.07081909477710724
31,1920248505,0.22399692,-0.6980099,-0.22631843,-0.641395,9.820927619934082,-0.26244664192199707,-0.7460587620735168,-1.8237134218215942,-0.4836317300796509, 0.04539209604263306
32,1920265172,0.22382465,-0.6981077,-0.22616887,-0.6414015,9.80775260925293,-0.2490663230419159,-0.7647746205329895,-1.6982626914978027,-0.4932365119457245, -0.008439384400844574
33,1920281839,0.22367358,-0.6981894,-0.22604679,-0.6414084,9.803607940673828,-0.2390083223581314,-0.7422134876251221,-1.6946772336959839,-0.41461843252182007, -0.05619426816701889
34,1920298506,0.22350019,-0.69828016,-0.22590463,-0.64142007,9.79601001739502,-0.23635746538639069,-0.7584343552589417,-1.8142882585525513,-0.4406152367591858, -0.05642477422952652
35,1920315173,0.22339198,-0.69835263,-0.2258444,-0.6414001,9.809659004211426,-0.24467860162258148,-0.742194652557373,-1.5953253507614136,-0.5200530886650085, -0.09698248654603958
36,1920331840,0.22347815,-0.69835496,-0.22598937,-0.6413166,9.813742637634277,-0.2600018084049225,-0.7637054920196533,-1.636344075202942,-0.4855911433696747, -0.07475066184997559
37,1920348507,0.22332375,-0.69844633,-0.22586529,-0.6413144,9.812728881835938,-0.2417384684085846,-0.7695502638816833,-1.653376817703247,-0.5014454126358032, -0.03680545091629028
38,1920365174,0.22318101,-0.69853973,-0.22573902,-0.6413068,9.803594589233398,-0.2315489649772644,-0.780002772808075,-1.5867706537246704,-0.5088858604431152, 0.03719603642821312
39,1920381841,0.22300735,-0.69864273,-0.22558519,-0.64130926,9.787002563476562,-0.22073747217655182,-0.7571827173233032,-1.524186134338379,-0.5085785388946533, 0.009316619485616684
40,1920398508,0.22311582,-0.69864535,-0.22573116,-0.6412171,9.829092979431152,-0.23394660651683807,-0.7386687397956848,-1.517437219619751,-0.47589680552482605, 0.04313818737864494
41,1920415175,0.2230266,-0.6987051,-0.22567368,-0.64120346,9.833802223205566,-0.25857478380203247,-0.7577282190322876,-1.565832257270813,-0.39771392941474915, -0.03663896396756172
42,1920431842,0.22296381,-0.6987513,-0.22563499,-0.6411886,9.838468551635742,-0.2701534330844879,-0.7300330400466919,-1.5229054689407349,-0.328751802444458, -0.018710076808929443
43,1920448509,0.22285967,-0.6988104,-0.22554177,-0.64119315,9.810080528259277,-0.2424803078174591,-0.7520545125007629,-1.5763975381851196,-0.2923177480697632, 0.010430771857500076
44,1920465176,0.22276795,-0.69886076,-0.22546239,-0.6411981,9.814114570617676,-0.24236732721328735,-0.7333774566650391,-1.534597635269165,-0.2530790865421295, -0.007658197078853846
45,1920481843,0.22265056,-0.6989262,-0.22534275,-0.6412095,9.830609321594238,-0.24812069535255432,-0.7475167512893677,-1.4584640264511108,-0.28302034735679626, 0.055880509316921234
46,1920498510,0.22260417,-0.6989716,-0.22531231,-0.64118683,9.83864688873291,-0.27911177277565,-0.7527536749839783,-1.4064700603485107,-0.36988577246665955, 0.021162493154406548
47,1920515177,0.22250731,-0.69903576,-0.22523284,-0.6411784,9.842867851257324,-0.25432097911834717,-0.7485262751579285,-1.5874111652374268,-0.3963821232318878, 0.00849701277911663
48,1920531844,0.22241859,-0.6991008,-0.22514765,-0.6411682,9.807851791381836,-0.26409468054771423,-0.7573144435882568,-1.6727908849716187,-0.388096421957016, 0.0836830884218216
49,1920548511,0.22222435,-0.6992195,-0.22494794,-0.6411761,9.794421195983887,-0.2225702852010727,-0.7546480298042297,-1.5024280548095703,-0.554233193397522, 0.11879809200763702
50,1920565178,0.22226739,-0.699245,-0.2249978,-0.641116,9.812935829162598,-0.24217194318771362,-0.7903910279273987,-1.4461058378219604,-0.4305751323699951, 0.1236773282289505
51,1920581845,0.22229764,-0.6992688,-0.22504331,-0.64106363,9.824355125427246,-0.2643970847129822,-0.784278929233551,-1.4632792472839355,-0.3955625593662262, 0.07017239928245544
52,1920598512,0.22239973,-0.6992325,-0.22516705,-0.64102423,9.813239097595215,-0.26572713255882263,-0.8010830879211426,-1.4978562593460083,-0.05442699044942856, -0.04135169833898544
53,1920615179,0.2224185,-0.69921225,-0.22522497,-0.6410195,9.809320449829102,-0.26113802194595337,-0.7776492834091187,-1.3532212972640991,0, -0.1956297904253006
54,1920631846,0.22237213,-0.69920653,-0.22520474,-0.641049,9.839165687561035,-0.26859307289123535,-0.7560121417045593,-1.3428995609283447,0.10394273698329926, -0.1973842978477478
55,1920648513,0.22234765,-0.6991838,-0.22520357,-0.64108264,9.852082252502441,-0.26572710275650024,-0.7840233445167542,-1.3153786659240723,0.20554831624031067, -0.21366114914417267
56,1920665180,0.22243106,-0.69912666,-0.22532853,-0.64107215,9.809666633605957,-0.2737341821193695,-0.7609604001045227,-1.2394497394561768,0.14617808163166046, -0.24280837178230286
57,1920681847,0.2223811,-0.6991105,-0.22530861,-0.64111406,9.806757926940918,-0.2574596703052521,-0.7543985247612,-1.2925959825515747,0.20105327665805817, -0.263785183429718
58,1920698514,0.22229195,-0.69911206,-0.22527991,-0.6411534,9.7881498336792,-0.2535957098007202,-0.7642224431037903,-1.4119511842727661,0.05877474695444107, -0.3738173246383667
59,1920715181,0.2223228,-0.699073,-0.22538082,-0.64114976,9.794922828674316,-0.24966266751289368,-0.7670063376426697,-1.4679535627365112,0.0479917973279953, -0.35939744114875793
60,1920731848,0.22219308,-0.6991118,-0.22529507,-0.64118254,9.8233642578125,-0.24928298592567444,-0.7676286101341248,-1.4990984201431274,-0.12043092399835587, -0.24373047053813934
61,1920748515,0.22218467,-0.6991013,-0.22535454,-0.64117604,9.824862480163574,-0.2528073191642761,-0.7475655674934387,-1.4739468097686768,-0.09720019996166229, -0.31667542457580566
62,1920765182,0.22214328,-0.69910264,-0.22537132,-0.641183,9.840685844421387,-0.23881299793720245,-0.7359487414360046,-1.3691140413284302,-0.08331810683012009, -0.2984391748905182
63,1920781849,0.22198051,-0.69915754,-0.22524986,-0.6412223,9.827159881591797,-0.24647338688373566,-0.7674110531806946,-1.404497742652893,-0.1732827126979828, -0.2363155633211136
64,1920798516,0.22192273,-0.6991541,-0.22523278,-0.6412521,9.81672191619873,-0.2566129267215729,-0.78898024559021,-1.0986182689666748,0.058031968772411346, -0.2900637984275818
65,1920815183,0.22202276,-0.6990911,-0.22538002,-0.64123434,9.80196762084961,-0.27430251240730286,-0.7690222859382629,-0.9299330115318298,0.12103921175003052, -0.2886551022529602
66,1920831850,0.22198328,-0.69906956,-0.2253858,-0.64126945,9.784976959228516,-0.2559315264225006,-0.7801722288131714,-1.0158253908157349,0.16291597485542297, -0.3509067893028259
67,1920848517,0.22192243,-0.6990538,-0.22540522,-0.64130074,9.8021879196167,-0.2741374373435974,-0.7718068957328796,-0.893025279045105,0.06417901813983917, -0.5104867219924927
68,1920865184,0.22201051,-0.69897175,-0.22558206,-0.64129764,9.809385299682617,-0.30236926674842834,-0.8170760869979858,-0.7412059307098389,0.21254058182239532, -0.5530293583869934
69,1920881851,0.22200717,-0.6989088,-0.22565344,-0.6413423,9.798918724060059,-0.28930220007896423,-0.7843590378761292,-0.7336245179176331,0.36179861426353455, -0.5799099802970886
70,1920898518,0.22196363,-0.6988354,-0.2257015,-0.6414203,9.795116424560547,-0.2968719005584717,-0.8224164843559265,-0.7671131491661072,0.537680983543396, -0.7417437434196472
71,1920915185,0.22212136,-0.69869155,-0.22596517,-0.6414297,9.796714782714844,-0.2742684483528137,-0.7892033457756042,-0.9270261526107788,0.5556867718696594, -0.7197553515434265
72,1920931852,0.22218765,-0.69857335,-0.2261357,-0.64147526,9.790822982788086,-0.2475387006998062,-0.76544588804245,-0.9433157444000244,0.5997790098190308, -0.7682017087936401
73,1920948519,0.22239803,-0.69841164,-0.2264758,-0.64145863,9.796093940734863,-0.24245698750019073,-0.7423269748687744,-1.0652961730957031,0.4924233555793762, -0.7852341532707214
74,1920965186,0.22243448,-0.6983161,-0.22662519,-0.6414972,9.797353744506836,-0.2450251281261444,-0.7431362867355347,-1.423874020576477,0.4534023702144623, -0.7363906502723694
75,1920981853,0.22230732,-0.6983017,-0.22657943,-0.6415732,9.816628456115723,-0.2487986981868744,-0.71595299243927,-1.7063051462173462,0.2855495512485504, -0.5739421248435974
76,1920998520,0.22222468,-0.6982821,-0.22657925,-0.641623,9.836065292358398,-0.22116491198539734,-0.7207327485084534,-1.8166574239730835,0.18897688388824463, -0.5210391879081726
77,1921015187,0.22215703,-0.69827366,-0.22659552,-0.64164996,9.820489883422852,-0.22738146781921387,-0.750467836856842,-2.0405633449554443,0.03135634586215019, -0.45019441843032837
78,1921031854,0.2220861,-0.69826853,-0.22658357,-0.6416844,9.828535079956055,-0.24393302202224731,-0.7633941173553467,-2.3156697750091553,0.09230177104473114, -0.32593441009521484
79,1921048521,0.22209208,-0.69822633,-0.22664079,-0.641708,9.811952590942383,-0.22653231024742126,-0.7985088229179382,-2.3149654865264893,0.23300515115261078, -0.3029214143753052
80,1921065188,0.22192675,-0.69825363,-0.22652496,-0.64177626,9.787811279296875,-0.23564958572387695,-0.7636763453483582,-2.41247296333313,0.10955192893743515, -0.317648708820343
81,1921081855,0.22190249,-0.6982437,-0.22655186,-0.64178604,9.800185203552246,-0.22445988655090332,-0.7277787923812866,-2.4182872772216797,0.0244793388992548, -0.2363540083169937
82,1921098522,0.22179495,-0.6982707,-0.226466,-0.64182425,9.829486846923828,-0.21992896497249603,-0.7159509062767029,-2.376551389694214,0.017090072855353355, -0.1291264295578003
83,1921115189,0.22168082,-0.6982853,-0.22638376,-0.64187676,9.846147537231445,-0.23988933861255646,-0.72918701171875,-2.309817314147949,0.11960490792989731, -0.22312504053115845
84,1921131856,0.22168125,-0.6982659,-0.22642532,-0.64188313,9.838799476623535,-0.26402366161346436,-0.748301088809967,-2.1440391540527344,0.05404920130968094, -0.2136995792388916
85,1921148523,0.2216627,-0.69824296,-0.22644481,-0.6419076,9.828771591186523,-0.28363606333732605,-0.7459636330604553,-2.004321813583374,0.15349051356315613, -0.25626784563064575
86,1921165190,0.22177733,-0.698169,-0.22660826,-0.64189076,9.80125617980957,-0.24668942391872406,-0.7509534955024719,-1.860186219215393,0.1912052035331726, -0.2826361358165741
87,1921181857,0.22186887,-0.69810236,-0.22673823,-0.64188564,9.801782608032227,-0.22819790244102478,-0.7804226875305176,-1.9137808084487915,0.22541095316410065, -0.25097882747650146
88,1921198524,0.22178094,-0.6980862,-0.22667158,-0.64195716,9.825124740600586,-0.23938752710819244,-0.7513940334320068,-1.7512810230255127,0.3541147708892822, -0.3007059097290039
89,1921215191,0.22169328,-0.69807094,-0.2266289,-0.64201903,9.837124824523926,-0.26054224371910095,-0.7371037602424622,-1.7467859983444214,0.26934951543807983, -0.391374796628952
90,1921231858,0.22161263,-0.69805515,-0.2266027,-0.6420733,9.834772109985352,-0.24067997932434082,-0.7131415605545044,-1.8585854768753052,0.22411750257015228, -0.41475924849510193
91,1921248525,0.2215566,-0.6980401,-0.22658882,-0.64211386,9.843439102172852,-0.24296332895755768,-0.7348531484603882,-1.8196923732757568,0.17350681126117706, -0.33297789096832275
92,1921265192,0.2214953,-0.6980249,-0.2265856,-0.64215267,9.824130058288574,-0.26020023226737976,-0.7470349073410034,-1.6071584224700928,0.1359073966741562, -0.4215722382068634
93,1921281859,0.2214222,-0.6980063,-0.22657605,-0.64220154,9.794177055358887,-0.22032280266284943,-0.7526314854621887,-1.4934509992599487,0.18699190020561218, -0.48454102873802185
94,1921298526,0.22140525,-0.69796103,-0.22661074,-0.6422444,9.778885841369629,-0.26270052790641785,-0.7539201378822327,-1.5316779613494873,0.30538663268089294, -0.43875840306282043
95,1921315193,0.22142339,-0.69789004,-0.22668496,-0.64228904,9.796825408935547,-0.2527185082435608,-0.7406206727027893,-1.4597190618515015,0.4288526773452759, -0.4974626898765564
96,1921331860,0.2213755,-0.6978178,-0.22669083,-0.6423819,9.843741416931152,-0.27342262864112854,-0.7738487720489502,-1.480042815208435,0.6538346409797668, -0.5912564396858215
97,1921348527,0.22133426,-0.69773406,-0.22671583,-0.6424782,9.795411109924316,-0.2553478181362152,-0.7588109970092773,-1.381241798400879,0.7048935890197754, -0.6801452040672302
98,1921365194,0.22140741,-0.6975906,-0.22686748,-0.6425553,9.798513412475586,-0.24300315976142883,-0.7572664618492126,-1.3976850509643555,0.8848739266395569, -0.7548831105232239
99,1921381861,0.2213194,-0.6975002,-0.22684047,-0.6426933,9.822273254394531,-0.2448766678571701,-0.734207034111023,-1.3538106679916382,0.9329490065574646, -0.75908362865448
100,1921398528,0.2212259,-0.69740796,-0.22680898,-0.64283675,9.831402778625488,-0.24444356560707092,-0.7072418928146362,-1.3624545335769653,0.9646703004837036, -0.7796376943588257
101,1921415195,0.22128901,-0.697258,-0.22695282,-0.6429269,9.817122459411621,-0.2497791349887848,-0.7017662525177002,-1.3284921646118164,0.9666935205459595, -0.8148038983345032
102,1921431862,0.22132437,-0.69713515,-0.22707316,-0.64300543,9.816081047058105,-0.23853112757205963,-0.7000800967216492,-1.3852884769439697,0.777275025844574, -0.7843761444091797
103,1921448529,0.22125533,-0.69706297,-0.22708198,-0.64310426,9.7947998046875,-0.22050601243972778,-0.6965001225471497,-1.7111201286315918,0.6415532231330872, -0.7247496843338013
104,1921465196,0.22128671,-0.6969701,-0.22719148,-0.6431556,9.815797805786133,-0.21994754672050476,-0.7084649205207825,-1.6084774732589722,0.5214681625366211, -0.655569851398468
105,1921481863,0.22128595,-0.69689274,-0.22725092,-0.64321864,9.800326347351074,-0.2284199744462967,-0.7210902571678162,-1.5394771099090576,0.525527834892273, -0.5901294350624084
106,1921498530,0.22127387,-0.69681317,-0.22730963,-0.64328814,9.812323570251465,-0.22917917370796204,-0.7209876179695129,-1.541807770729065,0.548278272151947, -0.657157838344574
107,1921515197,0.22126026,-0.6967444,-0.22734743,-0.643354,9.81653118133545,-0.21671511232852936,-0.6974875330924988,-1.5238276720046997,0.5099809169769287, -0.5539771914482117
108,1921531864,0.22128822,-0.6966514,-0.22741857,-0.64342,9.824419975280762,-0.2130746841430664,-0.6912859082221985,-1.6505205631256104,0.6382619738578796, -0.5324751734733582
109,1921548531,0.22125617,-0.6965818,-0.22743195,-0.64350164,9.82159423828125,-0.21824271976947784,-0.6951398253440857,-1.721122145652771,0.5930940508842468, -0.5501223206520081
110,1921565198,0.22126482,-0.6964918,-0.2274848,-0.64357734,9.828422546386719,-0.22209593653678894,-0.6955412030220032,-1.9197359085083008,0.6654500365257263, -0.5393266081809998
111,1921581865,0.22121705,-0.6964282,-0.22748058,-0.6436642,9.798428535461426,-0.23048196732997894,-0.7122718691825867,-1.9089655876159668,0.5900717377662659, -0.5380972027778625
112,1921598532,0.22123215,-0.69634503,-0.22754918,-0.6437247,9.798107147216797,-0.2112603485584259,-0.7122628688812256,-2.0554192066192627,0.5508203506469727, -0.5406457185745239
113,1921615199,0.22110501,-0.6963345,-0.2274442,-0.6438169,9.800688743591309,-0.20561324059963226,-0.7147755026817322,-1.980092167854309,0.39710569381713867, -0.39946845173835754
114,1921631866,0.22104031,-0.6962946,-0.22742732,-0.64388824,9.804437637329102,-0.2170325368642807,-0.7304702997207642,-2.1614303588867188,0.4041620194911957, -0.49212244153022766
115,1921648533,0.22099303,-0.6962455,-0.22741263,-0.6439627,9.797324180603027,-0.20464393496513367,-0.6962714791297913,-2.231532096862793,0.48868387937545776, -0.43435293436050415
116,1921665200,0.22088736,-0.69621575,-0.2273142,-0.64406574,9.813033103942871,-0.2083882987499237,-0.6971518397331238,-2.2937581539154053,0.5647536516189575, -0.3551328778266907
117,1921681867,0.22082105,-0.69616157,-0.22726263,-0.64416534,9.827866554260254,-0.22721120715141296,-0.7086739540100098,-2.487351417541504,0.6551920175552368, -0.3952423632144928
118,1921698534,0.2207181,-0.6961124,-0.22716838,-0.6442871,9.822294235229492,-0.23113572597503662,-0.7012798190116882,-2.402496576309204,0.7397907376289368, -0.4180888831615448
119,1921715201,0.22070947,-0.69603634,-0.22718033,-0.6443679,9.844934463500977,-0.25725865364074707,-0.6811527013778687,-2.451890707015991,0.6632087826728821, -0.41474640369415283
120,1921731868,0.22055879,-0.6960057,-0.22704293,-0.644501,9.82972240447998,-0.2249053567647934,-0.6869348883628845,-2.6491470336914062,0.6983494758605957, -0.4368501901626587
121,1921748535,0.22041799,-0.6959633,-0.22692277,-0.6446372,9.849055290222168,-0.231276273727417,-0.7017254829406738,-2.646048069000244,0.7558884024620056, -0.49253225326538086
122,1921765202,0.22036463,-0.69587815,-0.2268978,-0.6447562,9.811650276184082,-0.22833499312400818,-0.6868078708648682,-2.572373151779175,0.8664839863777161, -0.5440905094146729
123,1921781869,0.2202039,-0.69582456,-0.2267519,-0.64492035,9.817922592163086,-0.2137051671743393,-0.6938617825508118,-2.447050094604492,0.9401717185974121, -0.5558595657348633
124,1921798536,0.22006814,-0.6957651,-0.22664139,-0.6450696,9.819031715393066,-0.2147073745727539,-0.6646641492843628,-2.428314447402954,0.883542001247406, -0.5847762823104858
125,1921815203,0.21998504,-0.6956873,-0.22658265,-0.6452025,9.833914756774902,-0.2205430120229721,-0.6743512749671936,-2.3851826190948486,0.8954647183418274, -0.5707533359527588
126,1921831870,0.21993554,-0.695597,-0.22658537,-0.6453157,9.831713676452637,-0.209437295794487,-0.6743975877761841,-2.2742669582366943,0.8188316226005554, -0.6836798191070557
127,1921848537,0.21983577,-0.69552946,-0.22652015,-0.64544535,9.826606750488281,-0.20554588735103607,-0.6627161502838135,-2.197889804840088,0.8118137121200562, -0.6214025020599365
128,1921865204,0.21975808,-0.69546217,-0.2264799,-0.6455585,9.827919006347656,-0.20181849598884583,-0.6839727759361267,-2.0782275199890137,0.7283291220664978, -0.612105131149292
129,1921881871,0.21971066,-0.6953772,-0.22646663,-0.6456708,9.834449768066406,-0.18533141911029816,-0.6748362183570862,-2.039167881011963,0.8123132586479187, -0.6178808212280273
130,1921898538,0.21959226,-0.6953339,-0.2263796,-0.6457883,9.81734848022461,-0.19483456015586853,-0.6671072244644165,-2.0774078369140625,0.6430132389068604, -0.5741854906082153
131,1921915205,0.21953537,-0.69528073,-0.22633772,-0.6458795,9.83573055267334,-0.18173325061798096,-0.6520256400108337,-2.1192588806152344,0.5967951416969299, -0.45276856422424316
132,1921931872,0.21949609,-0.69522077,-0.22632052,-0.64596343,9.830915451049805,-0.20850756764411926,-0.6622062921524048,-1.9455918073654175,0.5812097787857056, -0.49095699191093445
133,1921948539,0.21944629,-0.6951584,-0.22628689,-0.6460591,9.837287902832031,-0.20604445040225983,-0.6604011654853821,-1.8730182647705078,0.6523106098175049, -0.49910181760787964
134,1921965206,0.21944661,-0.6950903,-0.22629085,-0.64613104,9.825030326843262,-0.21060004830360413,-0.6540353894233704,-1.8540520668029785,0.5912883877754211, -0.40192726254463196
135,1921981873,0.21941312,-0.6950377,-0.2262709,-0.64620584,9.815084457397461,-0.18668630719184875,-0.654376745223999,-1.8049012422561646,0.5136178731918335, -0.4456609785556793
136,1921998540,0.21939725,-0.6949708,-0.22626509,-0.6462853,9.841139793395996,-0.18941199779510498,-0.6802346110343933,-1.6657218933105469,0.6057595610618591, -0.4641661047935486
137,1922015207,0.21941377,-0.69489133,-0.22629645,-0.646354,9.810840606689453,-0.21270889043807983,-0.6567108631134033,-1.5226876735687256,0.6076420545578003, -0.4893946349620819
138,1922031874,0.21950689,-0.6947797,-0.22641131,-0.6464023,9.847352027893066,-0.20692694187164307,-0.6246418356895447,-1.5528724193572998,0.6544749736785889, -0.5147128105163574
139,1922048541,0.21955757,-0.6946809,-0.22647792,-0.64646786,9.839409828186035,-0.18601079285144806,-0.6524090766906738,-1.5848114490509033,0.6798699498176575, -0.5104739665985107
140,1922065208,0.21956079,-0.6946041,-0.2264795,-0.6465488,9.83773136138916,-0.1905204802751541,-0.631136417388916,-1.5595574378967285,0.6720068454742432, -0.44233134388923645
141,1922081875,0.21956372,-0.6945389,-0.22646834,-0.64662176,9.824429512023926,-0.19241689145565033,-0.6417261362075806,-1.623473882675171,0.599561333656311, -0.35488957166671753
142,1922098542,0.21948116,-0.69450617,-0.22638239,-0.64671504,9.837508201599121,-0.1962093561887741,-0.6227424740791321,-1.644489049911499,0.5219676494598389, -0.41488733887672424
143,1922115209,0.21954139,-0.69442165,-0.22642243,-0.64677125,9.82252025604248,-0.20936089754104614,-0.6362031698226929,-1.7055495977401733,0.6216393709182739, -0.3123980760574341
144,1922131876,0.21950457,-0.69437283,-0.22637382,-0.64685327,9.8246431350708,-0.2073984146118164,-0.6452286839485168,-1.7485532760620117,0.5581198930740356, -0.3675806224346161
145,1922148543,0.2194823,-0.6943142,-0.22633316,-0.64693797,9.824562072753906,-0.20381499826908112,-0.6597360968589783,-1.7396273612976074,0.6255325078964233, -0.3578094244003296
146,1922165210,0.21950486,-0.6942168,-0.22634801,-0.64702964,9.82231616973877,-0.18498852849006653,-0.6261601448059082,-1.7399728298187256,0.8234673738479614, -0.4632824659347534
147,1922181877,0.2195056,-0.69412583,-0.22632256,-0.6471359,9.820028305053711,-0.1905493289232254,-0.6349678039550781,-1.6238322257995605,0.8857960104942322, -0.41058436036109924
148,1922198544,0.21961568,-0.69400775,-0.22640611,-0.647196,9.835906982421875,-0.18556727468967438,-0.6013960242271423,-1.59567129611969,0.803540825843811, -0.348025381565094
149,1922215211,0.21964096,-0.6939166,-0.2264151,-0.6472819,9.847501754760742,-0.20372502505779266,-0.5936628580093384,-1.5415645837783813,0.7747009992599487, -0.4256574809551239
150,1922231878,0.2196556,-0.6938287,-0.22641684,-0.6473707,9.823280334472656,-0.18257075548171997,-0.593874454498291,-1.463138222694397,0.7645583152770996, -0.4514878988265991
151,1922248545,0.21971998,-0.69373703,-0.22645748,-0.64743274,9.807266235351562,-0.1826460063457489,-0.6319904327392578,-1.5331377983093262,0.6754645705223083, -0.3507915437221527
152,1922265212,0.21970172,-0.6936687,-0.22643659,-0.6475194,9.811847686767578,-0.2034579962491989,-0.6082494854927063,-1.6171600818634033,0.646125078201294, -0.4693911075592041
153,1922281879,0.21968327,-0.69361115,-0.22640146,-0.6475997,9.826916694641113,-0.18920643627643585,-0.6131793260574341,-1.6189275979995728,0.5874977707862854, -0.3823848366737366
154,1922298546,0.21979721,-0.69351184,-0.22650084,-0.6476327,9.83142375946045,-0.16834953427314758,-0.6079227924346924,-1.6068512201309204,0.5637291073799133, -0.3458611071109772
155,1922315213,0.21983013,-0.6934526,-0.22650386,-0.64768386,9.842729568481445,-0.17811311781406403,-0.6103618144989014,-1.7434179782867432,0.4818709194660187, -0.262005090713501
156,1922331880,0.21985903,-0.6934079,-0.22650567,-0.64772123,9.836209297180176,-0.19291050732135773,-0.5828765034675598,-1.5233025550842285,0.3441002368927002, -0.24739308655261993
157,1922348547,0.2198877,-0.6933576,-0.22649567,-0.64776886,9.830774307250977,-0.19975736737251282,-0.6207594871520996,-1.4899163246154785,0.4306967258453369, -0.22560948133468628
158,1922365214,0.2200015,-0.69326824,-0.22657487,-0.6477981,9.814177513122559,-0.191207155585289,-0.6486603021621704,-1.4751890897750854,0.5251051783561707, -0.2523235082626343
159,1922381881,0.22001849,-0.69320995,-0.22653453,-0.64786875,9.819334030151367,-0.1841038465499878,-0.6427858471870422,-1.5961066484451294,0.6054521799087524, -0.19133968651294708
160,1922398548,0.22017944,-0.69309497,-0.2266221,-0.6479066,9.82507610321045,-0.19581127166748047,-0.6136524677276611,-1.349558711051941,0.7454896569252014, -0.13050952553749084
161,1922415215,0.22027081,-0.69299597,-0.22664088,-0.6479747,9.827001571655273,-0.17978622019290924,-0.6220525503158569,-1.4172275066375732,0.8077797889709473, -0.17569032311439514
162,1922431882,0.22032754,-0.69290173,-0.22662234,-0.6480629,9.83529281616211,-0.21167810261249542,-0.6183963418006897,-1.3663735389709473,0.8803532719612122, -0.2026733011007309
163,1922448549,0.220562,-0.69274193,-0.22679849,-0.6480922,9.829347610473633,-0.20318138599395752,-0.6244075894355774,-1.3197839260101318,0.8938383460044861, -0.24209122359752655
164,1922465216,0.22061446,-0.6926423,-0.22677587,-0.6481887,9.825050354003906,-0.20115812122821808,-0.6140536665916443,-1.339941143989563,0.945576012134552, -0.2330627590417862
165,1922481883,0.22072966,-0.69251275,-0.22683112,-0.6482687,9.823334693908691,-0.19953513145446777,-0.5947796702384949,-1.2158732414245605,0.9849171042442322, -0.3152795433998108
166,1922498550,0.22082719,-0.6923863,-0.22684892,-0.64836437,9.804139137268066,-0.19986526668071747,-0.5869150757789612,-1.156618356704712,1.0720387697219849, -0.25688257813453674
167,1922515217,0.22088654,-0.6922812,-0.22683014,-0.64846295,9.793953895568848,-0.19505277276039124,-0.6041694283485413,-1.1781842708587646,0.9827529191970825, -0.24821268022060394
168,1922531884,0.22093044,-0.69219166,-0.22679797,-0.6485546,9.775155067443848,-0.18497948348522186,-0.5897951722145081,-1.2221866846084595,0.8757301568984985, -0.22779935598373413
169,1922548551,0.22104208,-0.6921013,-0.22684257,-0.64859754,9.769647598266602,-0.19979798793792725,-0.5833258628845215,-1.1134096384048462,0.6435767412185669, -0.18159404397010803
170,1922565218,0.22114295,-0.6920287,-0.2268583,-0.64863515,9.785043716430664,-0.16466622054576874,-0.5875576138496399,-1.1378952264785767,0.563511312007904, -0.07033246755599976
171,1922581885,0.22129142,-0.6919893,-0.22689356,-0.64861405,9.783894538879395,-0.16414013504981995,-0.576799750328064,-1.1754564046859741,0.18641561269760132, 0.214960977435112
172,1922598552,0.22138965,-0.6920155,-0.22685033,-0.6485677,9.8225736618042,-0.1385049819946289,-0.5339516401290894,-1.1829866170883179,-0.19395218789577484, 0.46565812826156616
173,1922615219,0.22161041,-0.6920362,-0.22688301,-0.6484588,9.85990047454834,-0.11598347127437592,-0.5508328080177307,-1.2305620908737183,-0.3813474774360657, 0.8029261231422424
174,1922631886,0.2217606,-0.69212306,-0.22679208,-0.6483467,9.865242004394531,-0.14595350623130798,-0.5512462854385376,-1.3035967350006104,-0.6251291036605835, 1.1344951391220093
175,1922648553,0.22195917,-0.69221836,-0.22670646,-0.648207,9.850212097167969,-0.18532784283161163,-0.5665087103843689,-1.2110835313796997,-0.7264784574508667, 1.392299771308899
176,1922665220,0.22218622,-0.6923334,-0.22659342,-0.6480457,9.836481094360352,-0.18277108669281006,-0.5763636231422424,-1.2690709829330444,-0.830338180065155, 1.71975839138031
177,1922681887,0.22245885,-0.6924718,-0.2264874,-0.64784133,9.869174003601074,-0.18042494356632233,-0.5473002195358276,-1.275755763053894,-1.076053500175476, 2.006722927093506
178,1922698554,0.22270204,-0.6926583,-0.22629382,-0.64762604,9.879800796508789,-0.21070748567581177,-0.562276303768158,-1.3500196933746338,-1.2630646228790283, 2.356208562850952
179,1922715221,0.22306281,-0.6928595,-0.22615686,-0.6473344,9.861042022705078,-0.2037358582019806,-0.5343517065048218,-1.2894201278686523,-1.5847601890563965, 2.7980782985687256
180,1922731888,0.2234137,-0.6931673,-0.22593279,-0.64696187,9.834382057189941,-0.16926291584968567,-0.4963853359222412,-1.1692581176757812,-2.3380167484283447, 3.4254872798919678
181,1922748555,0.22375937,-0.6936231,-0.22561409,-0.6464651,9.872001647949219,-0.11126955598592758,-0.4443267583847046,-1.7977683544158936,-3.453411817550659, 4.285869598388672
182,1922765222,0.22409075,-0.6942819,-0.22517274,-0.6457967,9.944228172302246,-0.06259918212890625,-0.3850027620792389,-2.620666742324829,-5.012764930725098, 5.404453754425049
183,1922781889,0.22432423,-0.69515663,-0.22454919,-0.6449913,9.933250427246094,-0.17351315915584564,-0.45215800404548645,-3.2296981811523438,-6.523761749267578, 6.347424030303955
184,1922798556,0.22457644,-0.6962327,-0.22382748,-0.64399284,9.953925132751465,-0.24007479846477509,-0.4038083255290985,-3.8528943061828613,-8.162528038024902, 7.53042459487915
185,1922815223,0.22484013,-0.69747645,-0.22304252,-0.64282614,9.959083557128906,-0.16628174483776093,-0.49447309970855713,-3.9806253910064697,-9.610273361206055, 8.39809513092041
186,1922831890,0.22515684,-0.6987521,-0.22224371,-0.64160573,9.856514930725098,-0.3913496136665344,-0.7917531132698059,-3.5542898178100586,-9.920278549194336, 8.827019691467285
187,1922848557,0.22573681,-0.69983584,-0.22168344,-0.6404134,9.76435661315918,-0.5288692116737366,-0.9919434189796448,-0.9256690740585327,-8.901825904846191, 8.498713493347168
188,1922865224,0.22655098,-0.7006598,-0.2213222,-0.639349,9.796992301940918,-0.5458148717880249,-1.100092887878418,1.3401530981063843,-7.080313205718994, 7.963715553283691
189,1922881891,0.22739471,-0.70127356,-0.22099029,-0.6384909,9.743795394897461,-0.546480655670166,-1.0691367387771606,1.6330856084823608,-5.1432623863220215, 7.301370620727539
190,1922898558,0.22815388,-0.7017376,-0.2205874,-0.637849,9.717905044555664,-0.5891501307487488,-1.0627858638763428,1.1739006042480469,-3.4585347175598145, 6.670822620391846
191,1922915225,0.22892001,-0.70202553,-0.22018528,-0.6373966,9.73498821258545,-0.39302438497543335,-0.956159770488739,0.7884165644645691,-1.7304837703704834, 6.156428813934326
192,1922931892,0.22954121,-0.7022102,-0.21967016,-0.63714755,9.778509140014648,-0.4172937572002411,-0.9197394847869873,-0.472656786441803,-0.3303782641887665, 5.585650444030762
193,1922948559,0.23008762,-0.7023012,-0.21910778,-0.63704365,9.820099830627441,-0.45677658915519714,-0.8144232630729675,-1.2493748664855957,0.7554402351379395, 5.129014015197754
194,1922965226,0.23045829,-0.7023662,-0.21844281,-0.63706636,9.86570930480957,-0.6775357723236084,-0.8172915577888489,-2.0537545680999756,1.3487073183059692, 4.563421249389648
195,1922981893,0.23081666,-0.70241183,-0.21781258,-0.63710207,9.84019660949707,-0.6655781269073486,-0.7297384738922119,-2.397118330001831,1.4446909427642822, 4.31834602355957
196,1922998560,0.23109068,-0.7025091,-0.21715882,-0.6371189,9.836126327514648,-0.6325291991233826,-0.737226665019989,-2.849003314971924,1.029188871383667, 4.151531219482422
197,1923015227,0.23139872,-0.70267737,-0.21659395,-0.6370136,9.889719009399414,-0.6101526618003845,-0.6341237425804138,-2.477964401245117,0.050373777747154236, 4.1848907470703125
198,1923031894,0.23195949,-0.70294625,-0.21627857,-0.63662004,10.107635498046875,-0.6534975171089172,-0.33540645241737366,0.10439096391201019,-1.8137377500534058, 4.691254615783691
199,1923048561,0.23285645,-0.70351315,-0.21619366,-0.6356946,10.279458999633789,-0.6153574585914612,0.05496956780552864,3.0660269260406494,-5.583045482635498, 6.334694862365723
200,1923065228,0.23428093,-0.7043814,-0.21621035,-0.63420206,10.837264060974121,-0.1483313888311386,0.5620856285095215,6.850180149078369,-9.098240852355957, 9.467299461364746
201,1923081895,0.23692758,-0.70469445,-0.21663389,-0.632725,10.902207374572754,0.2628699839115143,0.9163540601730347,15.250945091247559,-5.505316734313965, 12.017003059387207
202,1923098562,0.24049708,-0.7056972,-0.21743666,-0.62997925,11.667344093322754,-0.08752544224262238,1.694901704788208,23.046728134155273,-14.054902076721191, 17.258146286010742
203,1923115229,0.24332221,-0.708619,-0.21699758,-0.62575185,11.915020942687988,-0.16041414439678192,1.4760839939117432,12.224031448364258,-28.700424194335938, 25.4948673248291
204,1923131896,0.24497272,-0.7136355,-0.215202,-0.62000084,12.342110633850098,-0.08911123126745224,1.2567697763442993,1.2533392906188965,-44.90424346923828, 32.5681037902832
205,1923148563,0.24651335,-0.7198735,-0.21337348,-0.6127685,12.07453441619873,-0.09581796079874039,0.7841618061065674,-0.5307038426399231,-57.52346420288086, 36.732730865478516
206,1923165230,0.2484603,-0.72643125,-0.21228795,-0.60456526,11.700389862060547,-0.1760275959968567,0.10394985228776932,6.633031368255615,-64.58226776123047, 36.76127624511719
207,1923181897,0.25034007,-0.73294896,-0.2119623,-0.5959763,10.818379402160645,0.30200284719467163,-1.1636362075805664,9.585165977478027,-67.78448486328125, 33.384361267089844
208,1923198564,0.25148863,-0.73918414,-0.21222089,-0.5876416,10.354687690734863,0.26309970021247864,-1.0732582807540894,9.189671516418457,-67.5518798828125, 26.505643844604492
209,1923215231,0.25217283,-0.744439,-0.21288837,-0.5804292,10.142958641052246,0.11997318267822266,0.3379632830619812,10.16882038116455,-59.52375411987305, 18.901029586791992
210,1923231898,0.25349668,-0.74701685,-0.21501495,-0.5757377,8.795485496520996,1.6601513624191284,4.2357683181762695,17.706571578979492,-37.28349685668945, 6.265526294708252
211,1923248565,0.25427565,-0.74699616,-0.21763279,-0.5744361,8.281745910644531,1.5782406330108643,5.234666347503662,16.29469108581543,-11.510557174682617, -8.000420570373535
212,1923265232,0.25564024,-0.7435417,-0.22165221,-0.57677037,8.020031929016113,1.9449597597122192,6.817205905914307,25.037288665771484,18.876617431640625, -24.157926559448242
213,1923281899,0.2570594,-0.7367277,-0.22651541,-0.58296114,8.092982292175293,1.7931327819824219,6.703157901763916,28.842792510986328,50.09962844848633, -40.02581787109375
214,1923298566,0.25781736,-0.7270709,-0.23138641,-0.592755,9.347921371459961,1.4849498271942139,6.152504920959473,24.939857482910156,78.32894134521484, -53.35203170776367
215,1923315233,0.2578879,-0.7148401,-0.2360317,-0.60562915,9.985234260559082,1.3446037769317627,5.354208946228027,19.86293601989746,103.21941375732422, -64.37553405761719
216,1923331900,0.2561295,-0.70104975,-0.23929541,-0.6210191,10.52951431274414,0.9205647110939026,4.468983173370361,3.411818742752075,121.2937240600586, -72.02935791015625
217,1923348567,0.2538686,-0.6857741,-0.24166666,-0.63785744,11.354706764221191,0.3400683104991913,3.4997823238372803,-2.6275713443756104,135.1163330078125, -74.80081939697266
218,1923365234,0.25126463,-0.6691553,-0.24316308,-0.65572053,11.688547134399414,0.07976924628019333,2.4729695320129395,-7.713253498077393,146.621337890625, -76.17414855957031
219,1923381901,0.2488025,-0.6512352,-0.24443993,-0.6739726,11.763360023498535,-0.09940790385007858,1.6399736404418945,-6.162683010101318,154.780517578125, -77.39412689208984
220,1923398568,0.24693343,-0.6322287,-0.24640407,-0.69180626,11.803380966186523,-0.35508790612220764,0.9923297166824341,1.0206371545791626,157.7046356201172, -78.92984771728516
221,1923415235,0.24600582,-0.61251026,-0.2494682,-0.70857465,11.82007122039795,-0.6315175890922546,0.5587757229804993,12.90472412109375,156.16419982910156, -78.77993774414062
222,1923431902,0.24607128,-0.59247565,-0.2534047,-0.72402185,11.679250717163086,-0.8549086451530457,-0.047080934047698975,24.33067512512207,152.41366577148438, -76.03251647949219
223,1923448569,0.24610683,-0.57333297,-0.25704747,-0.7380023,11.292476654052734,-0.6987848281860352,-0.8442172408103943,24.162778854370117,142.56451416015625, -71.0285415649414
224,1923465236,0.24567904,-0.55581707,-0.2596494,-0.7505275,11.011415481567383,-1.0266071557998657,-0.7545239925384521,17.23697853088379,129.71188354492188, -63.983211517333984
225,1923481903,0.24521397,-0.54011065,-0.2612563,-0.7615089,10.665892601013184,-1.2771263122558594,-0.5386799573898315,11.59089469909668,116.26050567626953, -54.68814468383789
226,1923498570,0.24460676,-0.52650315,-0.2613484,-0.7711416,10.062180519104004,-1.4618786573410034,-0.9377245306968689,2.37374210357666,102.78890991210938, -43.81996536254883
227,1923515237,0.2440183,-0.51520133,-0.26008806,-0.7793439,9.584588050842285,-1.5447269678115845,-1.40018630027771,-5.273830890655518,88.02188873291016, -32.1818962097168
228,1923531904,0.24355401,-0.5064212,-0.25780284,-0.78597516,9.111957550048828,-1.3803982734680176,-2.0980968475341797,-11.695412635803223,71.13123321533203, -20.87286949157715
229,1923548571,0.24342433,-0.5002723,-0.25571787,-0.7906204,8.14797306060791,0.28989559412002563,-2.8829360008239746,-10.34056282043457,50.52157974243164, -11.91310977935791
230,1923565238,0.24202122,-0.49697554,-0.2546565,-0.79346776,8.03851318359375,-0.6567038893699646,-3.7411489486694336,-10.797747611999512,25.168729782104492, -14.386356353759766
231,1923581905,0.2418956,-0.49600503,-0.25607246,-0.79365766,8.471648216247559,-1.559053897857666,-4.307605266571045,7.847062587738037,1.8349777460098267, -7.478232383728027
232,1923598572,0.24216358,-0.4977505,-0.2584931,-0.7916961,8.151274681091309,-0.6195077300071716,-4.440977573394775,13.93052864074707,-20.950056076049805, -0.5279045104980469
233,1923615239,0.24269536,-0.5022326,-0.2618068,-0.78760326,7.938421249389648,-0.402373731136322,-4.091772079467773,18.89720916748047,-43.8155403137207, 6.176661491394043
234,1923631906,0.24378477,-0.5086711,-0.26623917,-0.7816261,7.963369369506836,-0.33268555998802185,-4.779653072357178,26.974899291992188,-61.4647216796875, 11.921798706054688
235,1923648573,0.24477586,-0.5171039,-0.27057126,-0.7742606,7.7730631828308105,0.2521612346172333,-5.169678211212158,25.254301071166992,-76.71625518798828, 17.647863388061523
236,1923665240,0.24656177,-0.5242846,-0.27655974,-0.76671225,9.551528930664062,2.5033445358276367,4.660078048706055,39.29789733886719,-71.67454528808594, 13.920500755310059
237,1923681907,0.24872205,-0.5270221,-0.28231177,-0.7620269,9.640748023986816,7.596331596374512,17.498384475708008,41.48542022705078,-36.89382553100586, 3.4779539108276367
238,1923698574,0.24672651,-0.52982605,-0.28296462,-0.76048774,11.34787368774414,2.3844330310821533,6.031698703765869,-6.476558208465576,-25.82172393798828, -4.816761493682861
239,1923715241,0.24480207,-0.53580046,-0.2819479,-0.7572948,15.354267120361328,-4.973080635070801,-1.7741529941558838,-17.094167709350586,-45.56440353393555, 10.622658729553223
240,1923731908,0.24454756,-0.5437475,-0.28327703,-0.75119203,15.025681495666504,-3.5416271686553955,1.5110071897506714,3.625840425491333,-66.99246215820312, 19.067964553833008
241,1923748575,0.24465178,-0.55225295,-0.2862917,-0.7437738,11.796563148498535,-0.2938586175441742,0.8565112948417664,15.32720947265625,-76.81900024414062, 17.6584415435791
242,1923765242,0.24398755,-0.56078464,-0.29027787,-0.73602265,11.231772422790527,1.5153169631958008,-1.4395532608032227,17.97888946533203,-81.27889251708984, 10.560474395751953
243,1923781909,0.24592432,-0.567434,-0.2966934,-0.72767645,9.483622550964355,1.6694941520690918,-0.9264580011367798,44.607872009277344,-72.76956176757812, 11.590850830078125
244,1923798576,0.24832954,-0.57276845,-0.30319214,-0.71996063,9.557068824768066,2.876443386077881,-1.3461390733718872,47.7574348449707,-62.808311462402344, 9.872974395751953
245,1923815243,0.24970134,-0.57783604,-0.30755082,-0.7135597,10.145288467407227,2.5075411796569824,0.5586887001991272,30.77275848388672,-54.69169235229492, 10.44749927520752
246,1923831910,0.24857697,-0.5835258,-0.30875912,-0.70878434,10.117544174194336,1.6365615129470825,0.9295496940612793,0.8769294023513794,-51.120018005371094, 9.287949562072754
247,1923848577,0.2457933,-0.5896931,-0.30810428,-0.70492524,10.088531494140625,0.05687176063656807,1.2112966775894165,-17.630117416381836,-50.09531784057617, 8.139100074768066
248,1923865244,0.24282873,-0.5956312,-0.3075944,-0.7011731,9.899094581604004,-0.09410257637500763,1.1246483325958252,-17.50163459777832,-49.17947006225586, 5.956796169281006
249,1923881911,0.2409045,-0.6010443,-0.30850714,-0.6968028,9.87137508392334,0.6959438323974609,0.4733591079711914,-4.201223850250244,-49.36081314086914, 5.0129804611206055
250,1923898578,0.24063656,-0.6057804,-0.311194,-0.69157976,9.774154663085938,1.3826090097427368,0.12446687370538712,14.06396484375,-49.053314208984375, 5.570793628692627
251,1923915245,0.24115366,-0.610178,-0.3145322,-0.686001,9.652549743652344,1.7181745767593384,0.29557135701179504,21.741308212280273,-48.30540084838867, 6.461579322814941
252,1923931912,0.24147485,-0.61461234,-0.31749046,-0.680545,9.754663467407227,1.6372636556625366,0.3712868392467499,18.79256820678711,-47.753562927246094, 7.0294013023376465
253,1923948579,0.24083023,-0.6194805,-0.3189729,-0.6756486,9.928574562072754,1.4387236833572388,0.09165728092193604,5.857204914093018,-47.08058166503906, 8.78406810760498
254,1923965246,0.23932746,-0.6246915,-0.31911218,-0.67130506,9.877883911132812,1.3178157806396484,-0.1892400085926056,-5.823003768920898,-45.972137451171875, 10.368186950683594
255,1923981913,0.23764178,-0.6297686,-0.31878847,-0.667302,9.872910499572754,1.1430076360702515,-0.44394102692604065,-9.278461456298828,-43.519447326660156, 10.669516563415527
256,1923998580,0.23630334,-0.63451135,-0.3186601,-0.66333383,10.001883506774902,0.9785643219947815,-0.35818585753440857,-6.4146270751953125,-41.37582778930664, 10.632201194763184
257,1924015247,0.23535901,-0.63891065,-0.31887195,-0.65933305,9.900506019592285,0.7314701080322266,-0.4796111285686493,-2.5189602375030518,-39.633033752441406, 10.243853569030762
258,1924031914,0.23498051,-0.6429927,-0.31962785,-0.65512043,10.018205642700195,0.4858664572238922,-0.5113646984100342,3.4055542945861816,-38.75728988647461, 10.055174827575684
259,1924048581,0.23530759,-0.64667964,-0.32107043,-0.65065324,9.977104187011719,0.5596917271614075,-0.5042072534561157,10.810728073120117,-37.65949249267578, 9.719377517700195
260,1924065248,0.23612683,-0.6501352,-0.32300594,-0.64593786,9.860387802124023,0.7085285186767578,-0.6860366463661194,16.120624542236328,-37.442657470703125, 9.602996826171875
261,1924081915,0.23767292,-0.65327257,-0.32561538,-0.6408753,9.8036527633667,0.7910569310188293,-0.8152521848678589,23.64561653137207,-37.06309509277344, 9.665027618408203
262,1924098582,0.2395317,-0.6564151,-0.32837835,-0.63554025,9.768342018127441,0.9375271797180176,-0.8304742574691772,26.323678970336914,-37.862606048583984, 10.803938865661621
263,1924115249,0.24107467,-0.6595769,-0.33071437,-0.6304519,9.783520698547363,1.0039219856262207,-0.9856287240982056,22.440704345703125,-36.84867477416992, 10.989672660827637
264,1924131916,0.24230134,-0.66278917,-0.3326619,-0.62556916,9.675990104675293,0.967704713344574,-1.091536283493042,18.769094467163086,-36.214073181152344, 11.160719871520996
265,1924148583,0.24337076,-0.6660544,-0.33443353,-0.62072265,9.68445110321045,0.8494174480438232,-1.3663296699523926,17.12193489074707,-36.34648895263672, 11.354071617126465
266,1924165250,0.24416652,-0.6693863,-0.3359457,-0.6159913,9.592228889465332,1.1107207536697388,-1.3723880052566528,14.382466316223145,-36.295379638671875, 11.339736938476562
267,1924181917,0.244542,-0.6729573,-0.33693793,-0.6113924,9.606711387634277,1.0411465167999268,-1.4194002151489258,9.538434028625488,-36.79471969604492, 12.299613952636719
268,1924198584,0.24463642,-0.67678696,-0.33758184,-0.6067546,9.665169715881348,1.060630202293396,-1.4373847246170044,6.428409576416016,-38.12759780883789, 13.410191535949707
269,1924215251,0.24465735,-0.68077123,-0.33801854,-0.60202736,9.658935546875,1.0949627161026,-1.5378196239471436,5.16961669921875,-39.01604461669922, 14.596096992492676
270,1924231918,0.24446097,-0.6849607,-0.33811864,-0.5972803,9.574764251708984,1.1900194883346558,-1.6115856170654297,2.4618000984191895,-39.90167236328125, 15.803695678710938
271,1924248585,0.24407344,-0.6894674,-0.33772275,-0.5924577,9.730301856994629,0.4884117841720581,-1.7053236961364746,-0.8299087882041931,-41.175315856933594, 18.245882034301758
272,1924265252,0.24390127,-0.6941396,-0.33730355,-0.5872893,9.98275089263916,0.1635192483663559,-1.6881797313690186,0.6198130249977112,-42.956050872802734, 20.20016098022461
273,1924281919,0.24376799,-0.699032,-0.33678627,-0.5818131,10.118096351623535,0.2039736658334732,-1.6962330341339111,0.7496839165687561,-45.07146072387695, 21.84228515625
274,1924298586,0.24351259,-0.7042679,-0.3360331,-0.57601243,10.078187942504883,0.19921965897083282,-1.8525354862213135,-0.6082437038421631,-47.911251068115234, 23.821758270263672
275,1924315253,0.24299622,-0.7099236,-0.3348614,-0.5699378,10.011326789855957,0.14950135350227356,-2.08683443069458,-3.602583408355713,-50.81940460205078, 26.241252899169922
276,1924331920,0.2421406,-0.7160291,-0.3332434,-0.5635771,10.031673431396484,0.3421882092952728,-2.092236042022705,-7.103456974029541,-54.02614974975586, 28.60288429260254
277,1924348587,0.24093385,-0.7226807,-0.33114213,-0.55680203,10.315821647644043,0.1288774013519287,-2.3105404376983643,-10.665450096130371,-58.199195861816406, 31.571746826171875
278,1924365254,0.23964638,-0.7298794,-0.32868135,-0.5493764,10.516740798950195,0.7181010246276855,-2.1113734245300293,-11.871160507202148,-63.13264083862305, 35.377655029296875
279,1924381921,0.23832361,-0.73751867,-0.32605535,-0.54125416,10.949243545532227,1.1476892232894897,-2.3984076976776123,-11.819931030273438,-68.13468170166016, 38.24631881713867
280,1924398588,0.23748332,-0.74538195,-0.3233139,-0.5324243,11.711831092834473,0.3845573663711548,-2.3864452838897705,-8.573945999145508,-71.3233642578125, 42.335880279541016
281,1924415255,0.2378767,-0.7531536,-0.32126427,-0.5224592,12.157487869262695,-0.09650864452123642,-2.0447609424591064,2.9559199810028076,-75.24686431884766, 44.97858810424805
282,1924431922,0.23959161,-0.76109844,-0.32003307,-0.5107875,13.072546005249023,-0.39098429679870605,-1.5419154167175293,16.221059799194336,-83.20661163330078, 48.67093276977539
283,1924448589,0.24221148,-0.76957583,-0.31888276,-0.49739376,14.73677921295166,-0.38626956939697266,-0.3480738401412964,24.14133071899414,-92.35050964355469, 55.44140625
284,1924465256,0.24551563,-0.7788397,-0.317163,-0.48222294,16.164627075195312,-0.5604633688926697,1.0667020082473755,28.38350486755371,-102.18830871582031, 65.49748229980469
285,1924481923,0.24853742,-0.7891532,-0.31427997,-0.46550497,17.376502990722656,-0.3871169686317444,2.4957101345062256,24.58534049987793,-112.87750244140625, 75.71939086914062
286,1924498590,0.2519446,-0.79999715,-0.3110258,-0.44698042,17.77288055419922,-0.04933847114443779,3.0952181816101074,28.441402435302734,-123.25718688964844, 83.25479125976562
287,1924515257,0.2568587,-0.8103695,-0.30776942,-0.42732078,17.69621467590332,1.3097752332687378,3.8367295265197754,39.91618347167969,-125.2070541381836, 88.94316101074219
288,1924531924,0.2628861,-0.81953764,-0.30487278,-0.40780124,16.35759925842285,3.581895112991333,2.0083084106445312,48.96494674682617,-119.57903289794922, 87.5663833618164
289,1924548591,0.26575607,-0.82893825,-0.30036986,-0.38988844,13.734163284301758,2.173384428024292,-3.056492805480957,22.889835357666016,-115.23193359375, 85.57359313964844
290,1924565258,0.26780796,-0.838227,-0.29465997,-0.3725992,13.2755765914917,2.6612589359283447,-4.940242290496826,13.933755874633789,-111.01139068603516, 89.05870056152344
291,1924581925,0.267888,-0.8467977,-0.28765258,-0.3583656,11.433801651000977,2.8107094764709473,-2.6644458770751953,-5.568397521972656,-93.26971435546875, 84.5797119140625
292,1924598592,0.26679963,-0.8543515,-0.28101584,-0.3463114,8.963003158569336,4.4806342124938965,-0.5470265746116638,-13.849114418029785,-81.21162414550781, 73.67534637451172
293,1924615259,0.26218483,-0.8613132,-0.27501017,-0.33729517,7.357093811035156,4.6920671463012695,-0.7156595587730408,-37.77293395996094,-70.08848571777344, 55.02372741699219
294,1924631926,0.25924292,-0.8660322,-0.27057704,-0.33101287,6.713251113891602,1.1225316524505615,-2.651132106781006,-25.258464813232422,-48.49844741821289, 40.572566986083984
295,1924648593,0.26263502,-0.86688495,-0.26796153,-0.32822284,8.17074966430664,1.1260961294174194,-0.0653982013463974,17.016841888427734,-10.41940975189209, 30.819766998291016
296,1924665260,0.27027175,-0.86369693,-0.26867917,-0.32983705,5.250961780548096,3.4443013668060303,3.9807517528533936,49.023338317871094,26.60938262939453, 5.247644901275635
297,1924681927,0.2772325,-0.85797465,-0.2714102,-0.33668712,4.81962251663208,4.262073516845703,4.151317596435547,44.63182067871094,58.29082107543945, -22.498188018798828
298,1924698594,0.27861035,-0.8517312,-0.27307814,-0.3497983,5.347596168518066,2.6269986629486084,2.3718276023864746,-1.4155203104019165,87.87413024902344, -41.90714645385742
299,1924715261,0.2771774,-0.8440186,-0.2744527,-0.36807767,7.0296101570129395,1.3371427059173584,1.3316744565963745,-25.450685501098633,116.81787109375, -59.52435302734375
300,1924731928,0.27492553,-0.83407915,-0.27625623,-0.3903977,7.787130355834961,0.6606079339981079,0.4200991988182068,-32.49119186401367,143.39186096191406, -75.94196319580078
301,1924748595,0.27204987,-0.8218345,-0.27808842,-0.41622573,8.41390323638916,0.3572348356246948,0.3228124678134918,-38.29250717163086,168.32894897460938, -88.765380859375
302,1924765262,0.26944312,-0.8071187,-0.28014457,-0.44438615,8.895405769348145,0.0014562808210030198,0.19134335219860077,-35.9651985168457,188.54920959472656, -98.33731842041016
303,1924781929,0.2668102,-0.79012764,-0.28194925,-0.47435778,9.81685733795166,0.17225036025047302,-0.6919535994529724,-36.15012741088867,205.8531951904297, -104.76256561279297
304,1924798596,0.26448667,-0.77060294,-0.28404495,-0.5055063,10.849017143249512,-0.44465920329093933,-2.134488821029663,-31.141271591186523,220.49130249023438, -112.40253448486328
305,1924815263,0.26308176,-0.74843735,-0.28704676,-0.53687423,11.640840530395508,-0.910197913646698,-2.6205215454101562,-18.733701705932617,230.95028686523438, -119.57849884033203
306,1924831930,0.26228777,-0.723925,-0.29045838,-0.56813025,12.317193984985352,-1.711879849433899,-2.6608898639678955,-9.595123291015625,239.5099639892578, -123.88169860839844
307,1924848597,0.26340592,-0.6968882,-0.29553416,-0.59801656,12.731576919555664,-2.6914756298065186,-2.814877510070801,13.727169036865234,243.40928649902344, -127.3051528930664
308,1924865264,0.26740474,-0.66693556,-0.30358934,-0.6257199,13.549649238586426,-3.6711554527282715,-3.0297696590423584,49.51847839355469,245.48330688476562, -131.76116943359375
309,1924881931,0.2728771,-0.6347449,-0.31269366,-0.6518128,14.140801429748535,-3.9028091430664062,-3.2837095260620117,68.28386688232422,249.0288848876953, -132.0232696533203
310,1924898598,0.27697387,-0.60172415,-0.32052678,-0.67710876,14.698125839233398,-2.152564764022827,-3.9687600135803223,59.8640251159668,248.92518615722656, -133.0433807373047
311,1924915265,0.2780584,-0.56969273,-0.32537267,-0.701617,15.059298515319824,-1.1864469051361084,-4.91266393661499,33.34477233886719,240.3977508544922, -131.12899780273438
312,1924931932,0.27412605,-0.5409124,-0.32449472,-0.7259283,15.093391418457031,-1.4387003183364868,-6.89507532119751,-19.715116500854492,224.0009002685547, -125.3882064819336
313,1924948599,0.2666864,-0.5163421,-0.3182305,-0.74899834,14.643364906311035,-3.4322445392608643,-8.975486755371094,-64.84351348876953,201.10340881347656, -111.30863952636719
314,1924965266,0.25873294,-0.49635604,-0.30917025,-0.76883143,13.533202171325684,-5.6307902336120605,-10.306917190551758,-82.42121124267578,170.4635009765625, -88.30379486083984
315,1924981933,0.25194952,-0.48162237,-0.29991716,-0.7839713,11.482674598693848,-5.102380275726318,-11.716268539428711,-78.83190155029297,129.98475646972656, -62.217411041259766
316,1924998600,0.2468293,-0.47243345,-0.2935771,-0.7935329,9.659377098083496,-4.272650241851807,-13.053506851196289,-55.75347900390625,80.4703140258789, -42.01567459106445
317,1925015267,0.24272072,-0.46925503,-0.28972512,-0.7980889,8.582162857055664,-3.933156728744507,-13.428970336914062,-39.033447265625,29.672555923461914, -24.106157302856445
318,1925031934,0.2398975,-0.47168902,-0.28851166,-0.7979472,8.278480529785156,-3.451079845428467,-12.285558700561523,-20.463411331176758,-17.739622116088867, -6.666926860809326
319,1925048601,0.23932679,-0.4783383,-0.2915061,-0.7930571,9.404111862182617,-3.3351666927337646,-10.927512168884277,12.354949951171875,-58.43364334106445, 8.143898010253906
320,1925065268,0.2405687,-0.48910975,-0.296268,-0.7842983,10.388385772705078,-1.161251187324524,-8.442509651184082,28.89735984802246,-92.67041778564453, 26.754873275756836
321,1925081935,0.24176972,-0.49646428,-0.30140096,-0.7773212,13.976243019104004,9.654496192932129,15.869078636169434,32.75590515136719,-68.78984069824219, 15.335745811462402
322,1925098602,0.23810239,-0.5061423,-0.29719618,-0.77382296,13.376238822937012,-1.1608541011810303,5.517108917236328,-44.817317962646484,-64.19052124023438, 20.362533569335938
323,1925115269,0.23824936,-0.5183393,-0.29589155,-0.766166,16.99441146850586,-7.160641670227051,-5.324342727661133,-11.700507164001465,-89.09284210205078, 42.468509674072266
324,1925131936,0.23588677,-0.5320919,-0.29677066,-0.75707525,14.815433502197266,3.4618098735809326,-1.2202556133270264,-8.755579948425293,-110.94979095458984, 26.830020904541016
325,1925148603,0.23380372,-0.54620653,-0.29695043,-0.74753916,12.137774467468262,-4.025385856628418,-1.2257131338119507,-11.073821067810059,-112.74073791503906, 32.353153228759766
326,1925165270,0.23345353,-0.5585469,-0.2983289,-0.7379193,8.722283363342285,2.9390666484832764,-0.1199641078710556,4.629664897918701,-102.32422637939453, 33.20811080932617
327,1925181937,0.23152743,-0.5698856,-0.2979427,-0.7299696,9.393412590026855,1.9856215715408325,-0.843233585357666,-12.20245361328125,-91.26827239990234, 27.31429100036621
328,1925198604,0.23008512,-0.5798254,-0.2974332,-0.72277033,10.436800003051758,1.6144258975982666,-0.7262713313102722,-10.239923477172852,-80.14701080322266, 26.206207275390625
329,1925215271,0.22729228,-0.5893588,-0.29472163,-0.7170313,10.391321182250977,1.1682512760162354,0.9411402344703674,-28.910938262939453,-71.6114501953125, 25.163644790649414
330,1925231938,0.223615,-0.5984036,-0.29120043,-0.71211797,10.505863189697266,0.0385219007730484,0.168115496635437,-37.39130783081055,-66.43267822265625, 21.82834815979004
331,1925248605,0.22060251,-0.6064073,-0.2890556,-0.70714337,10.146302223205566,-0.3574168086051941,-0.24229936301708221,-26.18978500366211,-62.409141540527344, 17.438886642456055
332,1925265272,0.21814807,-0.6135999,-0.28794143,-0.70213705,10.169269561767578,0.5342639088630676,-0.22640931606292725,-17.55547332763672,-59.081634521484375, 14.293182373046875
333,1925281939,0.21552905,-0.620302,-0.2866758,-0.6975597,10.056998252868652,0.8493515253067017,-0.3359866738319397,-19.09305763244629,-55.03313446044922, 12.536554336547852
334,1925298606,0.21296105,-0.6265858,-0.28516215,-0.6933402,10.255651473999023,0.4979265630245209,-0.5592644810676575,-20.148828506469727,-51.06107711791992, 12.50020694732666
335,1925315273,0.21178879,-0.6320219,-0.28531617,-0.688686,10.200636863708496,0.5762504935264587,-0.26764339208602905,-4.091126918792725,-48.62276840209961, 10.953733444213867
336,1925331940,0.21087809,-0.6369891,-0.28584954,-0.6841531,10.00185775756836,0.8129718899726868,-0.3137408494949341,-0.7119616866111755,-45.941890716552734, 9.456441879272461
337,1925348607,0.2100616,-0.64165324,-0.2863079,-0.67984045,9.913613319396973,0.7644354701042175,-0.6682181358337402,-0.6441382765769958,-43.283077239990234, 9.32361888885498
338,1925365274,0.20933267,-0.64609396,-0.2866297,-0.6757114,9.789941787719727,0.9873465895652771,-0.7525879144668579,-0.9330636262893677,-41.08021926879883, 9.639636039733887
339,1925381941,0.2088392,-0.6503775,-0.28690413,-0.6716261,9.743193626403809,1.025744915008545,-0.8240335583686829,0.03416113927960396,-39.64335250854492, 10.582454681396484
340,1925398608,0.20931888,-0.6542304,-0.2880653,-0.66722304,9.64245319366455,1.0641227960586548,-0.8740392327308655,9.727279663085938,-38.44853973388672, 10.728780746459961
341,1925415275,0.21073039,-0.6575884,-0.29011303,-0.6625744,9.635790824890137,1.1893529891967773,-0.7422795295715332,19.185976028442383,-36.7317008972168, 10.398394584655762
342,1925431942,0.21211283,-0.66109747,-0.29174218,-0.6579095,9.702261924743652,1.0439777374267578,-0.6774059534072876,16.96349334716797,-36.96513366699219, 12.493690490722656
343,1925448609,0.213353,-0.664898,-0.29297107,-0.6531153,9.723750114440918,0.8185425400733948,-0.6319390535354614,14.343047142028809,-38.592220306396484, 14.451133728027344
344,1925465276,0.21443415,-0.668924,-0.29384762,-0.64823794,9.675952911376953,0.6585588455200195,-0.8072793483734131,11.872396469116211,-39.80683517456055, 15.930678367614746
345,1925481943,0.21508694,-0.6734047,-0.29417142,-0.6432163,9.615921974182129,0.7229456305503845,-1.0098235607147217,7.061852931976318,-42.56465148925781, 17.70038604736328
346,1925498610,0.21532065,-0.67830706,-0.29397976,-0.63805395,9.446413040161133,0.8963123559951782,-1.1828205585479736,2.505052328109741,-45.180110931396484, 19.300607681274414
347,1925515277,0.21525943,-0.6836102,-0.29335025,-0.6326819,9.47033405303955,0.9557241797447205,-1.2700235843658447,-0.9593329429626465,-47.876949310302734, 21.17686653137207
348,1925531944,0.21486974,-0.6892946,-0.2923298,-0.6270946,9.526551246643066,1.0620310306549072,-1.3302063941955566,-4.332076549530029,-50.641578674316406, 22.680320739746094
349,1925548611,0.21394627,-0.695341,-0.2907777,-0.6214308,9.650290489196777,0.9612505435943604,-1.4598491191864014,-9.532842636108398,-52.863887786865234, 23.747278213500977
350,1925565278,0.21219805,-0.7018668,-0.28838953,-0.6157812,9.722206115722656,0.9410009384155273,-1.597277045249939,-17.78029441833496,-55.273162841796875, 25.165672302246094
351,1925581945,0.209539,-0.7090021,-0.2850137,-0.6100629,9.756195068359375,0.48258206248283386,-1.8357746601104736,-27.108627319335938,-58.55849075317383, 27.390594482421875
352,1925598612,0.20692474,-0.7165367,-0.2814085,-0.6037936,10.027137756347656,-0.10472527146339417,-1.8152744770050049,-27.347352981567383,-62.50830078125, 30.27716636657715
353,1925615279,0.20493098,-0.7241738,-0.2782283,-0.5967955,10.29552173614502,0.0271490179002285,-1.844361424446106,-21.26041030883789,-65.93678283691406, 31.994037628173828
354,1925631946,0.2034871,-0.73190844,-0.2754454,-0.5890952,10.500327110290527,0.4349808394908905,-1.8988741636276245,-15.686315536499023,-69.3501968383789, 33.449729919433594
355,1925648613,0.20261414,-0.7396613,-0.27309245,-0.5807489,10.721769332885742,0.5329422950744629,-2.155980348587036,-9.872666358947754,-72.20398712158203, 34.540443420410156
356,1925665280,0.20284654,-0.7472144,-0.2716395,-0.5716083,11.173666954040527,0.43745842576026917,-2.26790189743042,1.113647699356079,-74.63292694091797, 35.112483978271484
357,1925681947,0.2049472,-0.7545623,-0.27138993,-0.56123096,12.117953300476074,0.4915104806423187,-1.8850253820419312,18.038442611694336,-78.37913513183594, 37.61791229248047
358,1925698614,0.20805272,-0.7623827,-0.2715695,-0.5493057,13.129611015319824,0.4813438355922699,-1.7138575315475464,27.132001876831055,-86.9766845703125, 42.336151123046875
359,1925715281,0.21240732,-0.77081186,-0.27227104,-0.53535104,14.642483711242676,0.5583838224411011,-0.963060200214386,38.57133483886719,-98.3461685180664, 48.36233139038086
360,1925731948,0.21740901,-0.7801433,-0.27258468,-0.5194299,16.83823013305664,0.39944523572921753,0.02826058864593506,42.93886947631836,-110.3372573852539, 57.36801528930664
361,1925748615,0.22262657,-0.7905843,-0.2720231,-0.5014153,18.191516876220703,0.12654350697994232,1.7858636379241943,43.2374267578125,-123.85340881347656, 68.05075073242188
362,1925765282,0.2282254,-0.8016292,-0.27111632,-0.48145613,19.596757888793945,-0.2628890573978424,2.770082950592041,46.832950592041016,-135.31336975097656, 75.35759735107422
363,1925781949,0.23575109,-0.81193084,-0.2711233,-0.46008936,19.956314086914062,0.9634066820144653,3.919619083404541,64.26691436767578,-138.51022338867188, 77.53412628173828
364,1925798616,0.24632274,-0.8203376,-0.27217743,-0.43850997,18.24553108215332,2.157114028930664,3.9065892696380615,88.05207061767578,-129.78311157226562, 78.15697479248047
365,1925815283,0.2567647,-0.8273355,-0.2723739,-0.41880828,14.26154899597168,3.8019227981567383,2.5028960704803467,83.60649871826172,-113.78706359863281, 76.81425476074219
366,1925831950,0.26366085,-0.8340772,-0.27030873,-0.40215865,12.106276512145996,1.4482556581497192,-6.142927169799805,51.66282653808594,-98.36859893798828, 73.6314697265625
367,1925848617,0.27339676,-0.83928657,-0.2687705,-0.3855063,10.644100189208984,2.092590570449829,-5.17118501663208,72.1973648071289,-89.81523132324219, 75.63760375976562
368,1925865284,0.27879447,-0.84519666,-0.26712188,-0.36954337,8.998865127563477,4.520044326782227,-3.0373222827911377,44.28879165649414,-95.49629211425781, 64.7936782836914
369,1925881951,0.27966067,-0.8504781,-0.26483983,-0.35824138,6.510691165924072,4.43994140625,0.4560531973838806,9.005830764770508,-73.92001342773438, 46.895652770996094
370,1925898618,0.28359947,-0.85215485,-0.26463452,-0.35124367,6.302993297576904,2.827942371368408,0.23213401436805725,31.191986083984375,-38.27939987182617, 27.499441146850586
371,1925915285,0.28937772,-0.8500843,-0.26654083,-0.35010445,5.35573148727417,4.092073440551758,5.6553874015808105,43.72196578979492,4.317530155181885, 1.343004584312439
372,1925931952,0.29443145,-0.8454541,-0.2698978,-0.35450357,3.9313080310821533,3.5227041244506836,5.4154157638549805,37.92451858520508,38.61006546020508, -24.57074546813965
373,1925948619,0.2962469,-0.8396351,-0.2730813,-0.36424953,4.673757076263428,3.130441904067993,3.303161382675171,11.163264274597168,66.91114044189453, -44.47283935546875
374,1925965286,0.2946025,-0.83238596,-0.2760617,-0.37964863,6.113332748413086,2.0750741958618164,1.277419090270996,-17.01860237121582,97.03443908691406, -66.15556335449219
375,1925981953,0.2903456,-0.82336825,-0.27875453,-0.40007526,7.023520469665527,2.1799652576446533,0.3338198959827423,-38.68094253540039,126.0427017211914, -84.86730194091797
376,1925998620,0.28315336,-0.8127739,-0.28055677,-0.42486572,7.772311210632324,2.015002489089966,0.16680274903774261,-62.96658706665039,151.23446655273438, -99.6319808959961
377,1926015287,0.27485192,-0.8002189,-0.28170982,-0.45248857,8.188521385192871,1.1986321210861206,-0.16371850669384003,-72.70865631103516,171.9115447998047, -108.54155731201172
378,1926031954,0.26676023,-0.78538054,-0.2824301,-0.481923,9.794637680053711,0.9454129338264465,-0.8656537532806396,-72.09721374511719,190.20541381835938, -113.35836791992188
379,1926048621,0.25998592,-0.7678479,-0.28292853,-0.5126096,10.935990333557129,-0.30173158645629883,-2.2656068801879883,-63.20969772338867,208.8611602783203, -115.32720947265625
380,1926065288,0.25576606,-0.74738437,-0.2845574,-0.5431646,11.63410472869873,0.0825437605381012,-3.031893014907837,-40.244354248046875,221.45164489746094, -117.76594543457031
381,1926081955,0.2531886,-0.7245681,-0.28744647,-0.5729495,12.240838050842285,-0.05981262028217316,-3.3428382873535156,-21.454421997070312,227.29074096679688, -121.36141204833984
382,1926098622,0.25190458,-0.69974977,-0.29123828,-0.6017263,12.843254089355469,-0.9274721741676331,-3.1371285915374756,-5.9774394035339355,231.15725708007812, -122.96951293945312
383,1926115289,0.251775,-0.6730101,-0.29585913,-0.6293919,13.509119033813477,-1.5290311574935913,-3.1717257499694824,8.555763244628906,234.65658569335938, -124.1146469116211
384,1926131956,0.25246033,-0.64481497,-0.30147427,-0.65543187,13.926015853881836,-1.471627116203308,-3.2341079711914062,22.453262329101562,233.3920135498047, -125.34973907470703
385,1926148623,0.25360048,-0.6155694,-0.30791655,-0.67966795,14.389158248901367,-1.2456814050674438,-3.1419942378997803,33.756103515625,229.66175842285156, -126.0280532836914
386,1926165290,0.2538026,-0.586034,-0.31369793,-0.70266795,14.945014953613281,-0.7183940410614014,-2.9995532035827637,29.812089920043945,224.9796600341797, -126.0890121459961
387,1926181957,0.25187463,-0.5573006,-0.31782436,-0.7245434,14.550578117370605,-0.04189889505505562,-3.460476875305176,14.250481605529785,214.8966827392578, -126.03600311279297
388,1926198624,0.24718143,-0.53066295,-0.31937265,-0.7451841,14.61240291595459,-1.6766587495803833,-4.416146755218506,-10.131515502929688,198.179931640625, -123.2308349609375
389,1926215291,0.24087106,-0.5067271,-0.3175462,-0.7644432,14.117652893066406,-2.373880386352539,-6.101992607116699,-34.89060974121094,181.5203094482422, -110.94990539550781
390,1926231958,0.23333389,-0.48589948,-0.3136035,-0.7817353,13.2255277633667,-3.052349805831909,-7.70858097076416,-51.14990997314453,159.20652770996094, -100.01412963867188
391,1926248625,0.22582263,-0.46928182,-0.30890465,-0.7958372,11.67834186553955,-4.18393611907959,-8.99399471282959,-55.010475158691406,127.24658966064453, -83.18729400634766
392,1926265292,0.21902628,-0.45814106,-0.3041498,-0.8059945,9.894877433776855,-5.117646217346191,-10.712611198425293,-53.14210510253906,86.21755981445312, -61.37470245361328
393,1926281959,0.21432002,-0.45294076,-0.3026958,-0.81073236,8.783417701721191,-5.100137710571289,-11.79530143737793,-25.886716842651367,35.69459915161133, -39.64404296875
394,1926298626,0.211825,-0.4543657,-0.30442885,-0.8099416,8.102665901184082,-4.753444671630859,-12.509383201599121,0.49697059392929077,-18.47669219970703, -15.345738410949707
395,1926315293,0.21129306,-0.46170294,-0.30842537,-0.8044,9.194988250732422,-4.410775661468506,-10.8879976272583,20.554964065551758,-65.36238098144531, 7.775063991546631
396,1926331960,0.21303737,-0.47277215,-0.31484762,-0.7949671,9.25045108795166,-6.061951637268066,-9.607068061828613,44.018741607666016,-96.99790954589844, 26.198347091674805
397,1926348627,0.21588705,-0.48439237,-0.32065678,-0.78481615,11.302972793579102,2.8445239067077637,3.608152151107788,45.00272750854492,-99.00643157958984, 36.43705749511719
398,1926365294,0.2137874,-0.49402994,-0.31802577,-0.78044164,15.964083671569824,9.160466194152832,18.627456665039062,-26.814605712890625,-67.46766662597656, 24.89976692199707
399,1926381961,0.20828414,-0.5080137,-0.306962,-0.77737653,14.642951011657715,-6.944108963012695,-3.87788987159729,-92.86161804199219,-81.47298431396484, 42.897647857666016
400,1926398628,0.20407765,-0.5237252,-0.3016686,-0.77010417,17.823265075683594,4.319437503814697,-3.4248836040496826,-51.08055114746094,-110.89595031738281, 39.3034782409668
401,1926415295,0.19814654,-0.5409287,-0.29531696,-0.7621825,13.757729530334473,-5.4148478507995605,-2.5870792865753174,-63.65415954589844,-123.19612121582031, 38.00215148925781
402,1926431962,0.1983605,-0.5555397,-0.29462355,-0.751815,10.17968463897705,-1.3672453165054321,-1.1099650859832764,-2.6460745334625244,-113.91702270507812, 47.19688415527344
403,1926448629,0.1969344,-0.56857884,-0.29262444,-0.74317294,8.706777572631836,3.3140552043914795,-0.93462735414505,-17.011478424072266,-100.7408218383789, 38.162113189697266
404,1926465296,0.19537103,-0.5799057,-0.2900591,-0.7358025,10.158797264099121,3.630157470703125,-0.835612416267395,-20.684520721435547,-86.5306625366211, 34.527587890625
405,1926481963,0.1900135,-0.59090406,-0.28248957,-0.7313871,9.629467964172363,2.792896032333374,-0.06483606994152069,-66.58357238769531,-73.93268585205078, 30.683439254760742
406,1926498630,0.18378435,-0.6012313,-0.27360812,-0.7279306,11.081266403198242,-0.3867429792881012,-0.5398874282836914,-77.70770263671875,-66.64668273925781, 29.09537696838379
407,1926515297,0.17774692,-0.6104271,-0.26571757,-0.7246924,10.61345100402832,-1.2990164756774902,-0.02069840580224991,-70.93396759033203,-60.975162506103516, 23.556852340698242
408,1926531964,0.1727694,-0.6185301,-0.2597619,-0.72117627,10.56659984588623,-0.5205325484275818,-0.30319944024086,-54.99868392944336,-57.13043212890625, 19.05748176574707
409,1926548631,0.16831344,-0.62571234,-0.25486463,-0.71777344,10.071609497070312,0.6017818450927734,-0.46563488245010376,-46.63968276977539,-52.41362762451172, 15.363626480102539
410,1926565298,0.16410236,-0.6323145,-0.25027207,-0.7145718,9.924931526184082,1.613572359085083,-0.20923161506652832,-43.76314926147461,-48.6142578125, 14.018019676208496
411,1926581965,0.16017966,-0.6384482,-0.24584389,-0.7115387,9.854026794433594,1.732455849647522,-0.36300408840179443,-41.46199417114258,-45.27678298950195, 13.735086441040039
412,1926598632,0.15639606,-0.644373,-0.24136694,-0.70856607,9.63330078125,1.8394570350646973,-0.24621841311454773,-40.961116790771484,-43.70768356323242, 14.221019744873047
413,1926615299,0.15277001,-0.6502763,-0.23686664,-0.70547605,9.758378982543945,1.290086269378662,-0.2408568412065506,-40.157527923583984,-43.844242095947266, 15.193904876708984
414,1926631966,0.15021276,-0.6559362,-0.23360169,-0.7018649,9.728055953979492,0.5803388357162476,-0.4274967908859253,-28.280881881713867,-44.55825424194336, 15.013229370117188
415,1926648633,0.14874972,-0.66143405,-0.23171107,-0.6976309,9.764204978942871,0.28621408343315125,-0.5468642115592957,-15.545207023620605,-46.2551383972168, 14.48090648651123
416,1926665300,0.14821939,-0.66686815,-0.23103191,-0.6927787,9.780695915222168,0.39126893877983093,-0.3703177869319916,-4.441833019256592,-48.52080535888672, 13.975754737854004
417,1926681967,0.14850453,-0.67227644,-0.23134156,-0.68736595,9.797124862670898,0.4919588267803192,-0.34288540482521057,4.924813270568848,-50.690303802490234, 13.856725692749023
418,1926698634,0.14963473,-0.6777094,-0.23265956,-0.6813141,9.803985595703125,1.084449291229248,-0.3597712516784668,14.588810920715332,-53.45732498168945, 13.881787300109863
419,1926715301,0.15130362,-0.6832243,-0.23466322,-0.6747185,9.685859680175781,1.378169059753418,-0.520416259765625,21.097637176513672,-56.2299919128418, 13.903944969177246
420,1926731968,0.15316838,-0.6889521,-0.23679891,-0.6676907,9.571029663085938,1.2851970195770264,-0.8581568002700806,23.10803985595703,-59.080726623535156, 14.99009895324707
421,1926748635,0.15522043,-0.69470745,-0.23892562,-0.6604566,9.655964851379395,0.765910267829895,-1.3120818138122559,24.261859893798828,-59.880455017089844, 16.159053802490234
422,1926765302,0.15715449,-0.7003957,-0.24050787,-0.6533793,9.551788330078125,0.9400519132614136,-1.419352412223816,21.041303634643555,-58.44709777832031, 17.947731018066406
423,1926781969,0.15817724,-0.70617056,-0.24084906,-0.6467572,9.294197082519531,1.0355217456817627,-1.8771564960479736,10.23235034942627,-56.81814956665039, 19.485441207885742
424,1926798636,0.15885061,-0.71213305,-0.24098921,-0.63996655,9.07818603515625,0.9231738448143005,-1.9316253662109375,7.718115329742432,-58.83582305908203, 19.406118392944336
425,1926815303,0.15978141,-0.71826935,-0.24150378,-0.6326413,9.25367546081543,0.9569827914237976,-1.7918838262557983,11.32368278503418,-62.205963134765625, 19.581497192382812
426,1926831970,0.1606731,-0.7246394,-0.24194616,-0.6249353,9.802207946777344,0.8615176677703857,-1.7280367612838745,11.193174362182617,-65.09656524658203, 20.578834533691406
427,1926848637,0.16196108,-0.7309933,-0.24270104,-0.61685807,10.261052131652832,0.13806584477424622,-1.9984183311462402,15.147616386413574,-66.5711441040039, 21.111284255981445
428,1926865304,0.16391194,-0.73720425,-0.24404787,-0.60836124,10.469091415405273,0.09579835087060928,-2.1896932125091553,21.849637985229492,-67.63504791259766, 21.175859451293945
429,1926881971,0.16628203,-0.74340785,-0.24579622,-0.59939927,10.696228981018066,0.39415839314460754,-2.3320960998535156,26.443857192993164,-69.71941375732422, 21.40537452697754
430,1926898638,0.16892877,-0.74968576,-0.24759775,-0.59002525,10.82399845123291,0.49054867029190063,-2.406216621398926,28.68911361694336,-71.73286437988281, 22.87145233154297
431,1926915305,0.17209795,-0.7561139,-0.24918684,-0.58015513,11.482529640197754,0.022478770464658737,-2.213191509246826,31.191974639892578,-73.77316284179688, 26.91990089416504
432,1926931972,0.17522599,-0.7630642,-0.24994706,-0.56969786,12.062750816345215,0.5433364510536194,-2.0599160194396973,28.060686111450195,-78.00946807861328, 32.654605865478516
433,1926948639,0.17890784,-0.7705412,-0.25053447,-0.5581134,12.868505477905273,0.9133381247520447,-1.8865914344787598,31.593921661376953,-84.84154510498047, 37.997188568115234
434,1926965306,0.18370713,-0.7785199,-0.25125208,-0.5450052,14.549945831298828,0.8889082670211792,-1.357802391052246,40.02500534057617,-93.09370422363281, 44.34077835083008
435,1926981973,0.18957189,-0.7871378,-0.25166953,-0.53022534,16.49921417236328,0.9846961498260498,-0.6932864189147949,46.68820571899414,-102.24269104003906, 53.16270446777344
436,1926998640,0.1963202,-0.7964095,-0.2518025,-0.51360065,17.129676818847656,1.0349825620651245,0.5360065698623657,52.7779426574707,-112.74649047851562, 61.46918869018555
437,1927015307,0.2030077,-0.80636895,-0.25175446,-0.4951531,18.18804931640625,1.4252485036849976,1.859711766242981,54.03797912597656,-125.06221008300781, 65.90849304199219
438,1927031974,0.21103437,-0.81596744,-0.25286838,-0.47509915,18.795806884765625,0.2402503937482834,3.243788957595825,68.70858764648438,-132.09884643554688, 65.65995788574219
439,1927048641,0.22078775,-0.8245065,-0.2547411,-0.4544763,18.6431884765625,0.19087034463882446,4.440031051635742,83.40287780761719,-129.99298095703125, 66.04108428955078
440,1927065308,0.23293622,-0.83117676,-0.2568506,-0.43464234,16.06512451171875,0.3867933452129364,3.0520222187042236,99.17530059814453,-115.91329956054688, 67.73026275634766
441,1927081975,0.24890095,-0.83644503,-0.25943592,-0.41364387,14.787468910217285,-0.2140178680419922,-3.7772345542907715,126.71129608154297,-112.4581527709961, 75.82969665527344
442,1927098642,0.26255947,-0.84095347,-0.25937808,-0.39570582,12.599339485168457,4.692049980163574,-1.5134782791137695,101.76782989501953,-92.2974624633789, 77.8970947265625
443,1927115309,0.27154258,-0.8452108,-0.25870416,-0.38073042,9.442159652709961,6.244088649749756,-0.6003504395484924,68.23898315429688,-81.72885131835938, 62.980613708496094
444,1927131976,0.27369314,-0.850597,-0.25724852,-0.3679677,6.604743957519531,6.083763599395752,-0.09525993466377258,20.462919235229492,-82.53544616699219, 47.553253173828125
445,1927148643,0.27056274,-0.8561208,-0.25476715,-0.35909167,7.783592700958252,-0.043488021939992905,-4.816522598266602,-20.130373001098633,-67.57496643066406, 33.15068054199219
446,1927165310,0.2751224,-0.8568301,-0.2551885,-0.35359418,7.404764175415039,3.63720965385437,1.2442493438720703,35.3453254699707,-27.72530746459961, 20.338241577148438
447,1927181977,0.2819726,-0.85345095,-0.25909615,-0.35352817,5.469569683074951,3.394850492477417,4.6369147300720215,55.52908706665039,11.61546516418457, -12.054170608520508
448,1927198644,0.2860292,-0.8485021,-0.26298255,-0.35926563,4.500804424285889,3.8855397701263428,4.334266662597656,31.793663024902344,44.5222053527832, -32.745887756347656
449,1927215311,0.28382957,-0.8434117,-0.26488078,-0.371397,4.7995076179504395,3.3702354431152344,2.840082883834839,-20.893461227416992,74.74821472167969, -49.411949157714844
450,1927231978,0.2788,-0.8366758,-0.26645356,-0.38890448,6.336330413818359,2.4613888263702393,1.6037555932998657,-44.71054458618164,105.59005737304688, -68.22943878173828
451,1927248645,0.27284947,-0.8275047,-0.2682889,-0.41086528,7.34459924697876,1.3906242847442627,0.9015925526618958,-52.79564666748047,135.51585388183594, -85.19416046142578
452,1927265312,0.26707596,-0.8156906,-0.27012622,-0.43629283,8.026062965393066,1.0108040571212769,0.6643960475921631,-53.220375061035156,163.01942443847656, -96.0830078125
453,1927281979,0.26208195,-0.80119103,-0.27200195,-0.4641346,8.368409156799316,0.7093321681022644,-0.24991057813167572,-48.288780212402344,185.98341369628906, -103.38035583496094
454,1927298646,0.25746888,-0.78415376,-0.27382267,-0.49379545,9.526339530944824,0.6888067126274109,-1.2441822290420532,-45.19660568237305,204.91188049316406, -109.88743591308594
455,1927315313,0.25416493,-0.76417667,-0.27653116,-0.52437085,10.875290870666504,-0.12517032027244568,-2.297595500946045,-31.642541885375977,220.72088623046875, -117.38345336914062
456,1927331980,0.25221887,-0.7414256,-0.28057042,-0.5549361,11.560392379760742,0.042396433651447296,-2.790761947631836,-14.842253684997559,230.9349822998047, -124.73988342285156
457,1927348647,0.24992658,-0.7166557,-0.28533047,-0.5852589,12.168243408203125,0.2788766920566559,-2.793600559234619,-9.892010688781738,235.4983673095703, -133.21141052246094
458,1927365314,0.24685296,-0.6901392,-0.29053053,-0.6151129,12.907485008239746,-0.596466600894928,-2.4881820678710938,-8.054166793823242,237.94627380371094, -141.14784240722656
459,1927381981,0.24475999,-0.66133773,-0.29627874,-0.6441615,13.813691139221191,-2.500239849090576,-2.4531617164611816,4.402385711669922,244.8387908935547, -142.8087921142578
460,1927398648,0.2441787,-0.63011163,-0.30344048,-0.67175907,14.674216270446777,-3.3059940338134766,-2.8369431495666504,24.5728702545166,249.70904541015625, -145.06256103515625
461,1927415315,0.24440926,-0.5972137,-0.31130752,-0.69763005,15.445900917053223,-3.1770753860473633,-3.589956045150757,37.75165939331055,250.4951629638672, -144.98863220214844
462,1927431982,0.24428217,-0.564096,-0.31871042,-0.7214886,15.258345603942871,-2.8001656532287598,-4.331897258758545,38.72812271118164,243.34046936035156, -141.91819763183594
463,1927448649,0.24084872,-0.5335466,-0.3215714,-0.74425244,15.168059349060059,-1.941799521446228,-5.480332374572754,1.4410721063613892,226.7777099609375, -133.2679443359375
464,1927465316,0.23466022,-0.5068573,-0.31908864,-0.7656454,15.23327922821045,-3.6508917808532715,-7.240259170532227,-39.38887405395508,204.80413818359375, -116.98894500732422
465,1927481983,0.22701333,-0.4850857,-0.3116275,-0.7848855,13.72718334197998,-4.816582202911377,-9.00767707824707,-73.90276336669922,176.31105041503906, -93.09967041015625
466,1927498650,0.21886647,-0.4691393,-0.3022611,-0.80040246,11.462200164794922,-5.552597522735596,-11.14185619354248,-86.97498321533203,134.43438720703125, -71.2020034790039
467,1927515317,0.21165146,-0.4592876,-0.29454204,-0.810866,9.868863105773926,-5.336238384246826,-13.05114459991455,-73.57986450195312,84.13825988769531, -51.16716384887695
468,1927531984,0.20548593,-0.45605636,-0.28856227,-0.8164069,8.748419761657715,-4.483158588409424,-14.028532981872559,-60.247711181640625,31.375076293945312, -30.283945083618164
469,1927548651,0.20127116,-0.4593904,-0.28536558,-0.8167111,9.409513473510742,-3.93647837638855,-13.937978744506836,-37.41364288330078,-21.860368728637695, -7.673923492431641
470,1927565318,0.19969776,-0.46960205,-0.28577197,-0.8111285,9.590310096740723,-5.172292709350586,-16.154232025146484,-6.826441287994385,-78.78309631347656, 17.38311767578125
471,1927581985,0.20074813,-0.48232478,-0.28850633,-0.8023884,13.694903373718262,1.6890208721160889,0.1811848133802414,17.364347457885742,-100.92112731933594, 33.72651290893555
472,1927598652,0.1987927,-0.49314028,-0.2859186,-0.79721075,15.003768920898438,7.175434589385986,18.236942291259766,-26.40284538269043,-77.18596649169922, 26.08841896057129
473,1927615319,0.1935839,-0.50823975,-0.27439108,-0.7930494,14.128500938415527,-7.157374858856201,-3.862481117248535,-94.27091217041016,-91.4915771484375, 45.638431549072266
474,1927631986,0.19140661,-0.52347857,-0.2718032,-0.7845108,17.214574813842773,2.8112285137176514,-4.363652229309082,-26.851709365844727,-113.68183135986328, 36.96737289428711
475,1927648653,0.18400693,-0.541602,-0.26558742,-0.7760619,14.702817916870117,-0.40177303552627563,-2.9782633781433105,-69.19942474365234,-133.85948181152344, 27.136417388916016
476,1927665320,0.18178198,-0.5574122,-0.26356658,-0.7660155,8.79295825958252,-0.5651320815086365,-0.70748370885849,-21.70700454711914,-123.29052734375, 36.91823196411133
477,1927681987,0.17780451,-0.5715927,-0.2595689,-0.75782025,8.005867958068848,3.94589900970459,-1.0425477027893066,-40.15248489379883,-108.31484985351562, 29.997541427612305
478,1927698654,0.17460738,-0.5835567,-0.25541323,-0.7508249,10.582106590270996,2.260683298110962,-1.402109980583191,-37.346275329589844,-90.46279907226562, 29.29175567626953
479,1927715321,0.16914119,-0.5949395,-0.24770214,-0.7457092,10.236756324768066,1.0809825658798218,-0.532978355884552,-67.40955352783203,-79.63195037841797, 28.584997177124023
480,1927731988,0.163295,-0.6053451,-0.23955937,-0.741285,11.164917945861816,-0.2827877104282379,0.0624246746301651,-71.21757507324219,-71.93903350830078, 25.9480037689209
481,1927748655,0.15753463,-0.61475354,-0.23220809,-0.7371164,10.653907775878906,-1.6972711086273193,0.11281143873929977,-66.12446594238281,-66.5453109741211, 21.165842056274414
482,1927765322,0.15347168,-0.62284964,-0.22774439,-0.73255545,10.916830062866211,-1.3981003761291504,-0.39803075790405273,-42.26263427734375,-61.97676086425781, 15.88661003112793
483,1927781989,0.15103361,-0.6296745,-0.22603525,-0.7277411,10.536270141601562,-0.39673784375190735,-0.6426485180854797,-19.691059112548828,-57.026954650878906, 10.543806076049805
484,1927798656,0.14951111,-0.6355772,-0.22571589,-0.7230081,10.161930084228516,0.7798076272010803,-0.42860323190689087,-7.941898345947266,-52.086700439453125, 7.587549686431885
485,1927815323,0.14772095,-0.64117247,-0.22507343,-0.7186227,9.867654800415039,1.1009330749511719,-0.3327145576477051,-10.940845489501953,-49.13108444213867, 6.83869743347168
486,1927831990,0.14569585,-0.6465297,-0.2239598,-0.7145728,9.86465072631836,1.1702359914779663,-0.377607136964798,-14.581649780273438,-46.37055969238281, 7.052458763122559
487,1927848657,0.14336827,-0.6516152,-0.22231363,-0.710929,9.645185470581055,1.6631603240966797,-0.46248340606689453,-18.895139694213867,-43.17245864868164, 7.116257667541504
488,1927865324,0.14064038,-0.65652156,-0.22004564,-0.7076581,9.483410835266113,1.6084890365600586,-0.8135597705841064,-24.120697021484375,-40.63272476196289, 7.3147196769714355
489,1927881991,0.13773699,-0.66153514,-0.21721107,-0.70442826,9.559183120727539,0.9579784870147705,-0.7087112665176392,-27.83481788635254,-40.69386291503906, 9.152029037475586
490,1927898658,0.13586995,-0.6664409,-0.21533895,-0.7007318,9.697352409362793,0.41411155462265015,-0.5234048366546631,-17.659372329711914,-41.6649284362793, 10.080702781677246
491,1927915325,0.13520975,-0.671237,-0.21478143,-0.6964399,9.794595718383789,-0.06721971184015274,-0.3561209738254547,-4.809842586517334,-43.316959381103516, 10.26667308807373
492,1927931992,0.13624401,-0.67592084,-0.21588048,-0.6913496,9.874807357788086,-0.3020987808704376,-0.19351065158843994,12.226995468139648,-45.51519012451172, 11.308183670043945
493,1927948659,0.13875343,-0.6808162,-0.21848609,-0.68520135,9.835210800170898,0.5760084986686707,0.15825405716896057,27.61775016784668,-50.67473602294922, 12.617566108703613
494,1927965326,0.14161257,-0.6863369,-0.22141348,-0.6781325,9.789697647094727,1.537161111831665,0.06889987736940384,31.55923843383789,-57.73078918457031, 14.575657844543457
495,1927981993,0.14447731,-0.6925549,-0.22428527,-0.6702166,9.484017372131348,1.959032654762268,-0.5357065200805664,31.939815521240234,-64.93601989746094, 16.756338119506836
496,1927998660,0.14701736,-0.6992659,-0.2266884,-0.661835,9.290502548217773,1.5125572681427002,-1.3681741952896118,28.465267181396484,-69.47510528564453, 18.723913192749023
497,1928015327,0.1488057,-0.706372,-0.22799256,-0.65338707,9.272058486938477,1.1677042245864868,-1.4134624004364014,19.55617332458496,-71.66199493408203, 21.276639938354492
498,1928031994,0.1500442,-0.7136383,-0.22864804,-0.6449242,9.719732284545898,0.5774216055870056,-1.6706184148788452,13.833446502685547,-72.66251373291016, 22.229480743408203
499,1928048661,0.15109624,-0.7209023,-0.22894512,-0.6364386,9.96230411529541,1.3051106929779053,-1.4829821586608887,11.369221687316895,-72.6969223022461, 23.183082580566406
500,1928065328,0.15146728,-0.72841066,-0.22868599,-0.62783635,9.96274471282959,1.320602536201477,-1.9592903852462769,5.492679595947266,-74.8498764038086, 23.473262786865234
501,1928081995,0.15202312,-0.73577505,-0.22868711,-0.61905277,10.026741027832031,0.9095948338508606,-2.256523609161377,7.979216575622559,-75.12653350830078, 22.93800163269043
502,1928098662,0.15318006,-0.742922,-0.22916006,-0.60999054,10.354937553405762,0.21102862060070038,-2.478337287902832,13.696090698242188,-75.16754150390625, 23.064043045043945
503,1928115329,0.15516216,-0.7499029,-0.23001851,-0.6005513,10.751374244689941,-0.1232108548283577,-2.4578604698181152,20.29762840270996,-75.51190948486328, 24.69131088256836
504,1928131996,0.1578885,-0.7569136,-0.23105203,-0.5905659,11.342036247253418,-0.1840173304080963,-2.1619582176208496,25.691011428833008,-77.4721450805664, 27.4898624420166
505,1928148663,0.16035104,-0.7644184,-0.23140945,-0.58000165,11.75559139251709,0.0838295966386795,-2.0430409908294678,21.957447052001953,-82.19119262695312, 31.348880767822266
506,1928165330,0.1632457,-0.77244556,-0.23169464,-0.5683276,12.453415870666504,0.2579561769962311,-2.0592355728149414,25.13290786743164,-89.35781860351562, 35.50725555419922
507,1928181997,0.1673054,-0.78099823,-0.23244144,-0.55499715,13.56336784362793,0.7556430101394653,-1.7365930080413818,35.175785064697266,-98.8917236328125, 40.307403564453125
508,1928198664,0.17340362,-0.7900583,-0.2341808,-0.53935003,15.294020652770996,0.9012729525566101,-0.6641823649406433,53.03404235839844,-111.18070220947266, 46.239349365234375
509,1928215331,0.18124972,-0.79976785,-0.23610815,-0.52131855,18.067649841308594,0.7109394669532776,0.8082588911056519,66.298095703125,-123.99417877197266, 55.597713470458984
510,1928231998,0.19031326,-0.81012297,-0.2374357,-0.5011046,19.877927780151367,0.6735893487930298,2.51279878616333,73.58787536621094,-135.6474151611328, 67.03975677490234
511,1928248665,0.19967487,-0.82070625,-0.23850314,-0.47925723,20.877185821533203,1.5729161500930786,4.349392414093018,76.7265396118164,-144.78395080566406, 72.0411148071289
512,1928265332,0.21118498,-0.82987136,-0.24047129,-0.4570427,19.932260513305664,1.1325780153274536,5.502506732940674,94.3740463256836,-139.9895477294922, 72.24292755126953
513,1928281999,0.22228657,-0.83840305,-0.24143493,-0.4351761,17.15926742553711,2.325566530227661,3.103083848953247,89.23269653320312,-135.32740783691406, 75.16593170166016
514,1928298666,0.23053655,-0.84690434,-0.24095689,-0.41418082,14.780852317810059,2.236455202102661,-4.275258541107178,67.0846176147461,-132.81507873535156, 73.59645080566406
515,1928315333,0.23853655,-0.8540357,-0.23860516,-0.39596844,13.267080307006836,2.6406755447387695,-1.4759185314178467,57.864139556884766,-110.17098999023438, 77.14571380615234
516,1928332000,0.24381463,-0.85982263,-0.23536709,-0.3819186,10.214313507080078,5.5733723640441895,0.16787829995155334,34.85417175292969,-85.11126708984375, 65.93731689453125
517,1928348667,0.24564059,-0.8649801,-0.23264381,-0.37060365,6.745054721832275,5.416048049926758,0.6532393097877502,12.447408676147461,-73.77249145507812, 48.26752853393555
518,1928365334,0.2422578,-0.8698652,-0.2299028,-0.36302978,5.974025249481201,1.4945745468139648,-4.2029643058776855,-24.077545166015625,-59.153358459472656, 28.377803802490234
519,1928382001,0.2468869,-0.8704653,-0.22910985,-0.3589511,8.050823211669922,1.8019617795944214,-0.8334243297576904,30.32484245300293,-18.12663459777832, 24.140512466430664
520,1928398668,0.2575416,-0.8660861,-0.2334398,-0.3592676,5.170657634735107,1.859920859336853,3.918160915374756,80.5677261352539,21.24516487121582, -6.929558753967285
521,1928415335,0.2672261,-0.8589887,-0.23931465,-0.36531827,4.0662736892700195,3.9825634956359863,4.322679042816162,74.21619415283203,57.7866096496582, -33.02034378051758
522,1928432002,0.27010402,-0.851476,-0.24359214,-0.37775046,4.1332879066467285,3.0071094036102295,2.953096866607666,20.275114059448242,88.2296371459961, -53.06340408325195
523,1928448669,0.26917616,-0.84278095,-0.24713032,-0.3952102,5.783797740936279,1.528585433959961,1.450931429862976,-10.146322250366211,115.71630096435547, -69.91950988769531
524,1928465336,0.26703855,-0.83181334,-0.2509537,-0.41689247,7.052226543426514,0.5706613659858704,0.1600320041179657,-19.348716735839844,143.76348876953125, -86.5282211303711
525,1928482003,0.26471972,-0.81831074,-0.25502008,-0.44187754,7.5921950340271,0.22561797499656677,-0.37290388345718384,-20.734935760498047,169.15408325195312, -98.87139129638672
526,1928498670,0.26185468,-0.80258924,-0.25901946,-0.46924606,7.753673076629639,0.2308729737997055,-0.67037034034729,-24.15424919128418,188.4666748046875, -108.38197326660156
527,1928515337,0.258458,-0.7847263,-0.2628741,-0.49829835,8.881617546081543,0.04932679608464241,-1.3231449127197266,-26.701374053955078,203.9820556640625, -116.14310455322266
528,1928532004,0.25525358,-0.7644512,-0.26699817,-0.5283675,9.946431159973145,-0.6210612058639526,-2.085493564605713,-22.293392181396484,217.6062469482422, -123.10578918457031
529,1928548671,0.25224546,-0.7418171,-0.27147034,-0.55891293,10.74286937713623,-0.5187819004058838,-2.525907039642334,-16.734630584716797,228.43988037109375, -129.3946075439453
530,1928565338,0.24903643,-0.71703595,-0.27627367,-0.58950275,11.38110065460205,-0.8247703313827515,-2.8560633659362793,-12.848608016967773,235.9845733642578, -135.94580078125
531,1928582005,0.24611752,-0.69000715,-0.2817794,-0.6196103,12.264970779418945,-1.8737715482711792,-3.0054407119750977,-3.8104982376098633,242.0889892578125, -141.68641662597656
532,1928598672,0.24544144,-0.6602149,-0.2894323,-0.6481542,13.303336143493652,-3.290869951248169,-3.294767141342163,23.68357276916504,247.1852569580078, -145.0436553955078
533,1928615339,0.24656919,-0.6282345,-0.2985945,-0.67480856,14.24686336517334,-3.0309784412384033,-3.8252933025360107,46.048988342285156,249.4394989013672, -145.0506134033203
534,1928632006,0.24721195,-0.5950146,-0.30792835,-0.7000172,14.95474624633789,-1.936517357826233,-4.599802494049072,49.81230545043945,247.70578002929688, -148.1666717529297
535,1928648673,0.24444535,-0.5627184,-0.3139184,-0.7246032,15.538763999938965,0.33388614654541016,-5.027647972106934,19.50162696838379,239.227294921875, -147.90850830078125
536,1928665340,0.23645787,-0.5334997,-0.31378734,-0.74900156,15.765412330627441,-0.1855691820383072,-6.176901817321777,-35.98710250854492,222.2414093017578, -143.29632568359375
537,1928682007,0.22492419,-0.50795823,-0.30777577,-0.7724388,15.52212905883789,-3.079694986343384,-8.169278144836426,-83.20987701416016,201.7547149658203, -130.52230834960938
538,1928698674,0.21321853,-0.48687673,-0.29789397,-0.7929365,14.479604721069336,-6.865354061126709,-10.139585494995117,-105.0585708618164,173.50379943847656, -103.98562622070312
539,1928715341,0.20339903,-0.47129306,-0.28677177,-0.8088719,12.269986152648926,-5.7626261711120605,-12.26089096069336,-104.22782897949219,134.03533935546875, -71.6754379272461
540,1928732008,0.19534773,-0.4622991,-0.27812213,-0.8190037,9.839341163635254,-4.920566082000732,-14.509477615356445,-82.52900695800781,78.71991729736328, -48.806034088134766
541,1928748675,0.18946247,-0.46058363,-0.27272612,-0.82315683,9.408794403076172,-5.3508710861206055,-15.47926139831543,-55.6859130859375,18.626094818115234, -25.053817749023438
542,1928765342,0.18669893,-0.46640685,-0.27221808,-0.8206737,8.893311500549316,-5.976225852966309,-15.627038955688477,-15.53479290008545,-45.44074630737305, -0.13747729361057281
543,1928782009,0.18860888,-0.4781819,-0.2776114,-0.8116039,10.6804838180542,-6.2549285888671875,-13.781061172485352,37.41730880737305,-98.8578109741211, 26.84527587890625
544,1928798676,0.19369172,-0.48671186,-0.28530023,-0.8026202,15.585929870605469,4.955312252044678,17.49721908569336,64.686279296875,-77.2806625366211, 30.6285457611084
545,1928815343,0.19190519,-0.49699816,-0.28065395,-0.7983725,13.850800514221191,-0.5161751508712769,6.038288116455078,-37.9739990234375,-68.26995849609375, 31.15207290649414
546,1928832010,0.19269508,-0.51074386,-0.2784396,-0.79024106,16.809717178344727,-5.908736228942871,-4.244598865509033,-12.876191139221191,-98.7899398803711, 48.770328521728516
547,1928848677,0.19222683,-0.5253683,-0.27940348,-0.78036594,14.885172843933105,3.0454561710357666,-2.0083138942718506,2.144707441329956,-116.25102233886719, 34.703121185302734
548,1928865344,0.19033936,-0.5407241,-0.27845433,-0.77061784,12.368703842163086,-1.3381552696228027,-2.841979742050171,-14.47118854522705,-119.88416290283203, 35.24510955810547
549,1928882011,0.19233236,-0.553277,-0.28108987,-0.7601851,8.558880805969238,2.2274539470672607,-0.07846632599830627,23.920251846313477,-104.81295013427734, 37.98982238769531
550,1928898678,0.19284655,-0.5643506,-0.28251794,-0.75133383,8.593979835510254,4.091494560241699,-1.6684032678604126,10.877738952636719,-92.33138275146484, 29.916887283325195
551,1928915345,0.19334964,-0.5740319,-0.28318086,-0.74358046,10.0835599899292,2.590229034423828,-0.5082892775535583,6.587351322174072,-79.88111877441406, 28.696462631225586
552,1928932012,0.19139192,-0.5838711,-0.27987143,-0.73765546,10.318342208862305,1.555628776550293,0.59270840883255,-27.206130981445312,-72.98501586914062, 29.68861961364746
553,1928948679,0.1883483,-0.59353876,-0.27535564,-0.7324043,10.449302673339844,0.19885613024234772,1.1059927940368652,-38.75288772583008,-69.9208984375, 27.821847915649414
554,1928965346,0.18474174,-0.60287035,-0.27079073,-0.7273859,10.213505744934082,-0.6408554911613464,0.3691728115081787,-41.29800796508789,-68.29338073730469, 24.2554931640625
555,1928982013,0.1818049,-0.61160195,-0.267261,-0.7221232,10.387725830078125,0.2896108627319336,0.06136980652809143,-32.12789535522461,-66.38212585449219, 22.50613784790039
556,1928998680,0.17990543,-0.6195889,-0.2650294,-0.71659136,10.320999145507812,0.24453498423099518,-0.39869898557662964,-19.89361000061035,-63.54161834716797, 21.170684814453125
557,1929015347,0.17930691,-0.62682444,-0.26429486,-0.7106958,10.1856050491333,0.6816954016685486,-0.4304623603820801,-5.38245964050293,-60.876644134521484, 20.28543472290039
558,1929032014,0.17906561,-0.63365,-0.26428235,-0.7046829,9.990578651428223,1.0831940174102783,-0.4923943281173706,0.40278440713882446,-59.62855529785156, 18.322734832763672
559,1929048681,0.17832878,-0.6404809,-0.26371825,-0.6988819,9.993340492248535,1.0809838771820068,-0.5735765695571899,-4.819350719451904,-58.961082458496094, 18.08130645751953
560,1929065348,0.17728165,-0.6472954,-0.26273817,-0.6932162,9.923633575439453,0.9974882006645203,-0.849537193775177,-8.409492492675781,-58.34868240356445, 18.234907150268555
561,1929082015,0.1760949,-0.65402603,-0.26136178,-0.6876996,9.76978874206543,0.8597857356071472,-0.9491641521453857,-11.085691452026367,-57.06141662597656, 19.007783889770508
562,1929098682,0.17460017,-0.6608405,-0.25935128,-0.6823062,9.74212646484375,0.975582480430603,-0.9876810908317566,-15.79085636138916,-56.69706344604492, 20.41176414489746
563,1929115349,0.17282012,-0.6677246,-0.25688812,-0.67696804,9.692998886108398,1.1373486518859863,-1.0427395105361938,-19.391714096069336,-56.744441986083984, 21.196916580200195
564,1929132016,0.17100115,-0.67445016,-0.2541864,-0.6717626,9.72125244140625,1.1620653867721558,-1.0189560651779175,-20.724905014038086,-55.1913948059082, 21.68475914001465
565,1929148683,0.16941233,-0.6809047,-0.25155455,-0.6666248,9.6758394241333,0.6616093516349792,-1.3971794843673706,-19.132347106933594,-53.314205169677734, 21.88165855407715
566,1929165350,0.1693552,-0.68662906,-0.250474,-0.6611521,9.767352104187012,0.43027374148368835,-1.4982001781463623,-3.4192287921905518,-50.70182418823242, 20.77298355102539
567,1929182017,0.16998847,-0.69195396,-0.25013903,-0.65554106,9.596059799194336,0.6444756984710693,-1.5049364566802979,3.933349370956421,-49.22695541381836, 19.86798667907715
568,1929198684,0.17060055,-0.6974014,-0.24963318,-0.64977694,9.575780868530273,0.733965277671814,-1.6152904033660889,3.1852736473083496,-50.35468673706055, 20.97995948791504
569,1929215351,0.17116717,-0.70301074,-0.24889609,-0.64383906,9.405753135681152,0.716709554195404,-1.7989929914474487,2.0449728965759277,-51.7278938293457, 22.37334442138672
570,1929232018,0.17181289,-0.70872366,-0.2481353,-0.6376678,9.234086036682129,0.8169736862182617,-1.8728430271148682,2.6018526554107666,-53.16172790527344, 23.296688079833984
571,1929248685,0.17219763,-0.7146828,-0.24718896,-0.6312483,9.290722846984863,1.3375049829483032,-1.7323706150054932,0.6525880098342896,-55.68613815307617, 23.777402877807617
572,1929265352,0.17193434,-0.72107023,-0.24572542,-0.62459224,9.542105674743652,1.2519444227218628,-1.8598690032958984,-4.877536296844482,-59.20772933959961, 24.526521682739258
573,1929282019,0.1714083,-0.7276779,-0.24409711,-0.6176737,9.876577377319336,0.7149137258529663,-2.042456865310669,-6.700002670288086,-61.716941833496094, 24.90949058532715
574,1929298686,0.17117947,-0.73440987,-0.24268462,-0.6102821,10.13633918762207,-0.013584848493337631,-2.138070821762085,-3.6466317176818848,-64.3782730102539, 25.865966796875
575,1929315353,0.17169157,-0.7412869,-0.2417618,-0.6021355,10.642065048217773,-0.4897373914718628,-2.1376917362213135,3.240753650665283,-68.15144348144531, 27.634689331054688
576,1929332020,0.17308524,-0.74817264,-0.24147132,-0.5932713,10.93475341796875,-0.2276933193206787,-2.309997081756592,11.535469055175781,-71.14118194580078, 28.92153549194336
577,1929348687,0.17494757,-0.7553393,-0.24130249,-0.5836344,11.360316276550293,0.016586683690547943,-1.9489954710006714,15.392911911010742,-75.64479064941406, 31.59373664855957
578,1929365354,0.17693941,-0.7630455,-0.24093851,-0.5730645,11.67210865020752,-0.17099303007125854,-2.293097972869873,16.18415641784668,-82.22494506835938, 35.14695358276367
579,1929382021,0.17928468,-0.7713717,-0.24053515,-0.56123596,12.221882820129395,0.4269193112850189,-2.1932883262634277,19.216272354125977,-90.65837097167969, 39.30680847167969
580,1929398688,0.18255545,-0.78020525,-0.24041833,-0.5478616,13.330946922302246,0.7514557242393494,-2.067645311355591,27.16706657409668,-99.66128540039062, 44.11004638671875
581,1929415355,0.18745705,-0.7894016,-0.24097146,-0.5325766,14.782719612121582,0.6772382855415344,-1.4025191068649292,41.148094177246094,-109.45327758789062, 49.667816162109375
582,1929432022,0.19357707,-0.7991418,-0.24172395,-0.5152377,16.774295806884766,0.23147252202033997,-0.1889571249485016,51.20014190673828,-120.87492370605469, 56.60752487182617
583,1929448689,0.20083988,-0.8094229,-0.24214421,-0.49584696,19.028133392333984,0.08856000006198883,1.3244876861572266,58.99905776977539,-131.78387451171875, 66.1229019165039
584,1929465356,0.20951608,-0.81982243,-0.24243298,-0.47457418,20.316219329833984,0.7068499326705933,3.0262951850891113,69.392333984375,-140.20985412597656, 74.48533630371094
585,1929482023,0.22035953,-0.82913977,-0.24312077,-0.45261618,20.177879333496094,1.594459891319275,4.926792144775391,85.6182861328125,-137.60440063476562, 78.516845703125
586,1929498690,0.23170249,-0.8372862,-0.24288695,-0.43159232,18.069583892822266,2.28590989112854,5.481433868408203,85.816162109375,-126.51631927490234, 81.98827362060547
587,1929515357,0.2437987,-0.8438119,-0.2426714,-0.4118912,13.628560066223145,2.7373976707458496,-1.5706628561019897,90.5838623046875,-112.97057342529297, 79.34866333007812
588,1929532024,0.25367978,-0.85003835,-0.24078162,-0.39383474,13.415838241577148,2.1441802978515625,-5.2014479637146,70.76004791259766,-103.50920104980469, 79.57392883300781
589,1929548691,0.2593779,-0.8558225,-0.23642227,-0.37999454,10.870920181274414,4.030754566192627,-1.832092523574829,33.43119812011719,-80.30088806152344, 74.62979125976562
590,1929565358,0.2602308,-0.8613808,-0.23056847,-0.3703259,7.950180530548096,5.973934650421143,0.29538416862487793,-5.34212064743042,-60.40567398071289, 62.99946594238281
591,1929582025,0.2560108,-0.86686647,-0.22496675,-0.36385587,4.351780414581299,5.601343154907227,-0.8384615182876587,-39.65841293334961,-49.8043212890625, 42.794837951660156
592,1929598692,0.25307527,-0.8696902,-0.22029683,-0.36202377,7.959863185882568,0.10140041261911392,-5.097720623016357,-32.13338851928711,-15.166182518005371, 28.2041072845459
593,1929615359,0.25683898,-0.8673052,-0.21980074,-0.36538103,5.372499465942383,2.9961068630218506,4.741115570068359,19.523508071899414,31.713897705078125, 3.0134706497192383
594,1929632026,0.2654921,-0.86024964,-0.22384706,-0.37333247,3.669935464859009,3.3820948600769043,5.664424419403076,61.39900207519531,70.1690902709961, -26.933584213256836
595,1929648693,0.26772463,-0.85267794,-0.22660662,-0.3871866,4.354160785675049,3.8800971508026123,2.610558032989502,11.978936195373535,98.8348388671875, -47.34669876098633
596,1929665360,0.26467583,-0.844003,-0.22880161,-0.4065164,6.797784328460693,2.625877857208252,-0.12494881451129913,-26.979427337646484,126.66374206542969, -69.86982727050781
597,1929682027,0.2593042,-0.8332777,-0.23147973,-0.42991504,8.266160011291504,1.1449916362762451,-0.9981103539466858,-41.773197174072266,151.46145629882812, -89.77803802490234
598,1929698694,0.25465393,-0.8197242,-0.23501326,-0.4560401,8.123936653137207,-0.06466357409954071,-0.5162078738212585,-34.405635833740234,175.05604553222656, -101.89958953857422
599,1929715361,0.250003,-0.80388105,-0.23879759,-0.48399326,8.552546501159668,-0.026464363560080528,-0.06840987503528595,-32.571048736572266,192.08975219726562, -110.21517944335938
600,1929732028,0.24589704,-0.7854869,-0.24303262,-0.5133032,10.071248054504395,-0.19705702364444733,-0.7738960385322571,-25.907426834106445,208.18968200683594, -117.41211700439453
601,1929748695,0.24214219,-0.76473266,-0.24787216,-0.5432407,10.998891830444336,0.09981084614992142,-1.7110201120376587,-18.93785858154297,219.4674835205078, -124.44200134277344
602,1929765362,0.23797396,-0.74196035,-0.2531506,-0.5733918,11.945551872253418,0.2275175154209137,-2.4800219535827637,-16.479524612426758,226.6985626220703, -132.08688354492188
603,1929782029,0.2324462,-0.71759975,-0.25814793,-0.6036384,12.560335159301758,-0.7364427447319031,-2.636709690093994,-22.096479415893555,231.5540771484375, -138.9326171875
604,1929798696,0.22738843,-0.691275,-0.26285037,-0.63351655,13.307493209838867,-2.559410572052002,-2.632303476333618,-17.214250564575195,239.2147216796875, -138.4335174560547
605,1929815363,0.22338624,-0.66293997,-0.26780576,-0.66248727,13.848515510559082,-2.9425039291381836,-2.0797181129455566,-6.3181843757629395,245.1979217529297, -137.27943420410156
606,1929832030,0.220676,-0.6328651,-0.27306068,-0.6900884,14.286569595336914,-2.688157081604004,-2.460526943206787,6.122384071350098,248.82818603515625, -133.8921356201172
607,1929848697,0.21955162,-0.60092443,-0.2803682,-0.7155982,15.191716194152832,-2.249748945236206,-3.206878662109375,29.515457153320312,248.48487854003906, -135.6642608642578
608,1929865364,0.21758024,-0.5685884,-0.28672385,-0.7396997,15.436843872070312,-2.0236217975616455,-4.414600849151611,24.637231826782227,244.4694061279297, -134.56924438476562
609,1929882031,0.2118425,-0.5380613,-0.28776854,-0.76341486,15.636984825134277,-0.4660581052303314,-6.3547139167785645,-19.06659507751465,234.34278869628906, -128.85751342773438
610,1929898698,0.20260172,-0.51067984,-0.2837061,-0.78591967,15.48618221282959,-1.5840245485305786,-8.254105567932129,-61.046016693115234,213.94427490234375, -120.39957427978516
611,1929915365,0.19288953,-0.48701954,-0.27709404,-0.80549663,14.773895263671875,-4.405935287475586,-9.60982894897461,-75.97309112548828,186.28733825683594, -102.7043685913086
612,1929932032,0.18435244,-0.46873474,-0.2697441,-0.8206949,12.276591300964355,-5.5170464515686035,-12.006709098815918,-74.92555236816406,145.18212890625, -77.74490356445312
613,1929948699,0.1775897,-0.4575734,-0.26406395,-0.8302764,10.142006874084473,-4.918179035186768,-14.562407493591309,-58.410255432128906,88.18572235107422, -52.85470199584961
614,1929965366,0.17278413,-0.4541988,-0.26109466,-0.83407354,8.866827964782715,-5.3768815994262695,-14.680731773376465,-35.80886459350586,25.924875259399414, -29.073671340942383
615,1929982033,0.17032689,-0.45835966,-0.26024544,-0.8325669,8.482935905456543,-5.451611042022705,-13.655285835266113,-15.772113800048828,-32.01410675048828, -2.4621851444244385
616,1929998700,0.1700466,-0.46772245,-0.26157886,-0.8269803,8.93929386138916,-4.082899570465088,-10.603806495666504,4.770121097564697,-73.18514251708984, 17.1455020904541
617,1930015367,0.17233002,-0.48017943,-0.2666084,-0.81771034,9.353748321533203,-3.778799533843994,-9.293866157531738,37.02110290527344,-102.23870849609375, 29.656572341918945
618,1930032034,0.17656356,-0.4893743,-0.27392012,-0.80889183,12.226040840148926,6.405777454376221,11.38465404510498,59.31235122680664,-81.45365905761719, 26.515928268432617
619,1930048701,0.17554665,-0.49681994,-0.27343675,-0.80472726,14.101316452026367,5.017192840576172,13.16491413116455,-8.338534355163574,-56.56555938720703, 14.630699157714844
620,1930065368,0.17515288,-0.50885886,-0.2693261,-0.7986537,16.061466217041016,-8.335161209106445,-5.729086875915527,-28.21209716796875,-83.03175354003906, 41.43439483642578
621,1930082035,0.17709933,-0.52219903,-0.27175817,-0.7887277,17.217370986938477,1.6589257717132568,-2.0625429153442383,21.471683502197266,-107.12240600585938, 38.3477783203125
622,1930098702,0.17899927,-0.53654313,-0.27586672,-0.7771603,15.335241317749023,-6.114391326904297,-2.508073568344116,32.226051330566406,-120.54576110839844, 35.93451690673828
623,1930115369,0.18520656,-0.5486747,-0.28377825,-0.76428044,9.733847618103027,-1.0680261850357056,-0.4385952949523926,73.65103149414062,-110.04203796386719, 42.25968933105469
624,1930132036,0.18931302,-0.5591311,-0.28991607,-0.7533139,8.191838264465332,3.884894609451294,-0.5037074685096741,54.79853439331055,-95.8646469116211, 32.179931640625
625,1930148703,0.19313623,-0.56794935,-0.295382,-0.74356014,9.85705852508545,3.351945638656616,-1.2311338186264038,49.93317794799805,-82.41683197021484, 28.47549057006836
626,1930165370,0.19449727,-0.5763516,-0.29717904,-0.73598534,10.204466819763184,2.8447134494781494,0.5872678160667419,17.679712295532227,-71.90741729736328, 26.4950008392334
627,1930182037,0.1942406,-0.58465964,-0.29633415,-0.7298148,10.454590797424316,0.8551082611083984,0.578167736530304,-4.845548629760742,-65.65074157714844, 26.72798728942871
628,1930198704,0.19523665,-0.5920429,-0.29735518,-0.7231514,10.32711410522461,-0.09370250254869461,-0.008088141679763794,11.793018341064453,-62.94363784790039, 24.290380477905273
629,1930215371,0.1973043,-0.5985769,-0.29991418,-0.71612036,10.032352447509766,0.5761422514915466,-0.10153790563344955,25.692970275878906,-60.101566314697266, 22.10767364501953
630,1930232038,0.19966371,-0.6044744,-0.30288753,-0.70922804,10.09914493560791,0.9506233334541321,-0.4674924314022064,29.510652542114258,-56.37025833129883, 20.336233139038086
631,1930248705,0.20243807,-0.60972905,-0.30625728,-0.70246434,9.942337989807129,1.3790972232818604,-0.33335086703300476,33.78184509277344,-52.39139938354492, 19.196462631225586
632,1930265372,0.20490676,-0.61476874,-0.3089461,-0.6961501,10.000944137573242,1.386883020401001,-0.42812931537628174,28.563230514526367,-49.17766189575195, 19.501188278198242
633,1930282039,0.2069498,-0.61970717,-0.31083924,-0.6902998,9.771841049194336,1.528150200843811,-0.6257622838020325,22.113338470458984,-46.52775955200195, 19.964282989501953
634,1930298706,0.20875433,-0.6245345,-0.31216148,-0.6847874,9.695708274841309,1.3644744157791138,-0.896865963935852,17.823759078979492,-44.26850509643555, 20.555328369140625
635,1930315373,0.21043873,-0.62924653,-0.31311324,-0.6795034,9.596785545349121,1.5560928583145142,-0.93531334400177,15.239479064941406,-42.479103088378906, 21.01340103149414
636,1930332040,0.21195751,-0.6338634,-0.31362802,-0.6744841,9.666791915893555,1.3886971473693848,-0.9418282508850098,12.05005931854248,-40.622493743896484, 21.55288314819336
637,1930348707,0.21336305,-0.63848746,-0.31371275,-0.6696225,9.733555793762207,1.3744624853134155,-0.8693293333053589,9.213848114013672,-39.59583282470703, 22.69841194152832
638,1930365374,0.21451494,-0.6431734,-0.31336537,-0.66491616,9.673731803894043,1.4374254941940308,-1.049904465675354,5.687668323516846,-39.12281799316406, 23.34441375732422
639,1930382041,0.21537456,-0.64789224,-0.3125586,-0.6604216,9.624272346496582,1.3503074645996094,-1.1510261297225952,1.7934459447860718,-38.29918670654297, 23.81146812438965
640,1930398708,0.2159779,-0.6527093,-0.3112849,-0.6560687,9.651566505432129,1.1041109561920166,-1.2993239164352417,-1.9144096374511719,-37.984153747558594, 24.742446899414062
641,1930415375,0.21639857,-0.6575721,-0.30989552,-0.6517175,9.604736328125,0.7931665182113647,-1.2487505674362183,-3.3242456912994385,-38.41066360473633, 24.544466018676758
642,1930432042,0.2169076,-0.6624338,-0.3086885,-0.64718187,9.669526100158691,0.39544034004211426,-1.3842084407806396,-1.710928201675415,-39.33297348022461, 24.397476196289062
643,1930448709,0.2178088,-0.66719043,-0.30785802,-0.6423703,9.632047653198242,0.3953295648097992,-1.4494659900665283,2.495342969894409,-39.86148452758789, 24.62171173095703
644,1930465376,0.2189951,-0.6719698,-0.3072566,-0.6372527,9.666671752929688,0.6284489631652832,-1.5065834522247314,5.43123722076416,-41.11519241333008, 25.34158706665039
645,1930482043,0.2205307,-0.6768354,-0.30684865,-0.63174665,9.670291900634766,1.1111682653427124,-1.5565977096557617,8.586026191711426,-42.853145599365234, 26.754013061523438
646,1930498710,0.22200714,-0.68198574,-0.30619428,-0.6259819,9.665668487548828,1.3481545448303223,-1.635358214378357,7.358673572540283,-45.0567512512207, 28.64902114868164
647,1930515377,0.22319847,-0.68750906,-0.305068,-0.6200381,9.714485168457031,1.235965371131897,-1.7953569889068604,3.8027024269104004,-47.392826080322266, 30.708431243896484
648,1930532044,0.22396374,-0.6934527,-0.30328727,-0.6139874,9.729488372802734,0.8870298862457275,-1.9099302291870117,-1.4175140857696533,-49.59048843383789, 33.04693603515625
649,1930548711,0.22426717,-0.6998469,-0.30089074,-0.6077692,9.773136138916016,0.6334238052368164,-1.9443696737289429,-6.5594916343688965,-52.315006256103516, 35.244102478027344
650,1930565378,0.2242094,-0.7066533,-0.2980016,-0.601304,9.910198211669922,0.34674033522605896,-2.068315267562866,-10.47587776184082,-55.22471618652344, 37.35060119628906
651,1930582045,0.22353101,-0.7139988,-0.29441485,-0.5946089,9.946236610412598,-0.05681150034070015,-2.112712860107422,-16.731962203979492,-58.776573181152344, 39.64313507080078
652,1930598712,0.22279021,-0.72180563,-0.29029712,-0.5874427,10.46658706665039,-0.6269568800926208,-2.187286376953125,-18.95583152770996,-62.29566192626953, 43.659400939941406
653,1930615379,0.22216566,-0.7301512,-0.285507,-0.57966167,11.483536720275879,-0.6733837127685547,-2.148648738861084,-20.69646453857422,-66.272216796875, 49.487239837646484
654,1930632046,0.22225703,-0.7389061,-0.2805258,-0.57089853,12.4998779296875,-0.2267138957977295,-2.0639073848724365,-16.617462158203125,-71.15226745605469, 55.62109375
655,1930648713,0.22397628,-0.7479366,-0.27646112,-0.56035244,13.672074317932129,-0.1260814219713211,-1.5898441076278687,-1.6198936700820923,-79.57730865478516, 60.593101501464844
656,1930665380,0.2272973,-0.7574706,-0.2730033,-0.54776245,15.895072937011719,0.21448731422424316,-0.4347696304321289,12.08056926727295,-89.95214080810547, 67.75370788574219
657,1930682047,0.23205073,-0.76776713,-0.26968205,-0.5328769,18.34650421142578,0.8168272376060486,1.3177987337112427,23.0800838470459,-102.35134887695312, 77.5016098022461
658,1930698714,0.23802394,-0.7788166,-0.26642397,-0.5155656,19.913251876831055,0.7344166040420532,3.600961685180664,33.2509880065918,-115.85655212402344, 86.86309814453125
659,1930715381,0.24598353,-0.7892224,-0.26353005,-0.49716452,20.202455520629883,0.38469457626342773,4.477355480194092,48.07178497314453,-116.46047973632812, 92.64637756347656
660,1930732048,0.25475293,-0.79893714,-0.2604884,-0.47848332,19.28182601928711,2.874026298522949,5.739674091339111,53.655303955078125,-114.02615356445312, 95.46426391601562
661,1930748715,0.2618757,-0.8086495,-0.25648868,-0.46013126,17.175966262817383,3.5117850303649902,2.151216506958008,40.87924575805664,-113.61355590820312, 94.78742218017578
662,1930765382,0.2678632,-0.8187326,-0.25155362,-0.44118857,14.562225341796875,3.16789174079895,-5.548154354095459,31.99477195739746,-118.47972869873047, 98.17842864990234
663,1930782049,0.2717985,-0.82921946,-0.24649872,-0.42161515,13.346203804016113,3.9973983764648438,-4.648810386657715,20.45005226135254,-126.5980224609375, 94.54297637939453
664,1930798716,0.2734066,-0.8391215,-0.24186711,-0.4032672,10.664462089538574,5.278757572174072,-2.0628511905670166,7.455169677734375,-122.67138671875, 82.16017150878906
665,1930815383,0.27061263,-0.8478629,-0.23749074,-0.38922405,8.386551856994629,4.550840377807617,-0.16492033004760742,-22.178470611572266,-102.44876861572266, 58.51856231689453
666,1930832050,0.27134955,-0.8527821,-0.23544075,-0.37907746,8.096189498901367,1.9435750246047974,-0.5957216620445251,5.407608509063721,-68.10726928710938, 40.96171188354492
667,1930848717,0.2772679,-0.85307086,-0.23666742,-0.37333816,6.908323764801025,3.0460283756256104,3.550577402114868,45.84649658203125,-27.955856323242188, 19.56589126586914
668,1930865384,0.28364524,-0.85019934,-0.23996139,-0.37299484,4.459939479827881,4.724278926849365,4.451938629150391,51.097652435302734,8.553692817687988, -6.769284248352051
669,1930882051,0.28595036,-0.8460505,-0.24316107,-0.37855473,4.496073246002197,4.758671283721924,3.4856042861938477,19.818470001220703,39.75303649902344, -30.235294342041016
670,1930898718,0.2841272,-0.84070814,-0.24555726,-0.39010677,5.610599994659424,3.0702037811279297,2.560675621032715,-13.943597793579102,72.3525619506836, -50.0400390625
671,1930915385,0.2798869,-0.8334997,-0.2475537,-0.4070121,6.4544453620910645,2.343620538711548,2.0132699012756348,-34.373008728027344,104.96214294433594, -67.7939682006836
672,1930932052,0.27395266,-0.82416385,-0.24943286,-0.4283542,6.662753582000732,2.2595489025115967,0.9541786909103394,-47.864837646484375,133.64871215820312, -84.00175476074219
673,1930948719,0.26614565,-0.81280965,-0.2508216,-0.45342654,7.507393836975098,2.0146965980529785,-0.36972472071647644,-62.51509094238281,158.4170684814453, -97.21035766601562
674,1930965386,0.2577699,-0.7992282,-0.25193256,-0.48095652,8.128812789916992,1.7346559762954712,-1.3100558519363403,-66.72135162353516,178.60755920410156, -105.75566101074219
675,1930982053,0.24842545,-0.783514,-0.2521088,-0.51071686,9.095029830932617,1.626641035079956,-1.9956722259521484,-75.22021484375,197.8895263671875, -111.46107482910156
676,1930998720,0.2394112,-0.7651942,-0.25223017,-0.5417934,9.88003921508789,1.1584453582763672,-2.7634973526000977,-71.4677734375,214.79849243164062, -116.76271057128906
677,1931015387,0.23140574,-0.7443687,-0.252613,-0.57319576,10.498549461364746,1.1021931171417236,-3.1733884811401367,-61.63191223144531,227.1759033203125, -119.25738525390625
678,1931032054,0.22394115,-0.72132397,-0.25315467,-0.6045286,11.405111312866211,1.261156439781189,-3.4757800102233887,-54.59645080566406,236.2740020751953, -121.67943572998047
679,1931048721,0.2172259,-0.695954,-0.25424647,-0.6354682,12.27674388885498,0.4407244324684143,-4.0904316902160645,-44.3409538269043,244.47555541992188, -124.73221588134766
680,1931065388,0.2126409,-0.66786337,-0.25762272,-0.6651113,13.038128852844238,-0.044636499136686325,-4.793646335601807,-17.84627342224121,250.5168914794922, -129.18362426757812
681,1931082055,0.20827545,-0.63826686,-0.26201355,-0.6932427,13.659873008728027,0.9155975580215454,-5.260606288909912,-7.346027374267578,249.42788696289062, -133.31109619140625
682,1931098722,0.2029517,-0.60801566,-0.26687384,-0.71965694,14.849285125732422,1.3288674354553223,-6.098379135131836,-5.306889057159424,242.6859893798828, -138.6708221435547
