PacketCounter,SampleTimeFine,Quat_W,Quat_X,Quat_Y,Quat_Z,Acc_X,Acc_Y,Acc_Z,Gyr_X,Gyr_Y,Gyr_Z 
1,1896948775,0.6078907,0.3010907,-0.6782918,0.28237155,-0.009721832349896431,0.01705419272184372,-0.008796350099146366,0.017881564795970917,0.020832756534218788, -0.001526743290014565
2,1896965442,0.6082754,0.3031585,-0.67795515,0.28012982,9.816431045532227,-0.03686002641916275,-1.1410462856292725,0.09158462285995483,2.3118858337402344, -1.450549840927124
3,1896982109,0.60838634,0.30430123,-0.67808485,0.27833027,9.871100425720215,-0.1911482810974121,-1.0814646482467651,0.39757952094078064,3.0560367107391357, -1.5511432886123657
4,1896998776,0.60846496,0.3042815,-0.6783016,0.27765164,9.9310302734375,-0.16873224079608917,-0.9804835319519043,-0.3831275701522827,3.294055938720703, -1.560581922531128
5,1897015443,0.6088624,0.30379912,-0.67824554,0.27744505,9.954192161560059,-0.062094658613204956,-0.9784222841262817,-0.931892454624176,3.296872854232788, -1.6196701526641846
6,1897032110,0.6093758,0.3034613,-0.6779877,0.27731782,9.956483840942383,-0.025940561667084694,-0.9342139363288879,-0.5869662165641785,2.9761252403259277, -1.5728758573532104
7,1897048777,0.60991526,0.3032943,-0.6775906,0.2772855,9.87751579284668,-0.09449592232704163,-0.9647437930107117,-0.009604762308299541,2.5796151161193848, -1.3516079187393188
8,1897065444,0.6103388,0.30318865,-0.6772137,0.27738917,9.74501895904541,-0.10773332417011261,-1.0257656574249268,0.6628502011299133,2.3192617893218994, -1.099258542060852
9,1897082111,0.61066496,0.30304074,-0.67697066,0.27742612,9.719861030578613,-0.1458692103624344,-1.0013748407363892,-0.020387711003422737,2.0873262882232666, -0.9755108952522278
10,1897098778,0.6109619,0.30281952,-0.6767961,0.27744013,9.770294189453125,-0.15479983389377594,-1.035098671913147,-0.38136032223701477,2.140139579772949, -0.905409038066864
11,1897115445,0.61124206,0.30256945,-0.67663467,0.27748957,9.763137817382812,-0.08756440132856369,-1.0314911603927612,-0.34807658195495605,2.543334722518921, -0.7686115503311157
12,1897132112,0.6114757,0.30235732,-0.6764904,0.27755764,9.797621726989746,-0.0719834417104721,-0.9932622313499451,-0.4849380552768707,2.475409746170044, -0.4933902323246002
13,1897148779,0.6117213,0.30209282,-0.6763879,0.2775545,9.834809303283691,-0.07939374446868896,-0.9769057035446167,-0.9144502878189087,2.3291356563568115, -0.29995033144950867
14,1897165446,0.6119801,0.3018946,-0.67620516,0.2776449,9.793063163757324,-0.11141782999038696,-0.9829310774803162,-0.6774815320968628,2.7666003704071045, -0.21952642500400543
15,1897182113,0.6122889,0.30162853,-0.67600596,0.2777386,9.775247573852539,-0.1402626782655716,-0.948402464389801,-0.7160926461219788,3.2207648754119873, -0.037010349333286285
16,1897198780,0.6125257,0.30145428,-0.67578423,0.27794498,9.77463436126709,-0.14371073246002197,-0.9249722957611084,-1.3396848440170288,3.00164794921875, 0.2222990095615387
17,1897215447,0.6127806,0.30110902,-0.67569304,0.27797952,9.764360427856445,-0.15425880253314972,-0.9706260561943054,-1.9522255659103394,2.4323291778564453, 0.3905104696750641
18,1897232114,0.61305135,0.30064294,-0.67567956,0.27791947,9.77575397491455,-0.15013520419597626,-0.9557996392250061,-2.538154363632202,2.257560968399048, 0.6091532111167908
19,1897248781,0.61329585,0.30013865,-0.6757289,0.27780482,9.744013786315918,-0.12195869535207748,-0.9396557807922363,-2.9528110027313232,1.8470532894134521, 0.7337205410003662
20,1897265448,0.6134721,0.29971492,-0.67577976,0.27774996,9.768908500671387,-0.1404578685760498,-0.93410724401474,-3.1701481342315674,1.4991177320480347, 0.8900477886199951
21,1897282115,0.6136364,0.2993119,-0.6758177,0.27772874,9.820828437805176,-0.17634324729442596,-0.943868100643158,-2.989020824432373,1.521970510482788, 0.9693126082420349
22,1897298782,0.61383575,0.29897496,-0.6757425,0.27783468,9.836915969848633,-0.16291111707687378,-0.9572165012359619,-1.935167908668518,2.301666498184204, 0.8836702108383179
23,1897315449,0.6140775,0.29860172,-0.67564833,0.27793086,9.803655624389648,-0.12250013649463654,-0.9536778330802917,-1.6160717010498047,2.6411750316619873, 0.853255033493042
24,1897332116,0.61429864,0.29826063,-0.6755633,0.27801505,9.839315414428711,-0.06791019439697266,-0.9249016046524048,-1.9306851625442505,2.4433040618896484, 0.8074339032173157
25,1897348783,0.6145292,0.29790807,-0.67548746,0.27806798,9.834779739379883,-0.16556133329868317,-0.9814437031745911,-1.9989174604415894,2.395536422729492, 0.8146054744720459
26,1897365450,0.6147751,0.2975756,-0.6753824,0.27813512,9.834086418151855,-0.17356179654598236,-0.9303029775619507,-1.687300443649292,2.6217989921569824, 0.6853510141372681
27,1897382117,0.61502695,0.29729667,-0.6752147,0.2782837,9.834650039672852,-0.20944775640964508,-0.9437809586524963,-1.0450749397277832,2.9788784980773926, 0.6510298848152161
28,1897398784,0.61527795,0.2970443,-0.675017,0.2784782,9.746030807495117,-0.2173275649547577,-0.9102076292037964,-0.9983446598052979,3.1608567237854004, 0.6734923124313354
29,1897415451,0.61547583,0.29681855,-0.6748624,0.2786565,9.695626258850098,-0.22709497809410095,-0.8859543800354004,-1.3667577505111694,2.65061354637146, 0.693111777305603
30,1897432118,0.6156781,0.29652962,-0.67476416,0.2787547,9.71921443939209,-0.20312577486038208,-0.8714724779129028,-1.9003727436065674,2.378056049346924, 0.718596339225769
31,1897448785,0.61590266,0.29615727,-0.67472565,0.27874762,9.774060249328613,-0.19336958229541779,-0.8330501317977905,-2.3099453449249268,2.153151035308838, 0.6909986138343811
32,1897465452,0.6160467,0.29593214,-0.6746629,0.2788204,9.851910591125488,-0.2104959934949875,-0.8246516585350037,-2.334559202194214,1.7449740171432495, 0.5685571432113647
33,1897482119,0.61615914,0.29574808,-0.6746185,0.27887425,9.88676929473877,-0.2311558872461319,-0.766481339931488,-2.0612974166870117,1.3684803247451782, 0.38720637559890747
34,1897498786,0.6162345,0.29561678,-0.67458767,0.27892163,9.881214141845703,-0.1902497410774231,-0.7323063611984253,-1.662520170211792,0.9687555432319641, 0.1977236270904541
35,1897515453,0.6162352,0.29550597,-0.6746331,0.27892768,9.812814712524414,-0.15910236537456512,-0.7778820991516113,-1.5691618919372559,0.11548126488924026, 0.22580797970294952
36,1897532120,0.61623514,0.29533523,-0.6747415,0.27884656,9.780466079711914,-0.19560793042182922,-0.8025165796279907,-1.379935622215271,-0.25780463218688965, 0.21044035255908966
37,1897548787,0.61620003,0.29529163,-0.6747705,0.27890006,9.791950225830078,-0.20479120314121246,-0.8588699102401733,-1.3494051694869995,-0.052710939198732376, 0.2249755710363388
38,1897565454,0.6161893,0.29518285,-0.6748418,0.27886665,9.802995681762695,-0.18144583702087402,-0.8111465573310852,-1.8708152770996094,-0.16725093126296997, 0.18216389417648315
39,1897582121,0.61618465,0.29504767,-0.6749518,0.27875334,9.83532428741455,-0.24473229050636292,-0.8074819445610046,-2.12187123298645,-0.42908957600593567, 0.022788899019360542
40,1897598788,0.6162076,0.29484648,-0.6751012,0.27855328,9.840191841125488,-0.21161089837551117,-0.8136428594589233,-2.3242247104644775,-0.5372648239135742, -0.06841152161359787
41,1897615455,0.6162193,0.2948452,-0.6750837,0.2785716,9.85055160522461,-0.23571744561195374,-0.8403825163841248,-0.83026123046875,0.1780274659395218, -0.3209015130996704
42,1897632122,0.6156993,0.29636046,-0.67432326,0.2799519,9.845521926879883,-0.24098609387874603,-0.8529621958732605,14.800533294677734,0.7073016166687012, -2.1106927394866943
43,1897648789,0.615382,0.2985142,-0.67275745,0.28212023,9.710110664367676,-0.2906048893928528,-0.8374031782150269,22.311819076538086,5.433711528778076, -3.768531322479248
44,1897665456,0.615168,0.300097,-0.6715339,0.28381753,9.644575119018555,-0.28857162594795227,-0.911552369594574,16.23820686340332,4.6129350662231445, -2.585515260696411
45,1897682123,0.61503625,0.30111045,-0.67074823,0.2848855,9.57787799835205,-0.22325316071510315,-0.8686875104904175,10.617345809936523,2.971388101577759, -1.9485763311386108
46,1897698790,0.61494815,0.30162436,-0.6703905,0.2853738,9.565555572509766,-0.15054525434970856,-0.8201673030853271,5.022900581359863,1.1584177017211914, -1.3019832372665405
47,1897715457,0.61483616,0.30178246,-0.6703867,0.28545687,9.684526443481445,-0.10747528821229935,-0.6862348914146423,0.3995645344257355,-0.5767211318016052, -0.5259568095207214
48,1897732124,0.6147711,0.30146265,-0.6707498,0.28508165,9.898767471313477,-0.05911724641919136,-0.6632149815559387,-4.4248247146606445,-1.9513931274414062, 0.42698293924331665
49,1897748791,0.614703,0.30084893,-0.67134374,0.28447807,9.989824295043945,-0.08747422695159912,-0.5938178300857544,-6.80400276184082,-2.875436305999756, 1.3098019361495972
50,1897765458,0.6146124,0.3000897,-0.6720235,0.28387037,10.149170875549316,-0.263216495513916,-0.7223430275917053,-7.429286479949951,-3.1131093502044678, 2.203493595123291
51,1897782125,0.6144518,0.29957023,-0.6725139,0.28360507,10.05782699584961,-0.26973098516464233,-0.8594055771827698,-4.789830684661865,-2.411665916442871, 2.3175456523895264
52,1897798792,0.61425245,0.29927358,-0.67278576,0.2837056,10.027582168579102,-0.22543318569660187,-1.012074589729309,-2.1840462684631348,-1.3339478969573975, 2.49678373336792
53,1897815459,0.61419356,0.29891226,-0.672876,0.28399995,10.096745491027832,-0.16953924298286438,-1.0659829378128052,-0.5684995651245117,0.6304246187210083, 2.89033579826355
54,1897832126,0.6142517,0.29858387,-0.67273355,0.28455615,10.029001235961914,-0.2611032724380493,-1.0950671434402466,0.23142994940280914,2.680708169937134, 3.215129852294922
55,1897848793,0.6145159,0.29808113,-0.672447,0.28518957,9.904668807983398,-0.31743013858795166,-1.0670181512832642,-0.04880500212311745,4.783242702484131, 3.6258811950683594
56,1897865460,0.6150084,0.2973146,-0.67206436,0.28582916,9.856270790100098,-0.22583627700805664,-1.0090850591659546,-0.8094510436058044,6.803163528442383, 4.167193412780762
57,1897882127,0.6156278,0.2963486,-0.6716141,0.2865562,9.898812294006348,-0.0830179750919342,-0.9028600454330444,-1.7052301168441772,8.282106399536133, 5.106513977050781
58,1897898794,0.6162228,0.29534933,-0.67109126,0.2875327,9.964661598205566,0.027427714318037033,-0.7442566156387329,-2.19704532623291,9.101008415222168, 6.3768792152404785
59,1897915461,0.61682016,0.2940946,-0.67068696,0.28847957,9.967635154724121,-0.07246734946966171,-0.630287766456604,-2.051757335662842,9.011991500854492, 7.5934576988220215
60,1897932128,0.61729693,0.29273432,-0.6704062,0.28949404,9.930756568908691,-0.13416242599487305,-0.5376700162887573,-2.517319917678833,8.265972137451172, 8.913474082946777
61,1897948795,0.6176207,0.29120654,-0.6703528,0.29046637,9.837921142578125,-0.14509502053260803,-0.5228651762008667,-3.507622241973877,6.815728187561035, 10.288171768188477
62,1897965462,0.61787325,0.28933066,-0.6705769,0.29128563,9.804697036743164,-0.014062025584280491,-0.4838899075984955,-5.742730140686035,5.662146091461182, 11.942244529724121
63,1897982129,0.61802703,0.2876018,-0.6705678,0.29268903,10.009512901306152,0.010924365371465683,-0.4291988015174866,-3.1194756031036377,7.0881733894348145, 13.615127563476562
64,1897998796,0.61843675,0.28702283,-0.6688226,0.29636213,10.368706703186035,0.14903640747070312,-0.19715970754623413,15.25371265411377,17.793514251708984, 14.05434513092041
65,1898015463,0.618433,0.2873362,-0.6662698,0.30176726,10.304771423339844,0.8177322149276733,0.18573421239852905,31.6201229095459,20.77872657775879, 16.512393951416016
66,1898032130,0.6175495,0.2869774,-0.6652843,0.3060614,10.06364631652832,0.26244208216667175,-0.35397231578826904,21.656539916992188,9.211709022521973, 19.98175621032715
67,1898048797,0.615723,0.2870785,-0.6651027,0.3100153,10.282378196716309,-0.49221572279930115,-0.876796305179596,21.879568099975586,-0.14650508761405945, 20.110916137695312
68,1898065464,0.6129981,0.28826785,-0.6652591,0.3139514,10.129032135009766,-0.1064828634262085,-0.9491451978683472,26.31906509399414,-7.914149761199951, 17.701175689697266
69,1898082131,0.609472,0.2904333,-0.66536546,0.31856164,10.10085678100586,0.21883262693881989,-1.79788076877594,37.05415344238281,-12.19434928894043, 17.668607711791992
70,1898098798,0.6053887,0.2944164,-0.6646855,0.3240631,9.803085327148438,1.5955194234848022,-2.093862295150757,50.23486328125,-13.394782066345215, 12.90604305267334
71,1898115465,0.6008642,0.29990616,-0.6634209,0.3299871,9.582176208496094,1.9050499200820923,-2.7087345123291016,61.76320266723633,-15.375244140625, 7.769847393035889
72,1898132132,0.5961113,0.30667457,-0.66192955,0.33533806,9.423869132995605,1.977699637413025,-3.546213388442993,64.90882873535156,-19.271419525146484, -0.07431644201278687
73,1898148799,0.5914845,0.31387705,-0.66082245,0.33902958,9.414107322692871,1.1874237060546875,-3.8933489322662354,59.043025970458984,-24.523900985717773, -8.133853912353516
74,1898165466,0.58796084,0.31954148,-0.66143596,0.33867055,9.224540710449219,2.95123028755188,-3.8134188652038574,28.2442569732666,-31.33474349975586, -16.336435317993164
75,1898182133,0.5870916,0.32116112,-0.6651334,0.3313257,9.06984806060791,3.2986900806427,-2.730109930038452,-29.466651916503906,-37.59657669067383, -25.52566146850586
76,1898198800,0.58853924,0.31939638,-0.67072904,0.31895164,8.960030555725098,2.4079930782318115,-1.9808098077774048,-78.24150848388672,-37.72588348388672, -30.836193084716797
77,1898215467,0.591281,0.3168598,-0.6759168,0.30516115,8.957996368408203,0.9253382086753845,-0.8956918120384216,-90.14595031738281,-31.4775390625, -36.44298553466797
78,1898232134,0.5943149,0.3152613,-0.6794297,0.2928751,9.082467079162598,-0.7687737941741943,-0.21952998638153076,-76.7608642578125,-22.09150505065918, -38.816192626953125
79,1898248801,0.5972572,0.3153335,-0.68080455,0.28346786,9.238161087036133,-1.2217228412628174,0.3500029444694519,-52.802276611328125,-11.053550720214844, -39.306182861328125
80,1898265468,0.60014635,0.31669295,-0.6804336,0.27665848,9.423785209655762,-0.838374137878418,0.6567286849021912,-30.692726135253906,-1.2231321334838867, -38.65165710449219
81,1898282135,0.6031879,0.31855983,-0.67909956,0.27112314,9.632375717163086,-0.758449375629425,0.8641814589500427,-21.29355812072754,5.058613300323486, -38.26930618286133
82,1898298802,0.60679907,0.31967974,-0.6776908,0.26520735,9.8107271194458,-1.2590205669403076,1.1512116193771362,-27.130632400512695,8.366332054138184, -37.73588562011719
83,1898315469,0.6111601,0.31941885,-0.67647225,0.25853533,9.836345672607422,-1.9648340940475464,1.6209843158721924,-38.31087112426758,11.686419486999512, -35.60316848754883
84,1898332136,0.616199,0.31803277,-0.6751813,0.25156343,9.596866607666016,-2.160729169845581,2.0678915977478027,-46.18342208862305,16.195383071899414, -33.202850341796875
85,1898348803,0.6213526,0.317041,-0.67307454,0.24571691,9.783434867858887,-2.072685956954956,2.076730966567993,-38.026100158691406,21.669269561767578, -32.53522872924805
86,1898365470,0.6270849,0.31334168,-0.6718256,0.23923194,9.756546020507812,-3.377772808074951,-0.8630613088607788,-55.32242965698242,23.575597763061523, -22.103710174560547
87,1898382137,0.63230866,0.3052772,-0.6732023,0.23192737,11.174814224243164,-10.685552597045898,-5.151193141937256,-81.22095489501953,15.313438415527344, 0.6335517168045044
88,1898398804,0.63556004,0.29998976,-0.6739862,0.2276233,9.981348037719727,-2.1801586151123047,-0.7491694092750549,-50.484676361083984,11.005437850952148, 1.7092089653015137
89,1898415471,0.63929754,0.2931893,-0.67584425,0.2203943,9.61800479888916,-0.6022080779075623,0.23993496596813202,-73.58982849121094,4.885773658752441, -2.830872058868408
90,1898432138,0.64175546,0.2890496,-0.6771893,0.21451111,10.64327621459961,0.6749769449234009,-2.2197282314300537,-52.50214767456055,-0.21635261178016663, -8.45767879486084
91,1898448805,0.64229554,0.2891189,-0.67736065,0.21224807,10.421066284179688,-0.5834752321243286,-1.6200487613677979,-11.784965515136719,-2.8758866786956787, -11.559919357299805
92,1898465472,0.64144695,0.29240265,-0.67654777,0.21290764,10.103789329528809,1.4157462120056152,-0.6131993532180786,20.25233268737793,-3.812727212905884, -13.662932395935059
93,1898482139,0.64026153,0.29547933,-0.6761336,0.21354347,10.232255935668945,1.3355768918991089,-0.6212583184242249,19.421178817749023,-6.9034552574157715, -11.45110034942627
94,1898498806,0.6392832,0.297075,-0.67655885,0.21291246,9.948593139648438,1.037970781326294,-0.45590686798095703,5.369328498840332,-10.062161445617676, -8.687858581542969
95,1898515473,0.6385823,0.29748726,-0.6775198,0.21137908,10.098252296447754,0.6148834824562073,-0.5622968673706055,-5.35176420211792,-11.271964073181152, -6.436155319213867
96,1898532140,0.6378909,0.29757747,-0.67864466,0.20972463,10.027174949645996,0.9729520082473755,-0.6163507103919983,-7.581236839294434,-11.7562255859375, -5.157838344573975
97,1898548807,0.6371146,0.2976528,-0.67975956,0.20836248,10.021722793579102,1.1225932836532593,-0.8108840584754944,-6.3383402824401855,-11.539642333984375, -3.6627845764160156
98,1898565474,0.63632107,0.29754353,-0.68091613,0.20716347,9.876038551330566,0.9710486531257629,-0.9911328554153442,-6.313483238220215,-11.207958221435547, -1.956798791885376
99,1898582141,0.6355218,0.29729763,-0.6821162,0.20601924,9.911011695861816,0.7756772637367249,-1.0369415283203125,-6.936895847320557,-11.14146614074707, -0.9406397938728333
100,1898598808,0.6347624,0.29704362,-0.6832435,0.2049882,9.984907150268555,0.716050922870636,-1.107077956199646,-6.361507415771484,-10.3865327835083, -0.6208138465881348
101,1898615475,0.63406175,0.29675376,-0.6843158,0.20399742,9.908910751342773,0.7704217433929443,-1.1123710870742798,-6.297615051269531,-9.726094245910645, -0.48740988969802856
102,1898632142,0.6333923,0.29633287,-0.685417,0.20298979,9.961606979370117,0.9452475309371948,-1.0690447092056274,-7.229904651641846,-9.570945739746094, 0.08852393180131912
103,1898648809,0.63282686,0.29580772,-0.6864486,0.20203032,9.821867942810059,0.950770914554596,-1.117954969406128,-7.663207530975342,-8.5458984375, 0.5239335894584656
104,1898665476,0.63234246,0.29507548,-0.68750924,0.20100895,9.639799118041992,0.9677608013153076,-1.206125020980835,-8.963513374328613,-8.119024276733398, 1.1787545680999756
105,1898682143,0.63184565,0.2941895,-0.6886634,0.19991581,9.609524726867676,0.9696905612945557,-1.2461451292037964,-10.289973258972168,-8.531493186950684, 1.840510368347168
106,1898698810,0.63115233,0.2934689,-0.6898718,0.19899651,9.613076210021973,0.8509166836738586,-1.289955735206604,-8.45920181274414,-9.567707061767578, 2.2110111713409424
107,1898715477,0.6304203,0.29281396,-0.6910369,0.19823825,9.93502426147461,0.7985432744026184,-1.1964234113693237,-7.201807975769043,-9.310771942138672, 2.56027889251709
108,1898732144,0.62981266,0.29216242,-0.6920253,0.1976823,10.053302764892578,0.6248065233230591,-1.1705371141433716,-6.2036919593811035,-7.550549030303955, 2.891040563583374
109,1898748811,0.6290924,0.29197675,-0.69278836,0.19757727,10.091147422790527,0.3873976171016693,-1.3647140264511108,-1.7103270292282104,-6.864998817443848, 2.339215040206909
110,1898765478,0.6283616,0.29215425,-0.69328266,0.19790672,10.000850677490234,0.5696558952331543,-1.471602201461792,2.287604331970215,-5.372480869293213, 1.9355065822601318
111,1898782145,0.6278183,0.29226893,-0.6935873,0.19839269,9.915185928344727,0.8975557684898376,-1.6665984392166138,2.7672030925750732,-3.236318826675415, 2.2419633865356445
112,1898798812,0.62758917,0.29226694,-0.69364,0.19893602,9.661809921264648,0.8015241026878357,-1.7392654418945312,2.3064303398132324,-0.34627091884613037, 2.1115686893463135
113,1898815479,0.6277063,0.29228732,-0.6933414,0.19957678,9.467397689819336,0.673104465007782,-1.695561408996582,2.549776077270508,3.008512258529663, 1.2616111040115356
114,1898832146,0.6281219,0.29217234,-0.69288003,0.20003869,9.342116355895996,0.4689010679721832,-1.7329879999160767,0.6723141670227051,4.983392715454102, 0.4009220004081726
115,1898848813,0.6287386,0.29192334,-0.69232464,0.20038773,9.393501281738281,0.4721137583255768,-1.5278990268707275,-0.5906161665916443,6.352468967437744, 0.0489138588309288
116,1898865480,0.6292128,0.2921753,-0.6915601,0.20117046,9.512120246887207,0.6292622685432434,-1.2539325952529907,4.208916187286377,6.776987075805664, -0.7034017443656921
117,1898882147,0.62954885,0.29280472,-0.6906452,0.20234412,9.649168014526367,0.8002512454986572,-1.09486985206604,8.166349411010742,7.0303239822387695, -0.9238247275352478
118,1898898814,0.62973565,0.29410255,-0.68936795,0.2042273,9.637800216674805,0.7080745697021484,-1.158913016319275,15.206357955932617,8.372498512268066, -1.5415915250778198
119,1898915481,0.62986416,0.29537165,-0.68815625,0.20607743,9.604037284851074,0.6089763641357422,-1.1694221496582031,15.04784107208252,7.786505222320557, -1.3492783308029175
120,1898932148,0.630041,0.29622716,-0.6872079,0.20746906,9.679134368896484,0.6114917397499084,-1.1199830770492554,10.778861045837402,6.540225505828857, -0.9419330358505249
121,1898948815,0.6302282,0.2965897,-0.68664074,0.2082584,9.677062034606934,0.7411465644836426,-1.0530506372451782,5.122777462005615,4.3971052169799805, -0.45570114254951477
122,1898965482,0.6304081,0.29653907,-0.68642175,0.20850791,9.68930435180664,0.8229302167892456,-1.0325865745544434,0.2988938093185425,2.3344759941101074, -0.12340199202299118
123,1898982149,0.63059324,0.29617223,-0.68644875,0.20838113,9.791630744934082,0.8108488917350769,-1.0182373523712158,-3.1610167026519775,0.9743006825447083, 0.23265935480594635
124,1898998816,0.6307514,0.2957004,-0.6865933,0.20809504,9.965587615966797,0.7554002404212952,-1.0365298986434937,-4.673792839050293,0.1352926790714264, 0.34335747361183167
125,1899015483,0.6308764,0.29521865,-0.68678904,0.20775409,9.965333938598633,0.7080811858177185,-1.0675790309906006,-4.7918171882629395,-0.33199188113212585, 0.28070881962776184
126,1899032150,0.6309852,0.29473984,-0.6870037,0.20739326,9.852245330810547,0.6595768928527832,-1.1363507509231567,-4.930598258972168,-0.548572838306427, 0.2462853342294693
127,1899048817,0.63103133,0.29459974,-0.6870323,0.20735775,9.787980079650879,0.6629135012626648,-1.228217363357544,-1.591470718383789,0.1306951940059662, -0.22875982522964478
128,1899065484,0.63107705,0.29471308,-0.6868746,0.20757958,9.7168607711792,0.6547435522079468,-1.2986209392547607,0.9613150954246521,1.0977667570114136, -0.6877906918525696
129,1899082151,0.63113177,0.29550722,-0.68618816,0.20855267,9.760649681091309,0.6083797216415405,-1.222474217414856,8.246478080749512,3.9988927841186523, -1.73994779586792
130,1899098818,0.6311014,0.29727435,-0.6848582,0.21049549,9.771810531616211,0.5651270151138306,-1.1026911735534668,18.21367073059082,6.974328994750977, -3.326223373413086
131,1899115485,0.6308707,0.30135888,-0.68192416,0.21485962,9.944528579711914,0.692045271396637,-0.7104374766349792,42.45382308959961,14.58016586303711, -6.738583087921143
132,1899132152,0.6307457,0.3051366,-0.67898196,0.21916944,9.489205360412598,0.6260724663734436,-1.3687896728515625,40.84004592895508,15.43101978302002, -5.732711315155029
133,1899148819,0.6304055,0.3078785,-0.6769007,0.2227229,9.50886058807373,0.8421730995178223,-1.3394805192947388,32.111778259277344,10.69379997253418, -2.0689895153045654
134,1899165486,0.63003784,0.30951887,-0.6757218,0.22505659,9.370478630065918,0.7716740965843201,-1.365482211112976,20.18987464904785,5.761117935180664, -0.25307947397232056
135,1899182153,0.6296589,0.31032243,-0.67531115,0.22623992,9.616567611694336,0.8720974326133728,-0.9094496369361877,10.223869323730469,1.266029715538025, 0.28969892859458923
136,1899198820,0.6293175,0.31056836,-0.6753766,0.22665672,9.837878227233887,0.9524133205413818,-0.7038203477859497,3.360431432723999,-1.4035120010375977, 0.5357856750488281
137,1899215487,0.6290544,0.31027615,-0.67585367,0.22636554,9.889394760131836,0.9790602922439575,-0.699858546257019,-2.9581007957458496,-3.505661725997925, 0.732158362865448
138,1899232154,0.6287967,0.30962798,-0.67665327,0.22557911,9.776808738708496,0.8743334412574768,-0.8246536254882812,-7.458624839782715,-5.415396690368652, 0.9572173953056335
139,1899248821,0.62855,0.30877894,-0.6776394,0.22446726,9.774511337280273,0.8378351926803589,-0.8515093922615051,-10.182551383972168,-6.566997051239014, 0.8779973983764648
140,1899265488,0.6283334,0.30779976,-0.6787446,0.2230748,9.890933990478516,0.8675246238708496,-0.7539781928062439,-12.261115074157715,-7.342103481292725, 0.4809107482433319
141,1899282155,0.62814003,0.30674967,-0.6799363,0.22143105,9.931506156921387,0.6082931756973267,-0.9580423831939697,-14.141178131103516,-8.071797370910645, -0.09170633554458618
142,1899298822,0.6277849,0.30597946,-0.68106824,0.22002017,9.854214668273926,0.4185261130332947,-1.1596498489379883,-11.860621452331543,-8.554365158081055, -0.23039919137954712
143,1899315489,0.6274581,0.30567852,-0.68178236,0.21915777,9.623960494995117,0.3996008634567261,-1.3313413858413696,-6.273895740509033,-6.129478931427002, -1.0519778728485107
144,1899332156,0.6271385,0.30556965,-0.68238485,0.21834755,9.553204536437988,0.7521747350692749,-1.1443374156951904,-4.7875518798828125,-5.752920627593994, -2.0250813961029053
145,1899348823,0.6269193,0.3052958,-0.6830765,0.21719423,9.71017837524414,0.916280210018158,-1.144522786140442,-7.778106689453125,-6.16898775100708, -2.651427745819092
146,1899365490,0.62672764,0.30504325,-0.68376833,0.21592125,9.873762130737305,0.6552659273147583,-1.0897294282913208,-8.262621879577637,-6.319309234619141, -3.3013503551483154
147,1899382157,0.6264722,0.3049778,-0.6844107,0.21471706,9.902047157287598,0.4017195999622345,-1.2396131753921509,-6.909271240234375,-6.542791366577148, -3.902108907699585
148,1899398824,0.6262323,0.30480126,-0.68514633,0.21331646,9.698647499084473,0.46748068928718567,-1.3144606351852417,-8.445586204528809,-7.112380504608154, -4.080975532531738
149,1899415491,0.6260722,0.30440676,-0.68599844,0.2116041,9.579599380493164,0.7041224241256714,-1.4271785020828247,-11.518986701965332,-7.597205638885498, -4.245730400085449
150,1899432158,0.62612253,0.3034859,-0.6870649,0.20930535,9.586030960083008,1.194515585899353,-1.3240363597869873,-17.211166381835938,-7.962857246398926, -4.160417079925537
151,1899448825,0.6262702,0.30214068,-0.688334,0.20662294,9.784270286560059,0.9668530225753784,-1.2955539226531982,-21.36614227294922,-8.559511184692383, -3.4943981170654297
152,1899465492,0.6262916,0.3007479,-0.68971175,0.20397912,9.919251441955566,0.78501957654953,-1.1398268938064575,-21.52035903930664,-9.497962951660156, -2.655773639678955
153,1899482159,0.62603545,0.29989153,-0.69092613,0.20190538,9.909834861755371,0.6292107105255127,-1.2135961055755615,-15.653592109680176,-9.68692684173584, -2.7021689414978027
154,1899498826,0.6254581,0.30095017,-0.69098467,0.20191985,9.974028587341309,0.4978860914707184,-1.3140974044799805,4.863641738891602,-4.588042736053467, -4.774080276489258
155,1899515493,0.6249677,0.302937,-0.69023484,0.20302866,9.476826667785645,0.6788042783737183,-1.6109706163406372,14.996715545654297,0.27029746770858765, -6.293814182281494
156,1899532160,0.62453973,0.30444026,-0.68978417,0.20362726,9.422958374023438,0.9528827667236328,-1.6183298826217651,10.021261215209961,-1.0821882486343384, -5.675482749938965
157,1899548827,0.62423444,0.30517393,-0.6897783,0.20348549,9.542469024658203,1.3162217140197754,-1.384383201599121,2.3180840015411377,-2.866138219833374, -4.436247825622559
158,1899565494,0.6240219,0.30537352,-0.6900646,0.20286591,9.612621307373047,0.9798232316970825,-1.4203225374221802,-2.8736555576324463,-3.9361090660095215, -3.437544584274292
159,1899582161,0.6236328,0.3058609,-0.6902623,0.20265554,9.730975151062012,0.8795132637023926,-1.33733069896698,0.8029261231422424,-3.9304606914520264, -2.9813311100006104
160,1899598828,0.6230981,0.30703044,-0.69000834,0.20339514,9.760701179504395,0.7876599431037903,-1.3446499109268188,9.217534065246582,-1.636267900466919, -2.899230718612671
161,1899615495,0.6225566,0.30941862,-0.68864167,0.20604874,9.727681159973145,0.7261855602264404,-1.2631573677062988,25.063129425048828,5.425787925720215, -2.8236403465270996
162,1899632162,0.6222249,0.3110054,-0.6875887,0.20816787,9.318763732910156,1.071062445640564,-1.5924339294433594,18.244672775268555,5.066934585571289, -0.9627184867858887
163,1899648829,0.6220042,0.3113254,-0.6874192,0.20890746,9.226726531982422,0.8166518211364746,-1.8414180278778076,4.870312213897705,0.6988232731819153, 0.8577372431755066
164,1899665496,0.6216474,0.3111231,-0.68782365,0.20893963,9.186103820800781,0.4929738938808441,-1.914658546447754,-1.4044342041015625,-3.148812770843506, 1.7471898794174194
165,1899682163,0.62098867,0.3111432,-0.6883605,0.20910068,9.289544105529785,0.4754193425178528,-1.5512622594833374,0.7050088047981262,-5.1384711265563965, 1.9286428689956665
166,1899698830,0.6201611,0.31179887,-0.68859094,0.2098194,9.437460899353027,0.686816930770874,-1.7001984119415283,6.895792484283447,-4.331658840179443, 0.8619764447212219
167,1899715497,0.6195026,0.31167772,-0.68922144,0.20987497,9.614261627197266,0.9281391501426697,-1.5944209098815918,-0.5127534866333008,-5.520728588104248, 2.319979429244995
168,1899732164,0.6185987,0.31155804,-0.69000506,0.21014388,9.89567756652832,0.783000111579895,-1.3448790311813354,0.5221085548400879,-6.902431964874268, 3.954390048980713
169,1899748831,0.61773133,0.31137043,-0.69085264,0.21018815,10.106650352478027,1.1390304565429688,-0.8840692639350891,-0.818185031414032,-7.3693132400512695, 3.3737497329711914
170,1899765498,0.6168363,0.31120145,-0.69177324,0.21003927,10.062031745910645,0.495981365442276,-1.2285311222076416,-1.846535086631775,-8.304868698120117, 2.704106330871582
171,1899782165,0.6159074,0.31117618,-0.69269174,0.2097755,9.95260238647461,0.7829268574714661,-1.2277588844299316,-1.5022106170654297,-8.905293464660645, 1.5259215831756592
172,1899798832,0.6148401,0.31146044,-0.69354934,0.20965086,9.763703346252441,0.9365409016609192,-1.3625580072402954,0.6785125732421875,-9.490928649902344, 0.7372809052467346
173,1899815499,0.61368924,0.31181338,-0.6944634,0.2094723,9.675199508666992,1.717044472694397,-1.2307683229446411,0.8041686415672302,-10.356038093566895, 0.4378044009208679
174,1899832166,0.6125752,0.31192693,-0.69548017,0.2091904,9.730297088623047,1.864435076713562,-1.5155774354934692,-1.063516616821289,-10.519820213317871, 1.3901746273040771
175,1899848833,0.61179316,0.3110999,-0.6967845,0.20836839,9.650840759277344,1.9014768600463867,-1.5319406986236572,-8.636313438415527,-9.940973281860352, 3.8002800941467285
176,1899865500,0.6117971,0.30856752,-0.6985561,0.20617947,9.854105949401855,1.5792547464370728,-1.6262221336364746,-24.80557632446289,-8.63339614868164, 6.178726673126221
177,1899882167,0.6127194,0.30376747,-0.7010529,0.20205206,10.01700496673584,0.7496585249900818,-1.3304272890090942,-46.578033447265625,-8.160490036010742, 9.187151908874512
178,1899898834,0.61392075,0.29782277,-0.70403033,0.1968362,9.977893829345703,0.33285287022590637,-1.474666714668274,-58.154415130615234,-9.56579875946045, 10.77765941619873
179,1899915501,0.61517054,0.29109538,-0.70734966,0.19101144,9.751386642456055,0.8111850619316101,-1.6284599304199219,-64.72969818115234,-10.943684577941895, 12.560836791992188
180,1899932168,0.61626333,0.2837091,-0.7110452,0.1847794,9.623550415039062,1.1663399934768677,-1.790302038192749,-69.81495666503906,-13.253358840942383, 15.024505615234375
181,1899948835,0.6171748,0.2765077,-0.7145584,0.17901161,9.528621673583984,0.7223095297813416,-2.0081987380981445,-66.11627197265625,-12.675015449523926, 15.974530220031738
182,1899965502,0.61800605,0.2706535,-0.71703297,0.17515495,9.678946495056152,0.7785320281982422,-1.510882019996643,-49.553443908691406,-6.65709924697876, 15.582795143127441
183,1899982169,0.6184304,0.26682845,-0.7184263,0.1738107,9.447844505310059,0.5967260003089905,-2.130155563354492,-26.482925415039062,-1.8423274755477905, 14.732965469360352
184,1899998836,0.6185163,0.2635474,-0.7198337,0.17268522,9.502534866333008,0.6637586355209351,-1.847002387046814,-22.505971908569336,-3.793928623199463, 13.40237045288086
185,1900015503,0.6185139,0.26051083,-0.72118413,0.1716634,9.716301918029785,0.44251054525375366,-1.658046841621399,-20.743974685668945,-4.079842567443848, 12.637031555175781
186,1900032170,0.61834276,0.2575787,-0.7225892,0.17079367,9.503921508789062,0.5350839495658875,-1.8422942161560059,-19.313499450683594,-5.000197887420654, 13.05140495300293
187,1900048837,0.6178393,0.25530642,-0.7238839,0.17054491,9.502472877502441,0.5277750492095947,-1.9583412408828735,-12.74370288848877,-5.848935604095459, 12.610420227050781
188,1900065504,0.6170121,0.25377434,-0.72501224,0.17103316,9.449470520019531,0.688315212726593,-1.9500161409378052,-5.124426364898682,-6.307234764099121, 12.133225440979004
189,1900082171,0.6161107,0.2520584,-0.7263279,0.1712374,9.460869789123535,0.7541095018386841,-1.7759830951690674,-7.399412155151367,-7.734785556793213, 12.264978408813477
190,1900098838,0.6152215,0.25010455,-0.7277363,0.17131914,9.56006145477295,0.587660014629364,-1.820180892944336,-9.120499610900879,-7.991785049438477, 13.089466094970703
191,1900115505,0.614187,0.24812767,-0.7292817,0.1713337,9.4138765335083,0.6608027219772339,-1.905829906463623,-9.480244636535645,-9.383724212646484, 13.336272239685059
192,1900132172,0.6128296,0.24635357,-0.7309933,0.17146036,9.463661193847656,0.5661473274230957,-1.926540732383728,-7.689581394195557,-11.740248680114746, 13.466245651245117
193,1900148839,0.6111587,0.24474739,-0.7328687,0.17171855,9.738044738769531,0.4248615801334381,-1.488647699356079,-5.952962875366211,-13.970826148986816, 13.8275785446167
194,1900165506,0.609161,0.24354348,-0.7347478,0.17249711,9.810629844665527,0.4248707592487335,-1.6993886232376099,-1.0826762914657593,-15.25251579284668, 14.381444931030273
195,1900182173,0.6069189,0.24265511,-0.73658484,0.17381263,9.674744606018066,0.33357325196266174,-1.841957926750183,3.364457845687866,-15.799924850463867, 15.271297454833984
196,1900198840,0.6043587,0.2420759,-0.7384603,0.17557417,9.658441543579102,0.22697126865386963,-1.8714649677276611,7.4839768409729,-17.19719696044922, 15.997159004211426
197,1900215507,0.60125816,0.24205793,-0.7404065,0.17803115,9.804036140441895,0.14113806188106537,-1.8403594493865967,14.070079803466797,-19.763166427612305, 16.827743530273438
198,1900232174,0.59751403,0.24251983,-0.74253327,0.1811227,9.936125755310059,0.0646076574921608,-1.7512414455413818,20.177499771118164,-23.327192306518555, 18.087533950805664
199,1900248841,0.5932191,0.2432457,-0.7448918,0.18455034,9.910269737243652,0.4916152060031891,-1.7824352979660034,23.532283782958984,-26.883220672607422, 19.211023330688477
200,1900265508,0.5884376,0.24384274,-0.74762315,0.18799359,9.886881828308105,0.4444446563720703,-2.06193208694458,23.460979461669922,-30.726242065429688, 21.197093963623047
201,1900282175,0.5832003,0.2444524,-0.75056237,0.19177271,9.891746520996094,0.19734500348567963,-2.257394790649414,25.751188278198242,-33.37319564819336, 23.455860137939453
202,1900298842,0.577456,0.24485224,-0.75385875,0.19567618,10.225008010864258,0.14182396233081818,-2.2963619232177734,25.959726333618164,-36.93986129760742, 26.321035385131836
203,1900315509,0.57097054,0.24556802,-0.7573215,0.20038319,10.702852249145508,-0.5129069089889526,-2.1939632892608643,32.329654693603516,-40.52495574951172, 29.196542739868164
204,1900332176,0.5635482,0.24721262,-0.76061285,0.20680393,11.672037124633789,-1.4197825193405151,-2.3776721954345703,46.802001953125,-43.14786911010742, 32.0634765625
205,1900348843,0.55498266,0.24998434,-0.7636519,0.2152627,12.205790519714355,-0.6605026721954346,-1.656444787979126,64.03069305419922,-46.32595443725586, 35.250404357910156
206,1900365510,0.54606545,0.2518305,-0.76717484,0.22324173,12.628251075744629,0.19304871559143066,-0.996139645576477,57.84651184082031,-49.561927795410156, 39.65388488769531
207,1900382177,0.5368446,0.2520758,-0.7716166,0.22992072,13.217930793762207,-0.4936273992061615,-0.7306826114654541,44.069549560546875,-54.5341682434082, 45.35831069946289
208,1900398844,0.5269748,0.25161543,-0.77659106,0.2364181,13.100215911865234,-0.9718276262283325,-0.6052071452140808,40.81631088256836,-59.30415725708008, 50.424068450927734
209,1900415511,0.5157977,0.25119308,-0.7821399,0.24312969,12.954853057861328,-1.1551473140716553,-0.6578688025474548,43.41162872314453,-68.22608184814453, 54.16324996948242
210,1900432178,0.5037881,0.2504332,-0.7879725,0.25016028,12.991142272949219,-1.3494632244110107,-0.5010703802108765,44.77846145629883,-72.75062561035156, 59.082523345947266
211,1900448845,0.49190038,0.24813855,-0.7940554,0.2567832,12.940807342529297,-0.9055836200714111,-0.1092413067817688,36.583404541015625,-71.20047760009766, 66.27125549316406
212,1900465512,0.47883186,0.2461975,-0.8002561,0.2640024,12.263505935668945,0.0012274144683033228,-0.4951717257499695,42.83790969848633,-77.86024475097656, 68.73580932617188
213,1900482179,0.46539262,0.24383916,-0.8071145,0.26929295,11.434195518493652,1.308823585510254,-1.5985662937164307,31.051719665527344,-84.91614532470703, 66.26274871826172
214,1900498846,0.451627,0.24198923,-0.8139313,0.2738439,10.338888168334961,1.02969491481781,-3.1169722080230713,29.223289489746094,-88.90990447998047, 61.806766510009766
215,1900515513,0.4376971,0.24041998,-0.8204926,0.27822968,10.606410026550293,0.7429383397102356,-5.249819278717041,29.96868896484375,-89.89266204833984, 59.78384017944336
216,1900532180,0.4242732,0.23777555,-0.82764643,0.2801007,9.784013748168945,1.4835543632507324,-4.107304573059082,10.646790504455566,-90.90293884277344, 58.458168029785156
217,1900548847,0.41223106,0.23417856,-0.8350999,0.27898812,9.292126655578613,0.9092234373092651,-3.9480340480804443,-11.863883018493652,-86.98682403564453, 53.1858024597168
218,1900565514,0.40183944,0.23039372,-0.8417522,0.27730343,9.293617248535156,0.5476734638214111,-2.941448926925659,-16.7293643951416,-75.84371185302734, 48.33180236816406
219,1900582181,0.39404917,0.2272183,-0.84645224,0.27679548,8.239904403686523,0.886786699295044,-0.5971680283546448,-8.581727027893066,-54.78868103027344, 40.13664627075195
220,1900598848,0.3892566,0.22483228,-0.8493028,0.27679345,7.5273590087890625,1.737345576286316,-0.5308234095573425,-4.633880615234375,-33.21220016479492, 28.456573486328125
221,1900615515,0.38763708,0.22304581,-0.850761,0.2760331,7.245452404022217,2.347626209259033,0.9018532037734985,-9.664290428161621,-13.423395156860352, 14.895713806152344
222,1900632182,0.3887324,0.22153695,-0.8512168,0.27429715,6.8939714431762695,1.7871061563491821,1.0933175086975098,-16.84783172607422,2.902491807937622, 4.158360004425049
223,1900648849,0.3922699,0.22043012,-0.850458,0.27249962,7.428023815155029,1.749743938446045,0.6737253069877625,-17.539081573486328,19.38770294189453, -4.671345233917236
224,1900665516,0.3986451,0.21950069,-0.8485485,0.26993915,7.655647277832031,1.811180830001831,0.4651416540145874,-23.640073776245117,37.399227142333984, -14.683385848999023
225,1900682183,0.4079818,0.2187859,-0.8454126,0.2663852,7.900981903076172,1.3552900552749634,0.4291267991065979,-31.014759063720703,55.94770050048828, -25.865238189697266
226,1900698850,0.41980016,0.21891703,-0.84064376,0.26298547,8.144204139709473,0.9153575897216797,0.19653138518333435,-30.358118057250977,74.04264068603516, -36.040287017822266
227,1900715517,0.43387902,0.21977852,-0.8342069,0.25989538,8.475879669189453,0.6545400023460388,-0.25461912155151367,-27.21116065979004,90.94868469238281, -45.71478271484375
228,1900732184,0.44983384,0.22172767,-0.82592833,0.25754443,9.00992488861084,0.4748574495315552,-0.7293067574501038,-20.1334228515625,106.39173126220703, -55.405006408691406
229,1900748851,0.46784648,0.22398461,-0.81608343,0.2548693,9.535959243774414,0.3064342439174652,-0.8886445164680481,-21.978500366210938,121.80402374267578, -63.9439582824707
230,1900765518,0.48756233,0.22650342,-0.8047018,0.25186145,10.0064058303833,0.34211716055870056,-0.9507618546485901,-23.333871841430664,135.18215942382812, -71.76091003417969
231,1900782185,0.50870967,0.22907011,-0.79185086,0.24842215,10.587235450744629,-0.20922371745109558,-1.3328601121902466,-24.735485076904297,146.93858337402344, -78.59661102294922
232,1900798852,0.5310075,0.23146051,-0.7775885,0.24456759,11.135089874267578,-0.5407838821411133,-1.725311517715454,-25.165420532226562,157.3028106689453, -84.10205841064453
233,1900815519,0.5537652,0.23394918,-0.762031,0.2406676,11.632884979248047,-0.7598322033882141,-2.16329026222229,-21.575902938842773,163.89141845703125, -88.33201599121094
234,1900832186,0.5768615,0.23627195,-0.74530464,0.2364903,12.080045700073242,-1.113292932510376,-2.2313950061798096,-20.404766082763672,169.7635955810547, -91.42366027832031
235,1900848853,0.5999563,0.23843634,-0.7275213,0.23219292,12.331653594970703,-1.233828067779541,-2.179832696914673,-18.94686508178711,174.01939392089844, -92.91768646240234
236,1900865520,0.6228435,0.24036582,-0.7088241,0.22772565,12.557635307312012,-1.25546395778656,-2.2976794242858887,-18.760467529296875,176.96226501464844, -93.528076171875
237,1900882187,0.64527786,0.24199544,-0.6894293,0.22302936,12.697664260864258,-1.2666547298431396,-2.4346683025360107,-19.721220016479492,177.9910888671875, -93.34931945800781
238,1900898854,0.66699326,0.24313389,-0.6696864,0.2180049,12.721431732177734,-1.1459342241287231,-2.420179605484009,-22.14835548400879,176.500732421875, -91.87245178222656
239,1900915521,0.68786955,0.24358262,-0.6498641,0.21255524,12.63563346862793,-1.0253349542617798,-2.39369797706604,-28.42995834350586,173.37503051757812, -89.534912109375
240,1900932188,0.70808166,0.2426743,-0.6302779,0.20610549,12.436012268066406,-0.8073186278343201,-2.587738275527954,-38.56169509887695,169.73922729492188, -86.9609146118164
241,1900948855,0.726912,0.24168546,-0.6110178,0.19961102,12.18267822265625,-0.9075301885604858,-2.9124109745025635,-37.313629150390625,162.374267578125, -84.45836639404297
242,1900965522,0.7442001,0.24073085,-0.59235525,0.19321047,11.871293067932129,-1.0871126651763916,-3.096637725830078,-35.013023376464844,153.2281494140625, -81.16621398925781
243,1900982189,0.7596342,0.2404782,-0.57443863,0.18747479,11.391148567199707,-1.3337053060531616,-2.9153311252593994,-26.639219284057617,142.26837158203125, -77.07862091064453
244,1900998856,0.7731616,0.24055696,-0.55778015,0.18230505,11.003789901733398,-1.401934027671814,-3.1580798625946045,-21.14134979248047,128.92396545410156, -71.05553436279297
245,1901015523,0.7847111,0.24107909,-0.5426284,0.17794338,10.541241645812988,-1.461470603942871,-3.208921432495117,-14.301774978637695,114.38267517089844, -63.6533203125
246,1901032190,0.7944812,0.24124177,-0.52949107,0.17390026,9.96681022644043,-1.362046718597412,-3.2931265830993652,-14.566271781921387,98.12581634521484, -55.24315643310547
247,1901048857,0.8024241,0.24117485,-0.5186604,0.17012352,9.542864799499512,-1.4855173826217651,-3.525507926940918,-14.579238891601562,79.87528991699219, -47.10173797607422
248,1901065524,0.808138,0.24191917,-0.51036406,0.16708304,9.029034614562988,-1.9463304281234741,-4.14877462387085,-6.747555255889893,58.51186752319336, -39.284812927246094
249,1901082191,0.8111377,0.2442798,-0.5050545,0.1652372,8.573144912719727,-2.523751974105835,-5.4471893310546875,7.508551597595215,32.83727264404297, -30.406606674194336
250,1901098858,0.8114384,0.24701731,-0.50362813,0.1640409,8.255278587341309,-3.2034313678741455,-7.041041851043701,11.981840133666992,2.8277812004089355, -18.697763442993164
251,1901115525,0.80917686,0.24940917,-0.5062386,0.16355562,7.956763744354248,-3.2084298133850098,-7.042606353759766,12.301159858703613,-26.561504364013672, -4.007401466369629
252,1901132192,0.8044762,0.25231043,-0.51202154,0.16429083,8.29953670501709,-1.8295879364013672,-6.2270684242248535,19.98004913330078,-50.789039611816406, 8.976585388183594
253,1901148859,0.79717904,0.25585535,-0.52105564,0.16596684,8.342024803161621,-1.9789572954177856,-7.382800102233887,27.64891242980957,-76.65260314941406, 20.320539474487305
254,1901165526,0.79029334,0.25985238,-0.5286812,0.16855048,11.35033130645752,5.553224086761475,8.933472633361816,34.216129302978516,-65.98863983154297, 20.552480697631836
255,1901182193,0.7872426,0.25756705,-0.5350498,0.16622247,12.382996559143066,5.653326034545898,14.29240608215332,-23.160629272460938,-46.92041015625, 10.125550270080566
256,1901198860,0.78405243,0.24816932,-0.545627,0.16113652,13.53561782836914,-4.427871227264404,-2.773919105529785,-76.30908966064453,-67.37379455566406, 29.09981918334961
257,1901215527,0.7774373,0.24472284,-0.55721575,0.15878542,15.347565650939941,2.1635217666625977,-4.322201251983643,-29.22298812866211,-87.33454132080078, 26.74795913696289
258,1901232194,0.7695579,0.24020205,-0.5711926,0.15434629,16.380224227905273,-3.8845410346984863,-2.557738780975342,-43.51603698730469,-106.94734954833984, 25.059804916381836
259,1901248861,0.7603906,0.23940335,-0.58369493,0.15424961,10.43033504486084,-2.238949775695801,0.41692787408828735,-3.073773145675659,-100.72673797607422, 32.07379913330078
260,1901265528,0.7522412,0.23897323,-0.5942808,0.15445226,8.542227745056152,2.3065829277038574,-0.5835424065589905,0.4151362478733063,-86.46233367919922, 27.766681671142578
261,1901282195,0.7450167,0.23968405,-0.6027249,0.15564199,9.859992980957031,1.809902310371399,-1.2788286209106445,11.068669319152832,-71.12466430664062, 23.744779586791992
262,1901298862,0.7391651,0.23923536,-0.60998046,0.15596563,10.466353416442871,1.7010347843170166,-0.14643435180187225,0.5194392800331116,-59.43281555175781, 20.693220138549805
263,1901315529,0.73465425,0.23627283,-0.6170106,0.1541307,10.152726173400879,0.6899177432060242,0.8601373434066772,-23.290386199951172,-53.46601486206055, 18.469635009765625
264,1901332196,0.73030007,0.23365785,-0.62371445,0.15181023,10.309391021728516,-0.512374758720398,0.9577635526657104,-23.50864601135254,-52.31647872924805, 13.839778900146484
265,1901348863,0.7257996,0.23203887,-0.6300694,0.14961827,9.922528266906738,-0.20168417692184448,0.8227192759513855,-17.357328414916992,-52.06721115112305, 9.771203994750977
266,1901365530,0.72067,0.23262517,-0.63586456,0.14898553,9.943669319152832,0.24066314101219177,0.04742061346769333,1.9796696901321411,-51.847755432128906, 7.7460784912109375
267,1901382197,0.7143661,0.2374366,-0.6405352,0.15172282,9.757091522216797,0.8111465573310852,-0.21789045631885529,40.671897888183594,-50.415645599365234, 5.3907270431518555
268,1901398864,0.7074958,0.24382551,-0.6447155,0.15601507,9.905573844909668,1.5315502882003784,0.355191171169281,56.698421478271484,-49.69108963012695, 5.908565998077393
269,1901415531,0.70094985,0.24911638,-0.64897764,0.15949498,9.867033958435059,1.614378571510315,0.2278442531824112,47.12400817871094,-48.94684982299805, 6.683109760284424
270,1901432198,0.6950155,0.25288826,-0.6533139,0.16180906,9.929287910461426,1.3426713943481445,-0.18281438946723938,33.47471618652344,-47.01498794555664, 7.3776655197143555
271,1901448865,0.689718,0.25493658,-0.6578117,0.16303457,9.728952407836914,1.4706870317459106,-0.46914395689964294,19.065946578979492,-44.99429702758789, 9.562783241271973
272,1901465532,0.6848319,0.25624976,-0.66218203,0.1638797,9.825181007385254,1.3614780902862549,-0.6868111491203308,13.28671932220459,-42.45469665527344, 10.476908683776855
273,1901482199,0.6801988,0.25729078,-0.6663615,0.16460207,9.775679588317871,1.405603289604187,-0.7769091725349426,11.222003936767578,-40.387718200683594, 10.587060928344727
274,1901498866,0.6758324,0.25766233,-0.6705483,0.16500224,9.771913528442383,1.8850432634353638,-0.5478082299232483,6.142237663269043,-39.080833435058594, 11.924877166748047
275,1901515533,0.67217404,0.25523546,-0.67551845,0.16343758,9.521507263183594,2.318706512451172,-0.8090897798538208,-18.05267333984375,-39.83195877075195, 16.356414794921875
276,1901532200,0.66953164,0.2500033,-0.6809265,0.15989043,9.383065223693848,2.3408498764038086,-0.9829275012016296,-41.51691818237305,-37.403106689453125, 19.891189575195312
277,1901548867,0.6676344,0.2432068,-0.6863734,0.1549406,9.415750503540039,2.096173048019409,-1.1604336500167847,-56.60917282104492,-34.84033966064453, 20.071975708007812
278,1901565534,0.6659696,0.23570324,-0.6918758,0.14911942,9.468863487243652,1.7104039192199707,-1.0724188089370728,-64.24347686767578,-34.729583740234375, 19.296770095825195
279,1901582201,0.66428447,0.2272551,-0.69768345,0.14254662,9.704731941223145,1.157615303993225,-0.7555735111236572,-72.26313018798828,-36.50297927856445, 20.890457153320312
280,1901598868,0.6623377,0.21839432,-0.7037125,0.13565257,9.804057121276855,0.5510226488113403,-0.9866383671760559,-75.36481475830078,-38.90550231933594, 22.014358520507812
281,1901615535,0.65993047,0.21056636,-0.7094517,0.12973888,9.868311882019043,0.20156683027744293,-1.2480642795562744,-64.92937469482422,-39.34494400024414, 21.475767135620117
282,1901632202,0.65667385,0.20489982,-0.7148572,0.12559843,9.653093338012695,0.20106303691864014,-1.3680012226104736,-44.945377349853516,-41.372379302978516, 19.24555015563965
283,1901648869,0.6527604,0.20038462,-0.7202842,0.12223277,9.664793014526367,0.5444013476371765,-1.2703264951705933,-35.06011199951172,-44.63563919067383, 17.674922943115234
284,1901665536,0.6481081,0.19680086,-0.72589177,0.11961065,9.69985580444336,0.3427387773990631,-1.6899749040603638,-26.42569351196289,-48.9019889831543, 17.272701263427734
285,1901682203,0.64282006,0.19438392,-0.73146796,0.11811858,9.864239692687988,0.3834291398525238,-1.599424123764038,-14.797800064086914,-51.398590087890625, 16.966407775878906
286,1901698870,0.6369292,0.19300117,-0.7370202,0.1177853,10.119392395019531,0.04699789732694626,-1.6707611083984375,-3.7122950553894043,-53.652069091796875, 17.353160858154297
287,1901715537,0.6304913,0.19242609,-0.742618,0.11820127,9.95641040802002,0.29747575521469116,-1.725117564201355,3.989424705505371,-56.32969284057617, 17.082141876220703
288,1901732204,0.6234125,0.1923971,-0.7484479,0.11902276,9.840571403503418,0.5648461580276489,-1.9734772443771362,9.128886222839355,-60.53451156616211, 16.86444091796875
289,1901748871,0.61554235,0.19307783,-0.754512,0.12058379,9.989562034606934,0.539480984210968,-2.1857762336730957,16.375776290893555,-65.25857543945312, 17.425172805786133
290,1901765538,0.6070083,0.19435528,-0.7606964,0.12291553,10.176252365112305,0.35987672209739685,-2.4100053310394287,23.648706436157227,-68.6999740600586, 18.310155868530273
291,1901782205,0.5979137,0.19618458,-0.76692957,0.12581775,10.199939727783203,0.8264422416687012,-2.4069664478302,29.428922653198242,-71.56256103515625, 18.3951358795166
292,1901798872,0.5883119,0.19845004,-0.77318245,0.12921247,10.383464813232422,0.4726770222187042,-2.573486566543579,34.40061950683594,-74.04741668701172, 18.61760902404785
293,1901815539,0.5782858,0.20079541,-0.77943933,0.13319692,10.884997367858887,-0.2848956286907196,-2.4350152015686035,38.26842498779297,-75.60272216796875, 21.016250610351562
294,1901832206,0.56783825,0.2027544,-0.78580016,0.13772728,11.415971755981445,-0.3757941722869873,-2.3771250247955322,40.11616897583008,-77.18134307861328, 25.79949188232422
295,1901848873,0.55676645,0.20411822,-0.7924659,0.14263539,12.179550170898438,-0.4687719941139221,-2.2258758544921875,40.42206573486328,-80.67138671875, 31.509572982788086
296,1901865540,0.54482585,0.20536742,-0.7992233,0.14910257,13.788228034973145,-1.1825250387191772,-2.1960930824279785,49.46665954589844,-83.4731674194336, 39.14122009277344
297,1901882207,0.53171,0.2067548,-0.80597955,0.1579057,14.712005615234375,-1.4428791999816895,-1.306661605834961,64.3248062133789,-86.78944396972656, 48.40415954589844
298,1901898874,0.51710767,0.20732349,-0.81353086,0.16668606,15.190112113952637,-0.7923237085342407,0.005009740591049194,62.2342529296875,-97.09540557861328, 55.70970916748047
299,1901915541,0.5011065,0.20681334,-0.8218782,0.17503418,16.285810470581055,-1.3618286848068237,0.6013169288635254,57.031768798828125,-107.16004180908203, 62.99260711669922
300,1901932208,0.48409063,0.2063299,-0.8300624,0.18461038,17.285280227661133,-0.9038957953453064,1.421382188796997,65.56248474121094,-110.64234924316406, 68.16776275634766
301,1901948875,0.46675515,0.20606868,-0.83742213,0.19595796,17.260881423950195,-0.4680546522140503,3.5990304946899414,77.7654037475586,-107.50917053222656, 72.16000366210938
302,1901965542,0.45075452,0.20519671,-0.84347844,0.20798773,15.998659133911133,1.5849049091339111,2.945896863937378,80.65762329101562,-94.0783462524414, 73.67557525634766
303,1901982209,0.43601018,0.2017885,-0.85005826,0.21581908,13.065101623535156,3.0384910106658936,-1.1684694290161133,45.926979064941406,-90.77616882324219, 74.3544692993164
304,1901998876,0.42018887,0.19761838,-0.85756,0.22131257,12.490594863891602,3.034888982772827,-7.759880065917969,30.118043899536133,-101.97103881835938, 74.71956634521484
305,1902015543,0.40331754,0.1924776,-0.86612564,0.2238612,11.622455596923828,3.5082576274871826,-4.878301620483398,9.781664848327637,-113.73910522460938, 75.01582336425781
306,1902032210,0.38856396,0.18526497,-0.8752297,0.22060877,9.972386360168457,4.136677265167236,-2.064344882965088,-34.118995666503906,-107.10816955566406, 68.75359344482422
307,1902048877,0.37783977,0.17837766,-0.8824774,0.21599123,8.381908416748047,1.8121891021728516,0.8748669028282166,-43.75975036621094,-80.14655303955078, 54.70157241821289
308,1902065544,0.3709442,0.17535187,-0.8849343,0.2203258,7.9805827140808105,0.37153711915016174,1.8201954364776611,23.01190948486328,-39.25175857543945, 42.98089599609375
309,1902082211,0.3687015,0.17559366,-0.8834674,0.22958994,6.604363918304443,3.0633838176727295,4.421849727630615,61.66720962524414,0.03171541169285774, 23.90690803527832
310,1902098878,0.37155434,0.17764504,-0.879622,0.2380226,5.516825199127197,3.8926751613616943,4.468291282653809,58.80826950073242,33.1202392578125, -0.0780431404709816
311,1902115545,0.37935534,0.18013053,-0.87443936,0.24289595,5.924380779266357,3.1923956871032715,3.1621272563934326,34.542030334472656,61.37846374511719, -21.497034072875977
312,1902132212,0.3918837,0.18285745,-0.8678802,0.24448809,6.791550636291504,2.2256646156311035,1.924648404121399,11.89271068572998,88.90404510498047, -41.083412170410156
313,1902148879,0.40893382,0.18565243,-0.8598045,0.24298674,7.677191734313965,1.8847278356552124,1.4841229915618896,-9.516688346862793,115.95320129394531, -59.31776809692383
314,1902165546,0.42972103,0.188432,-0.8501077,0.23906119,8.297046661376953,1.7540740966796875,0.8182808756828308,-25.95285415649414,139.51983642578125, -74.34452056884766
315,1902182213,0.45339978,0.19114585,-0.8387088,0.23336591,8.851882934570312,1.3393853902816772,-0.2708037495613098,-37.43935775756836,159.25218200683594, -86.1399154663086
316,1902198880,0.47939998,0.19383036,-0.8254128,0.22649421,9.520655632019043,1.2258728742599487,-1.1659212112426758,-44.32195281982422,177.04910278320312, -95.85301971435547
317,1902215547,0.50698906,0.19673242,-0.8101283,0.2189769,10.410750389099121,0.7072110772132874,-1.8218415975570679,-46.28884506225586,191.42172241210938, -104.33870697021484
318,1902232214,0.5355763,0.20036556,-0.79252607,0.21193029,11.11335277557373,-0.18663617968559265,-2.530787944793701,-38.97890090942383,204.6018829345703, -111.4097900390625
319,1902248881,0.56424147,0.20517375,-0.77269065,0.20611782,11.547464370727539,-0.3556448519229889,-3.111961841583252,-24.780197143554688,213.24920654296875, -116.4652328491211
320,1902265548,0.5926868,0.21101147,-0.75083333,0.20111181,12.124848365783691,-1.0460199117660522,-3.357113838195801,-13.851804733276367,219.6589813232422, -121.22599792480469
321,1902282215,0.6206373,0.2180027,-0.7268276,0.19749889,12.865066528320312,-2.0513381958007812,-3.3686163425445557,5.177666664123535,226.18817138671875, -124.60155487060547
322,1902298882,0.6472582,0.22720118,-0.70066386,0.19623165,12.974506378173828,-2.5590057373046875,-3.7378652095794678,32.281925201416016,229.41419982910156, -126.98974609375
323,1902315549,0.67191267,0.23868418,-0.6728524,0.1970608,13.412737846374512,-2.836585283279419,-3.9953994750976562,57.3950080871582,227.6299591064453, -128.3301239013672
324,1902332216,0.69447047,0.25228682,-0.64364535,0.19945653,13.868532180786133,-3.005326509475708,-4.080414295196533,78.54443359375,224.15919494628906, -130.1799774169922
325,1902348883,0.71553236,0.26524884,-0.6141925,0.20105802,13.67699909210205,-2.237285852432251,-4.103212356567383,72.64884185791016,218.08934020996094, -129.59373474121094
326,1902365550,0.7357797,0.2741394,-0.5862543,0.19945394,13.633210182189941,-2.1953623294830322,-4.489880561828613,38.46103286743164,207.0310516357422, -124.31269836425781
327,1902382217,0.75529456,0.27804935,-0.5605847,0.19484285,13.771305084228516,-3.602407455444336,-5.837381839752197,-0.598380982875824,193.82150268554688, -114.20503997802734
328,1902398884,0.773586,0.27663946,-0.53828716,0.18783604,12.978372573852539,-4.1811089515686035,-7.452402591705322,-39.64524459838867,174.2115478515625, -98.10755157470703
329,1902415551,0.7896161,0.2715743,-0.5200631,0.17969036,12.02444839477539,-4.807793617248535,-8.721935272216797,-64.26795959472656,146.8106231689453, -80.02259063720703
330,1902432218,0.80224305,0.26495782,-0.50658405,0.17197758,10.54126262664795,-4.742928981781006,-10.30677604675293,-70.6524658203125,111.6943359375, -59.11520767211914
331,1902448885,0.81113094,0.25783572,-0.4984667,0.16467743,9.069032669067383,-4.552305221557617,-11.884847640991211,-71.5371322631836,70.54096221923828, -40.936378479003906
332,1902465552,0.81616926,0.251642,-0.49541053,0.15846948,8.25364875793457,-4.966991901397705,-12.65396499633789,-61.5317268371582,30.106056213378906, -24.735416412353516
333,1902482219,0.81679994,0.24823405,-0.49726146,0.15475473,8.682256698608398,-4.933663845062256,-12.546040534973145,-35.13678741455078,-11.069863319396973, -6.978969573974609
334,1902498886,0.81229097,0.24956383,-0.5040061,0.15452893,8.384554862976074,-4.742975234985352,-14.133926391601562,6.952895164489746,-55.12175369262695, 10.199355125427246
335,1902515553,0.80461144,0.25539163,-0.51220745,0.15817478,12.709197044372559,3.122760534286499,1.5439391136169434,49.37065887451172,-72.29306030273438, 22.064777374267578
336,1902532220,0.8008126,0.25722682,-0.5171749,0.15831584,14.569089889526367,8.75048542022705,21.051006317138672,11.63906192779541,-42.56074142456055, 6.846840858459473
337,1902548887,0.797812,0.24776988,-0.5278496,0.15323599,13.764532089233398,-3.9864447116851807,-3.7086288928985596,-76.70735931396484,-68.22745513916016, 27.532936096191406
338,1902565554,0.7909897,0.24476635,-0.5398683,0.15155047,15.864866256713867,0.6362925171852112,-1.3516247272491455,-23.89083480834961,-90.44791412353516, 29.013885498046875
339,1902582221,0.783327,0.23985657,-0.5545435,0.14611545,15.694449424743652,-1.6043670177459717,-4.895175457000732,-49.536128997802734,-112.31953430175781, 21.041513442993164
340,1902598888,0.7743021,0.23793255,-0.56815344,0.14507347,12.436767578125,-3.934082508087158,-0.8787580132484436,-13.394471168518066,-107.48875427246094, 32.91218185424805
341,1902615555,0.76599544,0.2371213,-0.5797241,0.14472353,8.289725303649902,3.0029311180114746,0.15867865085601807,-3.9031999111175537,-93.80268096923828, 28.168846130371094
342,1902632222,0.7586174,0.23789686,-0.5888151,0.14560889,9.669236183166504,1.7075200080871582,-1.1168251037597656,10.326030731201172,-76.62261962890625, 23.407520294189453
343,1902648889,0.75287884,0.23718025,-0.5965447,0.14509991,10.278075218200684,1.9730579853057861,0.2855716347694397,-4.42350959777832,-63.675506591796875, 18.319541931152344
344,1902665556,0.74814457,0.23488866,-0.603843,0.14311215,10.58089542388916,0.2959144413471222,1.2110114097595215,-19.849916458129883,-58.17832946777344, 15.434525489807129
345,1902682223,0.7430036,0.23486494,-0.610386,0.1421746,10.526348114013672,-1.0096076726913452,0.6898068785667419,-2.422349452972412,-56.53675842285156, 10.604133605957031
346,1902698890,0.7369093,0.23904757,-0.61574984,0.14378281,10.175461769104004,-0.2292293906211853,0.9233425855636597,32.44315719604492,-54.53202819824219, 4.974666118621826
347,1902715557,0.72993314,0.2468717,-0.6199755,0.14792897,10.227620124816895,0.8397594690322876,0.25780564546585083,64.21292114257812,-51.94887924194336, 1.411658763885498
348,1902732224,0.7227414,0.25564736,-0.62361914,0.15293448,10.003244400024414,1.6790571212768555,0.21028102934360504,73.60869598388672,-49.47469711303711, 0.8982303142547607
349,1902748891,0.7156538,0.2638984,-0.6271245,0.15783755,9.991639137268066,1.7742174863815308,0.30133214592933655,70.52326202392578,-47.986351013183594, 2.2902629375457764
350,1902765558,0.7087822,0.27065426,-0.63093406,0.16216312,9.84276294708252,1.709581732749939,0.3130124509334564,59.9532356262207,-47.9945182800293, 6.218643665313721
351,1902782225,0.70233244,0.27553946,-0.6351027,0.16568777,9.857013702392578,1.885121464729309,0.1475975215435028,46.17730712890625,-47.33507537841797, 10.633824348449707
352,1902798892,0.69619244,0.27906135,-0.63956785,0.16850616,9.742876052856445,1.8272066116333008,-0.09433479607105255,35.58548355102539,-47.213985443115234, 13.39366340637207
353,1902815559,0.6901175,0.2818218,-0.64424247,0.17107505,9.657322883605957,1.920346975326538,-0.16112767159938812,30.476301193237305,-47.53984451293945, 15.882684707641602
354,1902832226,0.68426764,0.2836916,-0.6490755,0.17320006,9.724757194519043,1.8938696384429932,-0.32778307795524597,23.662633895874023,-47.11833953857422, 17.772661209106445
355,1902848893,0.67853326,0.2848477,-0.654085,0.17500897,9.638651847839355,1.891418218612671,-0.5541702508926392,18.459949493408203,-47.21076583862305, 19.687143325805664
356,1902865560,0.6729366,0.28559342,-0.65907073,0.17668931,9.599227905273438,1.6885194778442383,-0.8308278918266296,15.726961135864258,-46.2491455078125, 20.73143768310547
357,1902882227,0.66750515,0.28608155,-0.66393906,0.17826876,9.506566047668457,1.3672808408737183,-1.1328604221343994,13.8980073928833,-44.85200500488281, 21.009681701660156
358,1902898894,0.66211414,0.2861594,-0.6689364,0.17956159,9.43299388885498,1.3076387643814087,-1.159565806388855,10.469717979431152,-45.327484130859375, 21.778932571411133
359,1902915561,0.65680444,0.28590244,-0.6739907,0.18056838,9.465987205505371,1.1668719053268433,-1.3928687572479248,7.4015936851501465,-45.37017822265625, 22.03523826599121
360,1902932228,0.65161675,0.28543746,-0.67896307,0.18146877,9.383769035339355,1.1450179815292358,-1.5223803520202637,5.831966876983643,-44.39155578613281, 22.212675094604492
361,1902948895,0.6466343,0.28445667,-0.6840107,0.18187556,9.257777214050293,1.27994704246521,-1.515621542930603,0.7211509346961975,-44.102088928222656, 22.307449340820312
362,1902965562,0.6416957,0.2831047,-0.6891875,0.18193313,9.274532318115234,1.0692212581634521,-1.6630245447158813,-2.816896915435791,-44.69544219970703, 22.70633888244629
363,1902982229,0.6366319,0.28179246,-0.6943801,0.18201625,9.323548316955566,0.908659815788269,-1.717579960823059,-2.2953155040740967,-45.36339569091797, 22.82391929626465
364,1902998896,0.63142496,0.28039724,-0.6996728,0.18203968,9.47797679901123,0.42118701338768005,-1.831482172012329,-2.7905683517456055,-46.50278091430664, 23.337543487548828
365,1903015563,0.6258869,0.2791299,-0.70509875,0.18217668,9.609583854675293,0.29863521456718445,-1.6521472930908203,-1.2173713445663452,-48.620540618896484, 23.88825798034668
366,1903032230,0.6200972,0.27780584,-0.7107443,0.18206154,9.71370792388916,0.6873684525489807,-1.6116888523101807,-2.475059747695923,-51.20547866821289, 23.816152572631836
367,1903048897,0.6141853,0.27589476,-0.716807,0.18123692,9.753022193908691,0.8930204510688782,-1.9880335330963135,-6.736032485961914,-54.03651809692383, 24.284902572631836
368,1903065564,0.60808235,0.27342933,-0.72325057,0.17994909,9.746489524841309,1.1425527334213257,-1.9557245969772339,-11.363555908203125,-56.785030364990234, 25.975814819335938
369,1903082231,0.6015922,0.27049032,-0.73009217,0.17857158,10.109850883483887,0.721642255783081,-2.048151969909668,-13.29492473602295,-59.96123504638672, 29.105215072631836
370,1903098898,0.59438556,0.2676161,-0.73721564,0.17776811,10.657665252685547,-0.14918604493141174,-1.969777226448059,-9.10289478302002,-63.7573356628418, 32.50873947143555
371,1903115565,0.5864737,0.26475585,-0.74462545,0.177445,11.303169250488281,-0.8075973391532898,-1.824876308441162,-5.523531913757324,-67.65925598144531, 35.70976638793945
372,1903132232,0.5776298,0.26194796,-0.75237495,0.17793179,11.777749061584473,-0.4851857125759125,-1.9973194599151611,0.17191021144390106,-72.42768096923828, 40.39138412475586
373,1903148899,0.5677199,0.25870484,-0.76084864,0.17853901,12.009251594543457,0.3409020006656647,-1.9014943838119507,0.09514763206243515,-80.11483764648438, 45.670379638671875
374,1903165566,0.5563257,0.25566617,-0.7699084,0.17993902,12.491068840026855,0.421740859746933,-1.9397958517074585,6.9204559326171875,-89.06024932861328, 50.51109313964844
375,1903182233,0.5435876,0.25294653,-0.7792464,0.18249962,13.247714042663574,0.6750617623329163,-1.5503102540969849,16.080059051513672,-95.651123046875, 55.422447204589844
376,1903198900,0.52962834,0.25000185,-0.788937,0.18593514,14.584807395935059,-0.020577939227223396,-0.7823977470397949,21.456377029418945,-101.77338409423828, 62.03740692138672
377,1903215567,0.51446366,0.24646975,-0.79900247,0.19019853,15.815688133239746,-0.5603811740875244,0.6973800659179688,24.802705764770508,-107.5610122680664, 70.60047149658203
378,1903232234,0.49786252,0.24226157,-0.8095615,0.19507198,16.71920394897461,-1.2507848739624023,1.7151390314102173,27.119855880737305,-115.34077453613281, 79.32740020751953
379,1903248901,0.47961962,0.23792116,-0.8203792,0.20084153,17.294511795043945,-0.3762646019458771,2.677821636199951,33.43666076660156,-123.72987365722656, 86.0165023803711
380,1903265568,0.46055037,0.23403068,-0.8305186,0.20823635,16.803768157958984,0.9683119654655457,3.8424315452575684,45.86824417114258,-124.13744354248047, 89.13125610351562
381,1903282235,0.44225976,0.22972181,-0.8399588,0.21471857,15.528611183166504,3.2412068843841553,1.394931674003601,38.75309753417969,-118.36581420898438, 86.60425567626953
382,1903298902,0.42591295,0.22341326,-0.8492138,0.2179935,13.166979789733887,2.6301000118255615,-3.538590431213379,10.93982982635498,-108.64957427978516, 85.55284881591797
383,1903315569,0.4117391,0.21483736,-0.85837454,0.21796677,13.045863151550293,2.88631010055542,-5.403264999389648,-18.381563186645508,-97.30463409423828, 85.9303207397461
384,1903332236,0.3987004,0.20583436,-0.866561,0.21850127,11.489724159240723,2.275172710418701,-2.9942080974578857,-16.737934112548828,-86.29429626464844, 87.15550994873047
385,1903348903,0.38590366,0.19714788,-0.87445545,0.21803558,9.30733871459961,4.811936378479004,-1.2813200950622559,-21.791839599609375,-85.91150665283203, 81.87967681884766
386,1903365570,0.37583908,0.18889806,-0.88156724,0.2142483,7.597909450531006,4.424322128295898,-0.42899948358535767,-42.97917938232422,-72.60327911376953, 65.26317596435547
387,1903382237,0.3696187,0.18255791,-0.8861526,0.21163368,7.260451316833496,1.2938791513442993,-2.4844822883605957,-32.22651290893555,-44.05960464477539, 47.870121002197266
388,1903398904,0.36741555,0.18035135,-0.8860521,0.21769646,7.218393325805664,3.1527111530303955,2.6070878505706787,32.968467712402344,-2.8028576374053955, 33.00355529785156
389,1903415571,0.36988673,0.18285048,-0.8819614,0.22780296,4.948361873626709,3.4744486808776855,4.687624931335449,69.66364288330078,33.71225357055664, 2.629897117614746
390,1903432238,0.3777714,0.18740477,-0.8752863,0.23673363,4.97477912902832,3.970712900161743,3.700408458709717,64.99934387207031,68.39596557617188, -24.554615020751953
391,1903448905,0.39114,0.19121118,-0.8676198,0.24017558,6.098243236541748,3.108837127685547,2.3204381465911865,24.63930320739746,98.06291198730469, -44.584083557128906
392,1903465572,0.40903264,0.19498098,-0.858605,0.23973463,7.891571998596191,2.1492888927459717,1.4056075811386108,-2.112999677658081,123.51123809814453, -64.2498550415039
393,1903482239,0.43066376,0.19899656,-0.8476564,0.23750451,9.155109405517578,1.2862048149108887,0.8563665747642517,-13.375575065612793,148.0398712158203, -79.8047103881836
394,1903498906,0.45557788,0.20274253,-0.83470845,0.2336813,9.510577201843262,1.0298302173614502,0.24526062607765198,-23.824312210083008,171.0958709716797, -91.56916809082031
395,1903515573,0.48323947,0.20530203,-0.8202556,0.22696324,10.032328605651855,1.391846776008606,-0.27073946595191956,-44.69237518310547,189.26312255859375, -100.75567626953125
396,1903532240,0.51282084,0.20698488,-0.80413264,0.21804403,11.015911102294922,1.1264322996139526,-1.1972160339355469,-59.30731964111328,203.80673217773438, -108.74529266357422
397,1903548907,0.54357517,0.20824398,-0.7860137,0.20819108,11.90300178527832,0.09635632485151291,-2.1560442447662354,-64.13270568847656,216.65908813476562, -114.3333740234375
398,1903565574,0.57454926,0.2097651,-0.765767,0.19872908,12.450807571411133,-0.4698948264122009,-3.0781521797180176,-58.16099548339844,226.08619689941406, -117.51575469970703
399,1903582241,0.6051418,0.21180323,-0.7435022,0.1901261,12.960593223571777,-1.4665734767913818,-3.351532220840454,-48.61264419555664,232.71951293945312, -118.97432708740234
400,1903598908,0.63423675,0.2162016,-0.71901184,0.1844546,13.58885383605957,-2.529409885406494,-3.5394351482391357,-19.080730438232422,235.62130737304688, -119.91423034667969
401,1903615575,0.66113526,0.224111,-0.69234204,0.18258603,13.793159484863281,-3.1642050743103027,-3.8399007320404053,18.992887496948242,235.5153350830078, -120.836181640625
402,1903632242,0.68594587,0.23456883,-0.66397804,0.18327467,13.919861793518066,-3.431136131286621,-4.218066215515137,48.09682846069336,234.06695556640625, -121.36646270751953
403,1903648909,0.7091097,0.24619077,-0.63442564,0.18454954,14.229409217834473,-2.5299434661865234,-4.903223991394043,60.41557693481445,231.68995666503906, -123.79562377929688
404,1903665576,0.7310064,0.2556798,-0.6054593,0.1835138,13.855279922485352,-1.7777395248413086,-5.42863655090332,41.32950973510742,222.1636505126953, -123.19029235839844
405,1903682243,0.752072,0.2601849,-0.57861924,0.17858344,13.689728736877441,-2.5031187534332275,-6.1310553550720215,-1.1683268547058105,207.52659606933594, -117.26277923583984
406,1903698910,0.77168006,0.25952324,-0.55503374,0.1705749,13.364096641540527,-4.050407409667969,-7.776577472686768,-41.531883239746094,185.812255859375, -105.05623626708984
407,1903715577,0.7887811,0.25542563,-0.53521997,0.16162464,12.46576976776123,-5.661101341247559,-9.248584747314453,-63.31258773803711,158.67271423339844, -87.32723999023438
408,1903732244,0.8023217,0.24969456,-0.5198868,0.153789,11.246185302734375,-6.238795757293701,-10.640815734863281,-66.79753875732422,125.14720916748047, -63.51259231567383
409,1903748911,0.8118205,0.24378228,-0.5096988,0.14739662,9.535449981689453,-5.178186893463135,-12.111078262329102,-61.1413688659668,85.09884643554688, -41.86263656616211
410,1903765578,0.8172468,0.23822053,-0.505084,0.14230101,8.493631362915039,-4.983396053314209,-13.104642868041992,-53.47062301635742,41.656044006347656, -22.43631935119629
411,1903782245,0.8187316,0.23426768,-0.5054249,0.13908198,7.872122764587402,-4.879607677459717,-12.972331047058105,-36.31785202026367,1.7437529563903809, -5.551924228668213
412,1903798912,0.81610596,0.23408937,-0.5098101,0.13880868,8.288095474243164,-4.177544593811035,-12.469433784484863,-2.092822551727295,-34.0601806640625, 8.31453800201416
413,1903815579,0.8087708,0.23898678,-0.51815856,0.14243524,10.231657028198242,-2.609189033508301,-12.809417724609375,43.84220886230469,-71.27633666992188, 23.237567901611328
414,1903832246,0.80188036,0.24813461,-0.5227914,0.1486846,15.980325698852539,9.011096000671387,17.357206344604492,79.71257019042969,-48.78482437133789, 16.097803115844727
415,1903848913,0.79773045,0.24537149,-0.53091437,0.14679928,14.779203414916992,1.0289738178253174,2.9338321685791016,-23.429107666015625,-60.00218200683594, 17.264923095703125
416,1903865580,0.79044837,0.24376133,-0.5424332,0.14676191,15.410734176635742,0.43578678369522095,-5.892704963684082,-6.52553653717041,-87.61746215820312, 32.750457763671875
417,1903882247,0.7823474,0.24100648,-0.5562311,0.14302605,16.50396156311035,-1.3195880651474,-2.9754395484924316,-29.450796127319336,-108.5367660522461, 20.880924224853516
418,1903898914,0.7722009,0.2418413,-0.569551,0.14432985,12.305974006652832,-4.513577461242676,-1.5339847803115845,12.987239837646484,-108.93021392822266, 35.455718994140625
419,1903915581,0.7630874,0.24318315,-0.5807945,0.14573316,8.959687232971191,2.7212488651275635,-0.35825154185295105,16.41596794128418,-94.18867492675781, 29.475692749023438
420,1903932248,0.75589556,0.242343,-0.5905139,0.14555444,9.464839935302734,1.938294768333435,-0.4759941101074219,-3.0408775806427,-78.9864730834961, 25.4370174407959
421,1903948915,0.74997914,0.2409826,-0.59877324,0.14467306,10.439640998840332,1.7700691223144531,-0.31156688928604126,-9.265107154846191,-66.87854766845703, 20.20477294921875
422,1903965582,0.74546856,0.23772456,-0.6062451,0.14223757,10.454922676086426,0.3061971366405487,1.0831632614135742,-26.9962215423584,-57.7252082824707, 17.31576156616211
423,1903982249,0.74112225,0.23487493,-0.6132073,0.13981964,10.665016174316406,-0.5099366903305054,0.6954439878463745,-24.597614288330078,-54.818538665771484, 14.714241027832031
424,1903998916,0.7360494,0.23515417,-0.6192965,0.13930753,10.024044036865234,-0.012716635130345821,0.49432051181793213,1.3950421810150146,-53.38023376464844, 10.518123626708984
425,1904015583,0.73012555,0.23871008,-0.6245443,0.1409946,9.826851844787598,0.880058228969574,0.00910063087940216,29.52269744873047,-52.34754943847656, 7.146207809448242
426,1904032250,0.72382593,0.2437569,-0.6292803,0.1437557,9.874541282653809,1.6202534437179565,-0.004462495446205139,42.73059844970703,-51.09135055541992, 5.660770893096924
427,1904048917,0.71759164,0.24822164,-0.634078,0.14626762,9.863367080688477,1.9154521226882935,0.3147044777870178,38.58333206176758,-50.97544479370117, 6.9835896492004395
428,1904065584,0.7115275,0.25141376,-0.6392242,0.1480312,9.867263793945312,1.8035727739334106,0.26036983728408813,28.40036964416504,-51.96919631958008, 9.272266387939453
429,1904082251,0.70561576,0.25350302,-0.64463925,0.1492773,9.692557334899902,1.866815447807312,-0.22104495763778687,20.193767547607422,-52.40639877319336, 11.907322883605957
430,1904098918,0.6999905,0.25440708,-0.6502399,0.14993128,9.663418769836426,1.8068209886550903,-0.3373834788799286,11.129277229309082,-51.86547088623047, 14.328131675720215
431,1904115585,0.69462067,0.25417897,-0.6560296,0.15007138,9.819937705993652,1.4512702226638794,-0.3764010965824127,2.7420151233673096,-51.37886428833008, 16.995798110961914
432,1904132252,0.68935025,0.253247,-0.6619235,0.15006766,9.822731018066406,1.0707792043685913,-0.47187530994415283,-1.5487648248672485,-50.96725082397461, 19.57291030883789
433,1904148919,0.6836899,0.2532553,-0.66746706,0.15138854,10.057782173156738,1.0241851806640625,-0.5584003925323486,9.977964401245117,-49.75844955444336, 21.370512008666992
434,1904165586,0.67782426,0.25363573,-0.6728515,0.15328023,9.870664596557617,0.9965695142745972,-0.7159500122070312,14.87156867980957,-49.36200714111328, 22.288307189941406
435,1904182253,0.6716861,0.25454324,-0.6780489,0.15587111,9.866495132446289,0.7916893362998962,-0.932800829410553,21.23686408996582,-49.10200500488281, 23.07425308227539
436,1904198920,0.6655312,0.25535375,-0.6831634,0.1585918,9.813811302185059,0.7317337989807129,-1.134332299232483,21.513931274414062,-48.480384826660156, 24.003042221069336
437,1904215587,0.659459,0.25596574,-0.6881632,0.16133119,9.660764694213867,0.7132583260536194,-1.3994802236557007,20.675098419189453,-47.33106231689453, 24.732940673828125
438,1904232254,0.65340203,0.25628874,-0.69320166,0.16387248,9.54542350769043,0.8174261450767517,-1.6478588581085205,18.359052658081055,-47.47307205200195, 25.257474899291992
439,1904248921,0.6474714,0.25626883,-0.6982316,0.16607462,9.213761329650879,0.8948718905448914,-1.859239101409912,14.991190910339355,-47.05325698852539, 25.216533660888672
440,1904265588,0.6417191,0.255684,-0.70336354,0.16763958,9.0640287399292,1.2705284357070923,-2.070833921432495,8.9882230758667,-47.13765335083008, 25.076711654663086
441,1904282255,0.6362171,0.25437415,-0.7086202,0.16846307,9.018279075622559,1.4561638832092285,-2.1979150772094727,1.622023582458496,-46.950599670410156, 25.25324249267578
442,1904298922,0.63088137,0.25240448,-0.71401054,0.16873233,9.260279655456543,1.2581017017364502,-2.14426326751709,-4.407261371612549,-46.93619918823242, 26.099077224731445
443,1904315589,0.625597,0.24980189,-0.7195933,0.1685639,9.572216033935547,0.8698225021362305,-2.0450360774993896,-9.611027717590332,-47.55023193359375, 27.594406127929688
444,1904332256,0.6201274,0.24659052,-0.7255611,0.1679203,9.988436698913574,0.22046451270580292,-1.888852834701538,-14.705615997314453,-50.243446350097656, 29.448200225830078
445,1904348923,0.6142143,0.2429408,-0.7320159,0.16695619,10.266501426696777,-0.12277517467737198,-1.6871665716171265,-17.982601165771484,-54.57936096191406, 31.6101016998291
446,1904365590,0.60766906,0.23885043,-0.7390584,0.16577828,10.538731575012207,-0.4883156418800354,-1.708627700805664,-20.536680221557617,-60.107666015625, 34.634483337402344
447,1904382257,0.6004859,0.23428303,-0.7466201,0.16458286,11.021492004394531,-0.3850281834602356,-1.510278582572937,-22.162883758544922,-65.01705932617188, 38.56446838378906
448,1904398924,0.5927314,0.22916843,-0.75467753,0.1631384,11.36158561706543,-0.049229998141527176,-1.7582178115844727,-25.34033966064453,-69.797119140625, 41.79176712036133
449,1904415591,0.58443344,0.22374344,-0.7630235,0.16177936,11.482789039611816,0.3939819931983948,-2.1138105392456055,-25.627628326416016,-73.32865142822266, 44.81957244873047
450,1904432258,0.57512254,0.21874037,-0.7716165,0.16123208,11.67993450164795,0.45294561982154846,-2.25808048248291,-18.388206481933594,-78.8720474243164, 47.38351058959961
451,1904448925,0.5643213,0.21533309,-0.78011674,0.16306984,12.483170509338379,0.6080678105354309,-2.195512056350708,2.9222073554992676,-84.61138153076172, 49.87038040161133
452,1904465592,0.5516765,0.2134028,-0.78871423,0.16746043,13.544804573059082,0.7658483982086182,-1.313663363456726,24.9696044921875,-92.77679443359375, 54.07471466064453
453,1904482259,0.5371314,0.21251397,-0.79749775,0.17414363,15.70621395111084,0.3711862862110138,-0.0581500381231308,43.93095779418945,-101.65950012207031, 59.59718322753906
454,1904498926,0.5206482,0.21140336,-0.80683935,0.1823333,17.920787811279297,0.49393796920776367,1.523012638092041,53.53889846801758,-111.93807220458984, 69.52701568603516
455,1904515593,0.5020053,0.20986019,-0.8170681,0.19065663,18.964200973510742,0.5624723434448242,2.8732426166534424,54.75999450683594,-126.43843841552734, 76.4227294921875
456,1904532260,0.48171085,0.20898463,-0.8270716,0.20058262,19.714868545532227,0.3206273317337036,4.612094879150391,68.7461166381836,-133.59780883789062, 80.07147979736328
457,1904548927,0.46089852,0.20874493,-0.8361281,0.21186928,18.135452270507812,1.9064146280288696,3.9152565002441406,80.63501739501953,-132.44161987304688, 80.34854125976562
458,1904565594,0.44156578,0.2080108,-0.84354264,0.22402689,14.439519882202148,1.986616611480713,0.07196086645126343,84.34204864501953,-116.8597183227539, 81.48753356933594
459,1904582261,0.4236678,0.20563336,-0.85035306,0.23477906,13.536961555480957,3.689988613128662,-5.7463059425354,70.08381652832031,-106.23429870605469, 83.72264862060547
460,1904598928,0.40712145,0.2020243,-0.8568708,0.24333443,11.185128211975098,3.4584107398986816,-4.293454170227051,52.23617935180664,-98.60094451904297, 81.98247528076172
461,1904615595,0.39210412,0.19792387,-0.86369467,0.24721056,9.457667350769043,5.703243255615234,-1.0150623321533203,20.679208755493164,-96.13619232177734, 69.69171905517578
462,1904632262,0.3819402,0.19344528,-0.86968106,0.24567574,6.642536163330078,5.642367839813232,0.6334781050682068,-17.62464714050293,-71.8057861328125, 48.014060974121094
463,1904648929,0.3758889,0.19017732,-0.8734328,0.24424589,6.909006118774414,0.6935673952102661,-2.805077314376831,-15.486926078796387,-43.2810173034668, 31.17531967163086
464,1904665596,0.37417862,0.18978594,-0.8731514,0.24815159,7.018239974975586,2.2489538192749023,1.8193055391311646,25.092397689819336,-4.6474385261535645, 15.138861656188965
465,1904682263,0.37717503,0.19232158,-0.869786,0.25342622,4.985215663909912,3.2975780963897705,4.031116962432861,39.964012145996094,28.299013137817383, -10.93592643737793
466,1904698930,0.3854582,0.19533189,-0.8649633,0.25516003,4.824393272399902,3.776045560836792,3.852508306503296,15.572150230407715,58.14680099487305, -34.06341552734375
467,1904715597,0.39908224,0.19742574,-0.85934407,0.25156507,5.534959316253662,2.8594164848327637,2.176621437072754,-24.31779670715332,86.43460083007812, -53.146339416503906
468,1904732264,0.41746175,0.19923228,-0.8522015,0.24451104,6.767812728881836,1.9094117879867554,0.6746506690979004,-49.3615608215332,114.48506927490234, -71.21550750732422
469,1904748931,0.43960214,0.2010645,-0.8430329,0.23583747,7.485184192657471,1.5415048599243164,-0.1321410834789276,-60.52364730834961,140.05325317382812, -85.10304260253906
470,1904765598,0.46480766,0.20293997,-0.83164394,0.22613798,8.001784324645996,1.3062552213668823,-0.6272591352462769,-66.97766876220703,163.0254669189453, -96.48970794677734
471,1904782265,0.49205008,0.20515393,-0.8179262,0.216324,8.505853652954102,1.0031388998031616,-1.3271369934082031,-65.7733154296875,181.41595458984375, -105.20478057861328
472,1904798932,0.52090144,0.20741029,-0.8019139,0.20634358,9.71633529663086,0.6045551896095276,-1.7862098217010498,-65.4249038696289,197.9239044189453, -111.63755798339844
473,1904815599,0.55061424,0.21039027,-0.7832949,0.1975091,10.782258987426758,-0.13571125268936157,-2.5496106147766113,-54.0477409362793,212.61705017089844, -116.46611785888672
474,1904832266,0.58033335,0.2142885,-0.7622914,0.19028,11.663702011108398,-0.35248294472694397,-3.0447137355804443,-38.70064926147461,222.7608642578125, -118.80025482177734
475,1904848933,0.6095878,0.2188857,-0.73939174,0.18382746,12.386994361877441,-0.2728368639945984,-3.3693361282348633,-27.801105499267578,228.1168670654297, -121.75479125976562
476,1904865600,0.63773996,0.22471043,-0.7148024,0.17846993,12.961836814880371,-1.0998364686965942,-3.6292643547058105,-11.289857864379883,229.77879333496094, -124.8084716796875
477,1904882267,0.66456777,0.23179987,-0.6886705,0.1742197,13.849475860595703,-1.566745400428772,-4.030819416046143,3.8071095943450928,230.34242248535156, -126.76742553710938
478,1904898934,0.6895387,0.2402026,-0.66150665,0.17102332,14.22747802734375,-1.443787932395935,-4.172309875488281,18.4292049407959,226.4852752685547, -127.40962982177734
479,1904915601,0.712659,0.24980156,-0.63349396,0.16853069,14.530094146728516,-1.0418524742126465,-4.34171199798584,28.86333465576172,221.68948364257812, -128.7340545654297
480,1904932268,0.7342833,0.2590767,-0.6053093,0.1652535,14.48051643371582,-1.0456434488296509,-4.655677795410156,26.617063522338867,215.1121368408203, -129.76429748535156
481,1904948935,0.7549052,0.26565248,-0.5779437,0.15977687,14.273101806640625,-0.8124482035636902,-5.046212196350098,4.674047470092773,206.02976989746094, -127.07670593261719
482,1904965602,0.7740335,0.26902154,-0.5525308,0.15234937,13.88650131225586,-2.5694453716278076,-5.998035430908203,-19.156496047973633,189.9971160888672, -119.29517364501953
483,1904982269,0.7908029,0.27008456,-0.529921,0.14446422,13.420666694641113,-3.5166163444519043,-7.429342269897461,-31.753393173217773,167.77906799316406, -105.37743377685547
484,1904998936,0.80496186,0.26868808,-0.5111848,0.13614002,12.368634223937988,-4.6259765625,-9.064085006713867,-45.739105224609375,138.93930053710938, -89.08888244628906
485,1905015603,0.81622523,0.26447842,-0.49752632,0.12765615,10.832690238952637,-5.5286946296691895,-10.115869522094727,-61.28571701049805,103.1202163696289, -68.07283020019531
486,1905032270,0.8236969,0.2593247,-0.48973978,0.12012574,9.52810287475586,-6.084898471832275,-10.98386001586914,-61.59160614013672,59.886260986328125, -45.565574645996094
487,1905048937,0.82698506,0.2546453,-0.48800746,0.11446068,8.71426010131836,-6.530538558959961,-12.152019500732422,-50.176795959472656,14.577677726745605, -22.424531936645508
488,1905065604,0.8260365,0.25121105,-0.49218678,0.11095017,8.141551971435547,-6.902395725250244,-12.798145294189453,-33.1159553527832,-30.323896408081055, -0.7413520216941833
489,1905082271,0.8209513,0.2517322,-0.5003207,0.11113224,9.01539421081543,-5.9390177726745605,-10.739742279052734,5.957456111907959,-63.29087448120117, 16.75570297241211
490,1905098938,0.81264037,0.25662923,-0.5102926,0.11558533,10.343111038208008,-3.094123125076294,-5.682568073272705,49.516937255859375,-80.60816955566406, 31.38407325744629
491,1905115605,0.80721533,0.26243758,-0.5148952,0.12005801,14.139191627502441,11.604303359985352,19.781536102294922,53.8458137512207,-41.11592102050781, 16.47345542907715
492,1905132272,0.8052966,0.25586793,-0.52189046,0.116879016,14.796095848083496,0.4811204671859741,4.362141132354736,-50.218101501464844,-45.73905563354492, 19.33384895324707
493,1905148939,0.7998343,0.2509485,-0.5327594,0.116011314,16.45008659362793,-0.9259604811668396,-5.133334159851074,-29.655820846557617,-77.17301177978516, 35.855918884277344
494,1905165606,0.79289925,0.24624375,-0.5460521,0.111816935,15.517292976379395,1.956451177597046,-2.872257709503174,-40.06912612915039,-101.72697448730469, 22.099510192871094
495,1905182273,0.783496,0.24517931,-0.5597899,0.11250614,13.392415046691895,-5.772054672241211,-2.919980049133301,1.9314720630645752,-107.90048217773438, 37.7037239074707
496,1905198940,0.77390647,0.24654187,-0.57188195,0.11505818,9.208746910095215,2.691291332244873,0.5982539653778076,23.76605987548828,-98.4516830444336, 35.693572998046875
497,1905215607,0.7654034,0.24714182,-0.58258015,0.116963126,9.0345458984375,2.7218315601348877,-0.5793100595474243,16.418222427368164,-87.27165985107422, 32.04495620727539
498,1905232274,0.75825346,0.24629538,-0.59205824,0.11772356,10.007623672485352,3.258774518966675,-0.06145869195461273,2.8966784477233887,-76.2171630859375, 28.675168991088867
499,1905248941,0.7528696,0.24204087,-0.6009874,0.11584138,10.049917221069336,1.9644341468811035,0.6471605896949768,-28.179698944091797,-67.8883285522461, 26.44056510925293
500,1905265608,0.74806666,0.23728843,-0.60932535,0.11320086,10.361349105834961,0.05257858708500862,0.1689685583114624,-34.385704040527344,-63.3067626953125, 23.146194458007812
501,1905282275,0.74317724,0.23425665,-0.616767,0.111406416,10.383077621459961,-0.19406814873218536,0.3613545298576355,-21.15193748474121,-59.02579116821289, 18.8937931060791
502,1905298942,0.73829955,0.23251797,-0.6234507,0.11027238,10.280179977416992,0.2083752453327179,0.15444642305374146,-11.180807113647461,-55.04393005371094, 15.550520896911621
503,1905315609,0.7331371,0.23295853,-0.62926614,0.1107518,10.248516082763672,0.5764057040214539,-0.2227940559387207,7.911245822906494,-50.943668365478516, 13.223987579345703
504,1905332276,0.72766006,0.23562336,-0.6342347,0.11287304,10.058533668518066,1.3536409139633179,-0.2884754240512848,27.373722076416016,-47.112274169921875, 10.755931854248047
505,1905348943,0.7222213,0.23882097,-0.63876754,0.11549214,9.85523796081543,1.4777756929397583,-0.33992964029312134,32.48489761352539,-44.38722229003906, 10.190336227416992
506,1905365610,0.7170026,0.24161944,-0.6431104,0.11805953,9.821139335632324,1.5297733545303345,-0.42082005739212036,30.064733505249023,-42.26079559326172, 11.203649520874023
507,1905382277,0.71207005,0.24373798,-0.6473618,0.12030144,9.787245750427246,1.5326111316680908,-0.33629682660102844,24.871671676635742,-40.54807662963867, 12.226716041564941
508,1905398944,0.70735335,0.24521531,-0.65161157,0.12216779,9.794840812683105,1.5022927522659302,-0.3829231560230255,19.701189041137695,-39.69468307495117, 13.067691802978516
509,1905415611,0.7028438,0.24591571,-0.6559383,0.12362323,9.708975791931152,1.6578847169876099,-0.48477596044540405,13.668572425842285,-39.19877243041992, 14.514681816101074
510,1905432278,0.69840544,0.2460376,-0.6603731,0.12491747,9.618814468383789,1.718706488609314,-0.5188115835189819,9.9352388381958,-39.19602966308594, 16.478057861328125
511,1905448945,0.6938927,0.24574858,-0.6650049,0.1260586,9.495600700378418,1.6949231624603271,-0.46755197644233704,7.226002216339111,-40.40280532836914, 18.01861572265625
512,1905465612,0.6892276,0.2449135,-0.66997683,0.12694694,9.479558944702148,1.5805116891860962,-0.5990478992462158,3.4300858974456787,-42.69337463378906, 20.030086517333984
513,1905482279,0.6844429,0.24330488,-0.6753887,0.12724993,9.464677810668945,1.6777122020721436,-0.7340927124023438,-3.1124706268310547,-45.656036376953125, 21.6782283782959
514,1905498946,0.67951876,0.24082728,-0.681273,0.12698576,9.408356666564941,1.6910189390182495,-0.8231952786445618,-10.012918472290039,-48.72960662841797, 23.972354888916016
515,1905515613,0.67443854,0.2374155,-0.687683,0.12593816,9.314200401306152,1.7118254899978638,-0.941206693649292,-18.24492073059082,-52.41333770751953, 25.71181869506836
516,1905532280,0.6693178,0.23298839,-0.6945199,0.123992674,9.309674263000488,1.4855523109436035,-1.2462124824523926,-27.4986572265625,-55.18385696411133, 27.099756240844727
517,1905548947,0.66408604,0.22792073,-0.70161664,0.12156399,9.554061889648438,1.0660374164581299,-1.1974672079086304,-32.79547882080078,-57.148860931396484, 28.46309471130371
518,1905565614,0.6586436,0.22244708,-0.7089364,0.11881555,9.863200187683105,0.5445095896720886,-1.3076462745666504,-30.752431869506836,-58.650875091552734, 29.098785400390625
519,1905582281,0.6527627,0.21747002,-0.7162632,0.11651888,10.065705299377441,0.2979561686515808,-1.490777850151062,-24.88174057006836,-60.4938850402832, 28.94508171081543
520,1905598948,0.64634365,0.21330649,-0.72356,0.11490499,10.11815357208252,0.20221087336540222,-1.6975842714309692,-16.95284652709961,-62.68891906738281, 28.27998924255371
521,1905615615,0.639464,0.21000022,-0.7307251,0.114141986,10.242992401123047,0.08931083977222443,-1.981126070022583,-6.892470836639404,-63.74653244018555, 27.70215606689453
522,1905632282,0.6322227,0.20773989,-0.7375706,0.1145862,10.116856575012207,0.6151664853096008,-2.086257219314575,4.745146751403809,-63.28360366821289, 27.412256240844727
523,1905648949,0.6247668,0.2060549,-0.7441901,0.11571843,10.184574127197266,0.993785560131073,-2.3381357192993164,10.991934776306152,-62.955841064453125, 27.234155654907227
524,1905665616,0.6171637,0.20469373,-0.7506244,0.117364086,10.082773208618164,0.966364860534668,-2.443457841873169,15.230191230773926,-62.527549743652344, 27.534412384033203
525,1905682283,0.6094005,0.20338663,-0.7569834,0.11934484,10.36461067199707,0.8335115313529968,-2.557528495788574,17.175626754760742,-62.703495025634766, 28.636104583740234
526,1905698950,0.6016682,0.20171784,-0.7632319,0.12159016,10.848721504211426,0.4631921947002411,-2.409055709838867,16.895776748657227,-61.50230407714844, 31.369693756103516
527,1905715617,0.59357995,0.20007335,-0.76949775,0.1245341,11.296487808227539,-0.033690113574266434,-2.5889382362365723,20.45655059814453,-62.61994171142578, 34.503047943115234
528,1905732284,0.584804,0.1988845,-0.775831,0.12859866,11.719561576843262,0.30598360300064087,-2.505568742752075,29.08405303955078,-65.46998596191406, 37.2390022277832
529,1905748951,0.5751427,0.19825129,-0.78228575,0.13393322,12.346719741821289,0.30889105796813965,-2.319516181945801,38.236576080322266,-69.56844329833984, 40.48810577392578
530,1905765618,0.56432784,0.19791234,-0.78905666,0.14055678,13.349528312683105,0.02668256312608719,-1.508077621459961,47.18547821044922,-75.64727783203125, 45.518245697021484
531,1905782285,0.55226976,0.19730112,-0.79634076,0.14803322,14.791452407836914,-0.36484962701797485,-0.27667146921157837,51.0034294128418,-83.07964324951172, 52.41413879394531
532,1905798952,0.53869224,0.19555748,-0.804532,0.15587915,16.334171295166016,-0.6217576861381531,1.0579991340637207,49.665184020996094,-93.32025909423828, 62.771995544433594
533,1905815619,0.523261,0.19323543,-0.81362736,0.16392191,17.212646484375,-0.5531781911849976,2.3456833362579346,48.6569709777832,-106.126220703125, 70.39164733886719
534,1905832286,0.5060302,0.19177398,-0.8228087,0.17361961,17.82175636291504,-0.7256882190704346,3.800356388092041,62.382877349853516,-115.35039520263672, 74.02338409423828
535,1905848953,0.48740494,0.19116274,-0.83157134,0.18543,17.351482391357422,0.6862958669662476,3.6751818656921387,78.55420684814453,-120.03756713867188, 78.17645263671875
536,1905865620,0.4693314,0.18882702,-0.8399113,0.19652832,16.03238296508789,0.3263372480869293,1.433721661567688,68.24401092529297,-114.2677993774414, 84.58104705810547
537,1905882287,0.4510801,0.18505089,-0.8481704,0.20710355,14.963208198547363,4.8623762130737305,-3.899954319000244,60.65580368041992,-113.7843017578125, 91.55223846435547
538,1905898954,0.43414342,0.17843838,-0.85697967,0.21276064,12.822263717651367,5.127992630004883,-2.982602596282959,21.524354934692383,-110.22406005859375, 91.30439758300781
539,1905915621,0.41959047,0.17140016,-0.8648784,0.21576194,10.651171684265137,5.677917957305908,-0.9509649872779846,3.0417613983154297,-96.12918853759766, 81.35211181640625
540,1905932288,0.40698907,0.16399702,-0.8729121,0.21328662,8.550451278686523,6.246386528015137,-0.6502336263656616,-33.04726791381836,-90.87113952636719, 65.05416107177734
541,1905948955,0.39745894,0.15693538,-0.88009775,0.20694825,7.291531562805176,2.8502116203308105,-1.9040589332580566,-57.45942306518555,-74.96111297607422, 46.79526901245117
542,1905965622,0.3911418,0.15238011,-0.88372916,0.20691375,8.951859474182129,0.6271237730979919,-2.231236457824707,-10.853608131408691,-42.59011459350586, 40.4771728515625
543,1905982289,0.38908246,0.15180318,-0.88321894,0.21330054,6.9227375984191895,2.0117862224578857,2.5093932151794434,40.29707717895508,-4.540602684020996, 23.200014114379883
544,1905998956,0.39164612,0.15448207,-0.87956,0.221641,5.192242622375488,4.836831569671631,4.074830532073975,60.664642333984375,29.170955657958984, -1.3732467889785767
545,1906015623,0.39955837,0.15702714,-0.8747778,0.22463566,4.980258941650391,4.650805473327637,2.85185170173645,24.02243423461914,59.01692581176758, -24.24742889404297
546,1906032290,0.41252738,0.15852453,-0.8690347,0.22242212,5.875522613525391,3.0818142890930176,1.8695441484451294,-14.139970779418945,88.02742004394531, -41.05567932128906
547,1906048957,0.43022916,0.15942746,-0.86166894,0.2168275,7.055109977722168,2.0882370471954346,1.012394666671753,-38.700435638427734,118.0969467163086, -56.07087707519531
548,1906065624,0.45195183,0.16076891,-0.8519667,0.20987527,7.56829309463501,2.072615146636963,0.09617271274328232,-46.37051010131836,146.65577697753906, -71.22203063964844
549,1906082291,0.47705328,0.16242346,-0.83994544,0.20132639,8.05122184753418,1.8605173826217651,-0.4852679967880249,-55.139530181884766,171.41241455078125, -85.440673828125
550,1906098958,0.5045953,0.16408391,-0.8257456,0.1913276,8.497764587402344,1.9742358922958374,-1.3435957431793213,-63.204742431640625,191.00791931152344, -96.03112030029297
551,1906115625,0.5340436,0.1655674,-0.80933666,0.1798918,9.474210739135742,1.6291197538375854,-2.069589614868164,-71.2243423461914,208.09912109375, -105.00320434570312
552,1906132292,0.5645803,0.16789588,-0.7903006,0.16878007,10.814203262329102,0.4089583456516266,-2.925325632095337,-64.30928039550781,223.1256103515625, -112.84758758544922
553,1906148959,0.5953506,0.1712446,-0.768845,0.15846822,11.50052261352539,0.2959212064743042,-3.358631134033203,-53.46941375732422,233.53675842285156, -118.35736083984375
554,1906165626,0.62584096,0.17532541,-0.74539196,0.1482452,12.227384567260742,0.31236815452575684,-3.552189588546753,-47.50416946411133,239.56015014648438, -123.91997528076172
555,1906182293,0.65549725,0.18066137,-0.72007424,0.13849051,13.048620223999023,-0.7439635396003723,-3.802076816558838,-36.803497314453125,242.6248779296875, -129.74696350097656
556,1906198960,0.6837881,0.18789223,-0.69289076,0.13051689,13.82685661315918,-1.8683167695999146,-3.917085647583008,-15.978666305541992,244.7236328125, -132.14364624023438
557,1906215627,0.7102059,0.19743109,-0.6641119,0.12484245,14.474031448364258,-2.2571680545806885,-4.186741352081299,9.671501159667969,244.25794982910156, -132.7494354248047
558,1906232294,0.7347916,0.20871274,-0.63410395,0.12014316,15.12012004852295,-1.5745115280151367,-4.755468845367432,26.169517517089844,241.796875, -136.09066772460938
559,1906248961,0.75753754,0.22006373,-0.60363114,0.115499415,14.89891242980957,-1.3160382509231567,-5.372800827026367,29.774560928344727,236.23629760742188, -135.30630493164062
560,1906265628,0.7786615,0.22781809,-0.57455176,0.10806173,14.870800018310547,-1.904248833656311,-6.597215175628662,0.7720763683319092,220.9723663330078, -131.58425903320312
561,1906282295,0.7975616,0.23211221,-0.5478135,0.09960816,14.699647903442383,-3.50030779838562,-7.765461444854736,-20.043134689331055,200.7480926513672, -118.09730529785156
562,1906298962,0.81328785,0.23432644,-0.5246191,0.09181869,13.373997688293457,-4.678575038909912,-9.411273956298828,-26.324800491333008,171.97459411621094, -98.87571716308594
563,1906315629,0.82527983,0.23484233,-0.5065059,0.08494632,11.63809585571289,-5.742693901062012,-10.99669075012207,-29.71930503845215,132.7900848388672, -77.17155456542969
564,1906332296,0.8326908,0.23536691,-0.4948313,0.079828724,9.907559394836426,-5.768592357635498,-12.18116569519043,-19.93692970275879,83.29194641113281, -54.27227783203125
565,1906348963,0.8356386,0.23532243,-0.4904716,0.07596724,8.864463806152344,-5.694112300872803,-13.303360939025879,-15.732328414916992,28.741296768188477, -30.951183319091797
566,1906365630,0.8343252,0.23445854,-0.4934568,0.0737099,9.029291152954102,-5.73219108581543,-13.411720275878906,-11.996611595153809,-24.633132934570312, -4.948361396789551
567,1906382297,0.828602,0.23578975,-0.5022699,0.074489474,9.375950813293457,-6.161554336547852,-12.033770561218262,15.029035568237305,-69.07649993896484, 16.569488525390625
568,1906398964,0.8197656,0.24022315,-0.5137761,0.07945509,11.30257511138916,-1.1256269216537476,-4.813673973083496,50.810245513916016,-89.83165740966797, 35.57188034057617
569,1906415631,0.8134997,0.24602538,-0.5201889,0.08423386,15.13416862487793,11.356301307678223,19.001928329467773,56.3897705078125,-53.032135009765625, 19.814395904541016
570,1906432298,0.80979365,0.24064897,-0.5286465,0.08280744,13.341487884521484,-1.6554925441741943,-0.06905323266983032,-33.81464385986328,-59.51155471801758, 27.146692276000977
571,1906448965,0.80255264,0.23861317,-0.5402591,0.08423155,17.147146224975586,1.9992197751998901,-3.607546329498291,-0.794428825378418,-87.0804214477539, 38.06376647949219
572,1906465632,0.795023,0.23262498,-0.5543659,0.0806504,15.470708847045898,-1.5322086811065674,-3.867222547531128,-42.19033432006836,-107.75901794433594, 29.368989944458008
573,1906482299,0.78556424,0.23153701,-0.56783444,0.08273863,12.036805152893066,-4.433411598205566,-1.1740647554397583,9.635083198547363,-105.20124816894531, 41.68574905395508
574,1906498966,0.7762265,0.23229189,-0.5798118,0.08563351,9.411808967590332,1.6975451707839966,-0.20500409603118896,23.400636672973633,-96.41971588134766, 36.33562469482422
575,1906515633,0.7678901,0.23370917,-0.5897803,0.08880398,9.908537864685059,1.783482551574707,-0.8732807636260986,27.611740112304688,-81.6628646850586, 31.37204933166504
576,1906532300,0.76081574,0.23410344,-0.598413,0.090877816,10.274638175964355,2.093236207962036,-0.21517807245254517,16.544172286987305,-70.63008880615234, 26.81884765625
577,1906548967,0.75509644,0.23271953,-0.60607946,0.09132749,10.340316772460938,1.4228291511535645,0.3799171447753906,-1.0213091373443604,-61.51030731201172, 23.249122619628906
578,1906565634,0.7496565,0.23222062,-0.61287147,0.09208345,10.542787551879883,-0.2646138370037079,0.2671792507171631,4.951642990112305,-55.887001037597656, 19.58311653137207
579,1906582301,0.7440427,0.23368791,-0.61886936,0.093770854,10.321309089660645,0.12358341366052628,0.4514520466327667,19.792516708374023,-52.30000686645508, 14.926265716552734
580,1906598968,0.73840594,0.23646183,-0.6241654,0.09623881,10.112327575683594,1.2036412954330444,-0.029045410454273224,30.287986755371094,-48.417755126953125, 12.234109878540039
581,1906615635,0.73310477,0.23916513,-0.62899,0.098645486,9.865655899047852,2.1300532817840576,-0.1882280856370926,29.431217193603516,-44.654788970947266, 11.23658275604248
582,1906632302,0.7281811,0.241447,-0.6334733,0.1008417,9.629730224609375,2.343925714492798,-0.21908989548683167,26.005001068115234,-41.37957763671875, 11.191421508789062
583,1906648969,0.7236371,0.2427378,-0.637923,0.10239112,9.46493911743164,2.6176109313964844,-0.19006341695785522,17.61767578125,-39.96183776855469, 11.965795516967773
584,1906665636,0.7195293,0.24243285,-0.6425736,0.10298086,9.374658584594727,2.953554391860962,-0.20464080572128296,4.599038600921631,-39.54330062866211, 14.238875389099121
585,1906682303,0.7156324,0.24119985,-0.6473605,0.10304906,9.386301040649414,2.4480578899383545,-0.3608279228210449,-2.7439188957214355,-39.513145446777344, 15.863142013549805
586,1906698970,0.7118982,0.23922738,-0.65226763,0.10256823,9.342720031738281,2.4714488983154297,-0.20756477117538452,-9.18012809753418,-39.78041458129883, 16.559432983398438
587,1906715637,0.708389,0.23607068,-0.65743446,0.101180814,9.2318696975708,2.533334732055664,-0.3117389678955078,-19.592851638793945,-40.71421813964844, 17.72606658935547
588,1906732304,0.70495975,0.23166306,-0.6630054,0.09894303,9.199919700622559,2.1384613513946533,-0.4913681447505951,-29.938386917114258,-42.84544372558594, 19.866971969604492
589,1906748971,0.70133746,0.22653879,-0.66898334,0.09627698,9.2972993850708,1.8475574254989624,-0.6504167914390564,-35.330467224121094,-45.905738830566406, 21.86241912841797
590,1906765638,0.697457,0.2205698,-0.6754717,0.09296403,9.33779525756836,1.1709353923797607,-1.0111370086669922,-42.31237030029297,-50.015132904052734, 23.61768913269043
591,1906782305,0.69306844,0.21440661,-0.6823523,0.08990555,9.974989891052246,0.025760427117347717,-0.9275005459785461,-41.53938674926758,-53.75395202636719, 26.67500114440918
592,1906798972,0.68810135,0.20872632,-0.6894427,0.08729542,10.126482963562012,-0.1053808405995369,-0.7885662317276001,-36.409332275390625,-57.11573791503906, 27.21399688720703
593,1906815639,0.6827145,0.20347998,-0.69661045,0.08504447,10.045743942260742,0.44213593006134033,-0.9565628170967102,-32.095115661621094,-59.23111343383789, 27.2191162109375
594,1906832306,0.67707396,0.19853395,-0.70374674,0.08305201,9.818740844726562,0.9712656736373901,-1.4114593267440796,-29.071880340576172,-60.12641525268555, 27.10399055480957
595,1906848973,0.6712883,0.19394857,-0.7107186,0.08146826,9.68455982208252,1.0395876169204712,-1.552446722984314,-25.12125587463379,-59.721534729003906, 27.132165908813477
596,1906865640,0.6652957,0.18998207,-0.7175038,0.080490194,9.668798446655273,1.1402409076690674,-1.6005187034606934,-18.922252655029297,-59.42115783691406, 26.782386779785156
597,1906882307,0.65900064,0.18641104,-0.724292,0.07982447,9.706839561462402,1.2534735202789307,-1.5608329772949219,-15.176538467407227,-60.74948501586914, 26.444303512573242
598,1906898974,0.65234905,0.1830948,-0.7311762,0.07937439,9.791794776916504,0.7344489693641663,-1.878379464149475,-12.540509223937988,-62.83882141113281, 26.484905242919922
599,1906915641,0.6453916,0.18036845,-0.73798215,0.079505116,9.907063484191895,0.5172942280769348,-1.9672596454620361,-6.5454230308532715,-63.62883377075195, 26.200075149536133
600,1906932308,0.6382044,0.17831284,-0.7445961,0.08048764,9.962039947509766,0.6284886002540588,-2.006004571914673,1.144247055053711,-63.266910552978516, 26.468046188354492
601,1906948975,0.6307252,0.1765433,-0.7512098,0.08187712,10.057498931884766,1.0038094520568848,-2.086174249649048,4.843284606933594,-64.43601989746094, 26.955354690551758
602,1906965642,0.6227989,0.17503776,-0.7579325,0.08380578,10.285534858703613,1.012939453125,-2.3003530502319336,9.25719928741455,-66.72798156738281, 28.32270050048828
603,1906982309,0.6142902,0.17375223,-0.76485205,0.08637773,10.628947257995605,1.2852617502212524,-2.219209909439087,14.142743110656738,-69.97589111328125, 30.51163101196289
604,1906998976,0.6051751,0.17250256,-0.7720137,0.089459896,11.3019380569458,1.065539002418518,-2.0571634769439697,17.56247901916504,-73.61982727050781, 33.13903045654297
605,1907015643,0.59512156,0.17139482,-0.779611,0.09307386,11.818656921386719,0.7466041445732117,-2.099747896194458,21.825519561767578,-79.89692687988281, 35.70133590698242
606,1907032310,0.58375895,0.17089859,-0.78769594,0.097756244,12.317091941833496,0.3760616183280945,-2.045827627182007,31.289100646972656,-88.07222747802734, 38.213497161865234
607,1907048977,0.57082665,0.17109099,-0.7963316,0.10364773,13.407829284667969,0.3664690852165222,-1.5427900552749634,42.07851028442383,-97.8617935180664, 41.041595458984375
608,1907065644,0.55601037,0.1714418,-0.8057351,0.1106943,15.683494567871094,-0.12833011150360107,-0.33892759680747986,50.69633865356445,-109.99580383300781, 46.95795440673828
609,1907082311,0.5394257,0.17100288,-0.8159414,0.118404336,18.246562957763672,-0.4070960283279419,1.41941499710083,52.82758331298828,-121.55528259277344, 56.16398620605469
610,1907098978,0.5211815,0.16984375,-0.8266437,0.12722106,19.998685836791992,0.005045928061008453,2.7895872592926025,57.910797119140625,-130.9307098388672, 66.24989318847656
611,1907115645,0.50159967,0.1695682,-0.8370494,0.13782036,20.255611419677734,1.2758369445800781,4.35896110534668,73.02867126464844,-136.3038787841797, 68.45829772949219
612,1907132312,0.4814732,0.17095438,-0.84620297,0.15132889,18.07149314880371,1.7787562608718872,3.6971724033355713,97.32752990722656,-133.46705627441406, 68.0266342163086
613,1907148979,0.46186307,0.17208035,-0.85439134,0.16458455,14.8765869140625,1.8386180400848389,-0.01726764440536499,95.39346313476562,-127.43671417236328, 67.08525848388672
614,1907165646,0.44353738,0.17120028,-0.8617976,0.17683901,13.579911231994629,2.334494113922119,-4.253929138183594,82.51073455810547,-116.40485382080078, 73.36577606201172
615,1907182313,0.4281739,0.16938028,-0.8673908,0.18871294,11.13339900970459,3.2966129779815674,-3.3637261390686035,76.12236022949219,-92.6594009399414, 72.09559631347656
616,1907198980,0.41337812,0.16667321,-0.87328506,0.19675815,9.122782707214355,5.750334739685059,-2.017524242401123,49.648590087890625,-93.49678039550781, 65.79057312011719
617,1907215647,0.40247124,0.16245095,-0.87902033,0.19736138,6.851390838623047,5.750200271606445,0.42384350299835205,-3.542773723602295,-76.20471954345703, 48.36921310424805
618,1907232314,0.39639163,0.1596698,-0.8821022,0.19818366,7.214119911193848,2.1371958255767822,-1.9229344129562378,0.01586081087589264,-41.44176483154297, 30.817970275878906
619,1907248981,0.39566842,0.16069062,-0.88074267,0.20474142,6.647454738616943,4.152413368225098,4.63722562789917,45.35120391845703,4.241822242736816, 11.25341796875
620,1907265648,0.4004662,0.16481926,-0.8761286,0.2118067,5.051400184631348,3.607668399810791,5.562373161315918,55.37577438354492,42.6356086730957, -17.490476608276367
621,1907282315,0.41054058,0.16963708,-0.8694064,0.21636532,4.9679741859436035,3.190218210220337,3.9439566135406494,39.27256393432617,76.31044006347656, -38.564449310302734
622,1907298982,0.4259941,0.17344898,-0.86125845,0.21605574,5.862637519836426,2.1623728275299072,2.272386074066162,3.1870720386505127,108.25428771972656, -55.914608001708984
623,1907315649,0.44615296,0.17709894,-0.85108584,0.21269304,7.129489421844482,1.1776974201202393,1.0388200283050537,-17.967334747314453,138.60643005371094, -73.27471160888672
624,1907332316,0.47005865,0.18106453,-0.838531,0.20767342,7.548215866088867,1.3119961023330688,0.19213849306106567,-27.77467918395996,165.3262939453125, -88.56876373291016
625,1907348983,0.49691254,0.18484133,-0.8237575,0.2008402,7.876038074493408,1.1115368604660034,-0.795272171497345,-39.343177795410156,187.48297119140625, -100.29997253417969
626,1907365650,0.5252794,0.18875684,-0.80702245,0.19279274,8.712055206298828,1.0779333114624023,-1.8135371208190918,-44.959564208984375,201.0068817138672, -109.80889892578125
627,1907382317,0.55470425,0.19308838,-0.78806865,0.18430816,10.144886016845703,-0.02494150772690773,-2.7811532020568848,-44.312259674072266,213.77215576171875, -117.97272491455078
628,1907398984,0.58417195,0.19878834,-0.7667796,0.17685303,11.129207611083984,-0.307676762342453,-3.2018792629241943,-30.61255645751953,222.55511474609375, -124.62213134765625
629,1907415651,0.61319995,0.20524676,-0.7437438,0.16943003,11.838970184326172,-0.29392093420028687,-3.4530718326568604,-24.673812866210938,226.39739990234375, -130.35557556152344
630,1907432318,0.64153796,0.21220134,-0.7191974,0.16172981,12.509847640991211,-1.0122411251068115,-3.4015729427337646,-21.269258499145508,228.3003387451172, -135.40408325195312
631,1907448985,0.6689832,0.21982048,-0.69295406,0.15477946,13.312372207641602,-2.820568561553955,-3.3962807655334473,-11.444377899169922,231.76840209960938, -136.8928985595703
632,1907465652,0.6944859,0.23002018,-0.66461,0.1519059,14.134458541870117,-4.498450756072998,-3.416425943374634,25.021228790283203,235.6444854736328, -131.59478759765625
633,1907482319,0.71825266,0.2411265,-0.63501525,0.15075976,14.194524765014648,-2.9330062866210938,-3.8461289405822754,41.293983459472656,235.5356903076172, -127.7300033569336
634,1907498986,0.7405311,0.2510553,-0.60534585,0.14880456,14.231270790100098,-2.3844501972198486,-4.424921989440918,34.48479461669922,229.36363220214844, -125.2260971069336
635,1907515653,0.7611164,0.25854746,-0.5768412,0.1452956,14.745580673217773,-2.0091569423675537,-4.862008094787598,17.33294677734375,216.28863525390625, -119.31366729736328
636,1907532320,0.7804646,0.26121175,-0.5506346,0.13945132,14.44858455657959,-1.9933881759643555,-6.096662998199463,-17.30295181274414,200.13291931152344, -107.13245391845703
637,1907548987,0.79854834,0.25798124,-0.52783084,0.13100511,13.730748176574707,-2.9203765392303467,-7.695427894592285,-59.795806884765625,178.1947021484375, -91.52912902832031
638,1907565654,0.81362706,0.25259015,-0.5091314,0.122459,12.452404975891113,-4.616309642791748,-9.539738655090332,-70.40026092529297,146.6787567138672, -74.33738708496094
639,1907582321,0.8245919,0.24743602,-0.49552616,0.11523448,10.943406105041504,-5.39647912979126,-10.760269165039062,-61.60340118408203,106.05750274658203, -55.566280364990234
640,1907598988,0.8309845,0.24410231,-0.48759168,0.110158525,9.585763931274414,-4.948153972625732,-11.504755020141602,-40.68971252441406,60.738460540771484, -36.42349624633789
641,1907615655,0.83344626,0.24103469,-0.48580438,0.10613809,8.810336112976074,-4.094537258148193,-11.931965827941895,-33.71055603027344,14.210951805114746, -18.086322784423828
642,1907632322,0.83237594,0.2381181,-0.48966548,0.10334158,8.596125602722168,-3.692918539047241,-11.016396522521973,-27.05486297607422,-27.834930419921875, 0.2808639705181122
643,1907648989,0.82763946,0.23781413,-0.49779767,0.103230074,9.591968536376953,-3.3355653285980225,-9.319502830505371,-0.1256193071603775,-61.897586822509766, 16.373714447021484
644,1907665656,0.8195642,0.24100435,-0.5088432,0.10635693,10.546080589294434,-0.6021114587783813,-6.320275783538818,34.2091178894043,-86.92832946777344, 29.894922256469727
645,1907682323,0.8131262,0.24693896,-0.5154189,0.11041668,14.048713684082031,8.96181869506836,15.513856887817383,53.465667724609375,-56.35464096069336, 16.88766098022461
646,1907698990,0.80969924,0.2434351,-0.5227209,0.10904611,13.799626350402832,-1.0209957361221313,3.7239162921905518,-24.190622329711914,-51.95818328857422, 18.99403953552246
647,1907715657,0.8024644,0.24295785,-0.5334651,0.11153132,16.373472213745117,-3.5492870807647705,-4.021083831787109,10.32636547088623,-80.6178207397461, 38.141597747802734
648,1907732324,0.793962,0.2413747,-0.5469833,0.11033295,16.055973052978516,0.6662062406539917,-1.624732494354248,-9.303938865661621,-105.75560760498047, 27.375568389892578
649,1907748991,0.7835135,0.24361445,-0.5602063,0.11370702,12.576342582702637,-6.564431190490723,-0.5580573081970215,32.195369720458984,-106.6978759765625, 38.90019607543945
650,1907765658,0.7734916,0.24697848,-0.5716864,0.11785004,9.122693061828613,2.7824134826660156,0.09033146500587463,41.87250518798828,-95.22034454345703, 35.319400787353516
651,1907782325,0.7650555,0.2491991,-0.5814194,0.12059501,8.576404571533203,3.492730140686035,-0.8605362772941589,29.00005531311035,-81.13894653320312, 28.135128021240234
652,1907798992,0.7580276,0.25008962,-0.5898876,0.12199761,9.692910194396973,3.7795603275299072,-0.5170931816101074,15.250931739807129,-70.03661346435547, 23.082847595214844
653,1907815659,0.7525356,0.24796186,-0.59788686,0.12139997,10.065157890319824,2.6292214393615723,0.3972325325012207,-10.856472969055176,-62.25442886352539, 22.839580535888672
654,1907832326,0.74772996,0.24470054,-0.6055144,0.11989855,10.118532180786133,1.269538164138794,0.2536524534225464,-21.305208206176758,-58.097999572753906, 21.640901565551758
655,1907848993,0.7430065,0.2419623,-0.612643,0.118600324,9.88084888458252,0.8047137260437012,0.23264023661613464,-17.501991271972656,-55.27350616455078, 19.606338500976562
656,1907865660,0.7381883,0.24012388,-0.61929804,0.11785635,9.959220886230469,1.0818532705307007,0.04262271523475647,-10.03099536895752,-53.061527252197266, 17.935041427612305
657,1907882327,0.7335148,0.23853709,-0.6255832,0.11706192,9.724993705749512,1.9630227088928223,-0.008289892226457596,-8.913887023925781,-50.851131439208984, 15.880606651306152
658,1907898994,0.72910017,0.23627812,-0.63183045,0.115661435,9.594419479370117,2.822906494140625,-0.05369236320257187,-15.309946060180664,-49.99712371826172, 15.461772918701172
659,1907915661,0.72538006,0.23204221,-0.638179,0.11273549,9.091863632202148,3.4764208793640137,-0.13882938027381897,-33.06172180175781,-48.391292572021484, 16.051219940185547
660,1907932328,0.72225547,0.22566833,-0.64469624,0.108576916,9.471990585327148,2.192072868347168,-0.5286610126495361,-50.2184944152832,-46.923248291015625, 19.147085189819336
661,1907948995,0.7190876,0.21832359,-0.65145665,0.10418023,9.967884063720703,0.906966507434845,-0.19622763991355896,-56.211483001708984,-47.95415115356445, 22.715526580810547
662,1907965662,0.7156528,0.21014215,-0.65866065,0.09924164,10.038368225097656,0.9332773089408875,0.11043137311935425,-62.692020416259766,-51.54866409301758, 24.659927368164062
663,1907982329,0.7119458,0.20137797,-0.66614664,0.09397021,9.90596866607666,0.45782721042633057,-0.32575035095214844,-66.86344146728516,-54.250572204589844, 26.277095794677734
664,1907998996,0.7077253,0.19276103,-0.6738426,0.08891476,9.834037780761719,0.3549022078514099,-0.5971401929855347,-64.57584381103516,-57.42015838623047, 27.29937171936035
665,1908015663,0.7030789,0.1845728,-0.6815437,0.08433815,9.809463500976562,0.38273492455482483,-0.9893108010292053,-59.70730972290039,-59.0429573059082, 27.926851272583008
666,1908032330,0.6983274,0.17658429,-0.68902504,0.080017254,9.66705322265625,0.5700228810310364,-1.1387866735458374,-57.280418395996094,-58.25898742675781, 28.027070999145508
667,1908048997,0.6936157,0.16876334,-0.6961718,0.07591204,9.770060539245605,0.34516310691833496,-1.359474539756775,-55.31439208984375,-56.29458999633789, 27.863161087036133
668,1908065664,0.68876576,0.1619042,-0.70295197,0.07244983,9.710819244384766,0.3346336781978607,-1.4319186210632324,-47.29446792602539,-54.964237213134766, 25.990127563476562
669,1908082331,0.6836265,0.15647674,-0.709416,0.07000418,9.784234046936035,0.09743207693099976,-1.5675007104873657,-35.118377685546875,-54.455894470214844, 23.69267463684082
670,1908098998,0.67820287,0.15293455,-0.71545583,0.0691132,9.774971008300781,-0.2641085386276245,-1.6474164724349976,-18.16133689880371,-53.09440612792969, 21.491779327392578
671,1908115665,0.6726536,0.1507186,-0.7211203,0.069340736,9.754189491271973,0.5674311518669128,-1.356575608253479,-6.162750720977783,-51.43236541748047, 19.84500503540039
672,1908132332,0.6671265,0.14904217,-0.72650707,0.070126556,9.680182456970215,0.9634038209915161,-1.524881362915039,-0.7862921953201294,-49.74356460571289, 19.462499618530273
673,1908148999,0.66133416,0.14763018,-0.73196447,0.0712182,9.684880256652832,0.8391568064689636,-1.7351009845733643,2.196702480316162,-51.23444747924805, 19.760190963745117
674,1908165666,0.65519094,0.1466368,-0.7375223,0.07269791,9.839309692382812,0.558560848236084,-1.6686980724334717,6.364425182342529,-53.29500198364258, 19.704517364501953
675,1908182333,0.6486819,0.14608955,-0.7431684,0.074645214,9.964987754821777,0.16519497334957123,-1.7967134714126587,11.074155807495117,-55.33208084106445, 19.828109741210938
676,1908199000,0.64180493,0.14593668,-0.7488979,0.07708721,10.039422035217285,-0.03663567826151848,-1.9410755634307861,15.690206527709961,-57.32183837890625, 20.292524337768555
677,1908215667,0.6345097,0.14607911,-0.7547669,0.07991863,10.133100509643555,0.36979058384895325,-2.0453813076019287,19.34621810913086,-59.891387939453125, 20.849205017089844
678,1908232334,0.626756,0.1462046,-0.7608794,0.082856804,10.186302185058594,0.943399965763092,-2.2619378566741943,20.156253814697266,-63.25221252441406, 21.904273986816406
679,1908249001,0.61860234,0.14617842,-0.76718765,0.085951515,10.521018028259277,0.8712664246559143,-2.4329652786254883,20.617694854736328,-65.97943878173828, 23.812501907348633
680,1908265668,0.6099084,0.1465742,-0.77358335,0.089990616,10.899615287780762,0.779265820980072,-2.43393874168396,27.891496658325195,-68.53693389892578, 26.024892807006836
681,1908282335,0.6004097,0.14728111,-0.7802393,0.095103174,11.659698486328125,0.4239795506000519,-2.21848726272583,35.56188201904297,-73.06095123291016, 29.644004821777344
682,1908299002,0.5898649,0.1483957,-0.7872638,0.10126853,12.50316333770752,0.45284342765808105,-2.1226253509521484,43.71617126464844,-79.44560241699219, 32.86606216430664
683,1908315669,0.5780032,0.14998305,-0.7947363,0.10868926,13.793128967285156,0.20445670187473297,-1.6744426488876343,53.467071533203125,-87.5008773803711, 36.780113220214844
684,1908332336,0.564709,0.15102486,-0.8028875,0.11691353,15.545543670654297,-0.07967547327280045,-0.9184427857398987,56.665653228759766,-96.86993408203125, 44.731300354003906
685,1908349003,0.5497052,0.15121096,-0.81186205,0.12586118,16.685932159423828,-0.432958722114563,0.20267945528030396,58.45377731323242,-108.17149353027344, 54.50160598754883
686,1908365670,0.5328099,0.1506087,-0.821661,0.1352979,18.021377563476562,-0.5059337615966797,1.5780900716781616,59.45826721191406,-120.79078674316406, 63.25651550292969
687,1908382337,0.51438165,0.15058398,-0.83143896,0.14644712,19.024578094482422,-0.49433258175849915,2.4755144119262695,72.85258483886719,-128.31053161621094, 67.69417572021484
688,1908399004,0.4952151,0.15180743,-0.8402707,0.16019773,18.610593795776367,0.12368835508823395,3.722796678543091,93.84920501708984,-127.9435043334961, 69.55701446533203
689,1908415671,0.4787689,0.15129039,-0.84724575,0.17340052,16.834930419921875,0.2054155170917511,5.364089012145996,83.95216369628906,-104.76897430419922, 72.86750030517578
690,1908432338,0.46406937,0.15089275,-0.85177094,0.19068097,12.265260696411133,1.638534426689148,-1.8271279335021973,109.19029998779297,-82.64991760253906, 81.03176879882812
691,1908449005,0.44767904,0.15177707,-0.8566522,0.20662981,11.221220016479492,5.100261688232422,-8.17414665222168,106.78385925292969,-96.82051086425781, 71.9399185180664
692,1908465672,0.43069,0.15016648,-0.8636423,0.21466221,10.67785358428955,4.3882246017456055,-4.828886985778809,50.17057800292969,-111.52153015136719, 65.43531036376953
