PacketCounter,SampleTimeFine,Quat_W,Quat_X,Quat_Y,Quat_Z,Acc_X,Acc_Y,Acc_Z,Gyr_X,Gyr_Y,Gyr_Z 
2,1891963973,0.6630007,0.051886313,-0.73694295,0.12105044,9.836081504821777,-1.3281134366989136,-0.7692183256149292,-3.798299789428711,-0.3810274004936218, 0.13054154813289642
3,1891980640,0.6635848,0.049695276,-0.7363512,0.122362316,9.8779878616333,-1.405481219291687,-0.7188271880149841,-3.251673698425293,-0.8021770715713501, 0.44533443450927734
4,1891997307,0.6641844,0.047593836,-0.73570967,0.12379549,9.772931098937988,-1.4893159866333008,-0.6158832311630249,-2.0059733390808105,-1.5208436250686646, 0.44144126772880554
5,1892013974,0.6647934,0.04572333,-0.73500663,0.12539667,9.770303726196289,-1.67987060546875,-0.5789667367935181,0.20311512053012848,-2.121973752975464, 0.8265794515609741
6,1892030641,0.66524994,0.04409616,-0.7343654,0.12730063,9.766189575195312,-1.4856005907058716,-0.6660532355308533,1.067415714263916,-2.5516395568847656, 0.5983959436416626
7,1892047308,0.66548675,0.04292278,-0.7339735,0.128718,9.80429458618164,-1.2432336807250977,-0.7806378602981567,0.7267923951148987,-2.966501235961914, 0.3763465881347656
8,1892063975,0.66547793,0.042642634,-0.7337967,0.1298593,9.763860702514648,-1.130629539489746,-0.8812943696975708,1.1853493452072144,-2.993279457092285, 0.3324848711490631
9,1892080642,0.6653413,0.042490385,-0.73383784,0.13037582,9.772912979125977,-1.0636134147644043,-0.8947058320045471,1.1332530975341797,-2.856776714324951, 0.6210247874259949
10,1892097309,0.66505957,0.04270473,-0.73400766,0.13078731,9.780902862548828,-1.0876718759536743,-0.856652557849884,1.0705915689468384,-2.9516587257385254, 1.118679404258728
11,1892113976,0.66479176,0.042727817,-0.7342403,0.13083397,9.800236701965332,-1.2227360010147095,-0.8167200684547424,0.7150744795799255,-2.8437652587890625, 1.5340150594711304
12,1892130643,0.66452765,0.042623974,-0.73449934,0.13075526,9.835065841674805,-1.2406312227249146,-0.7692539691925049,0.4848291873931885,-2.867264747619629, 1.6898554563522339
13,1892147310,0.6642522,0.042551156,-0.7347597,0.13071625,9.815386772155762,-1.2711580991744995,-0.7676788568496704,0.04934926703572273,-2.958625078201294, 1.813014030456543
14,1892163977,0.6639404,0.04266531,-0.7350076,0.13086991,9.753713607788086,-1.2864620685577393,-0.819853663444519,0.5503849387168884,-3.1038241386413574, 1.7807295322418213
15,1892180644,0.6635926,0.042947453,-0.7352499,0.13118,9.70444107055664,-1.2644122838974,-0.8506178855895996,1.0981125831604004,-3.1431779861450195, 1.6134529113769531
16,1892197311,0.66332805,0.042861298,-0.7354879,0.13121249,9.67126178741455,-1.2771296501159668,-0.8793744444847107,1.089340090751648,-2.755964756011963, 1.7874910831451416
17,1892213978,0.6630261,0.043089934,-0.73568213,0.13157424,9.715790748596191,-1.2457051277160645,-0.8632709980010986,1.0269089937210083,-2.3534226417541504, 1.8991239070892334
18,1892230645,0.66280216,0.043075196,-0.7358483,0.13177775,9.705592155456543,-1.2653793096542358,-0.9102187752723694,1.036616325378418,-1.871532678604126, 2.153406858444214
19,1892247312,0.66258454,0.04301557,-0.7360146,0.13196196,9.701173782348633,-1.2323857545852661,-0.8597334623336792,0.4943571388721466,-1.668424129486084, 2.2642714977264404
20,1892263979,0.6623388,0.043038316,-0.73618585,0.13223383,9.673821449279785,-1.3183552026748657,-0.7988696694374084,-0.0631353110074997,-1.6928586959838867, 2.4057178497314453
21,1892280646,0.662093,0.043063343,-0.73634624,0.13256283,9.760285377502441,-1.3090429306030273,-0.7526490688323975,0.43593457341194153,-1.739601731300354, 2.5249574184417725
22,1892297313,0.6618469,0.042970397,-0.7365284,0.13280965,9.836437225341797,-1.2597928047180176,-0.6984230279922485,0.5932220816612244,-2.04656982421875, 2.5947775840759277
23,1892313980,0.6615431,0.042938516,-0.7367457,0.13312829,9.856584548950195,-1.1765613555908203,-0.7196552157402039,0.5772654414176941,-2.6104719638824463, 2.7490432262420654
24,1892330647,0.6612307,0.042876493,-0.7369828,0.1333865,9.92873764038086,-1.1128971576690674,-0.7776234149932861,0.16574621200561523,-2.8534348011016846, 2.7324464321136475
25,1892347314,0.6609321,0.04278651,-0.7372109,0.13363506,9.914229393005371,-1.145920991897583,-0.7863836884498596,0.10323840379714966,-2.781334638595581, 2.944007396697998
26,1892363981,0.6605774,0.043069605,-0.7374034,0.13423412,9.902283668518066,-1.2403968572616577,-0.7507821917533875,0.513694703578949,-2.7310051918029785, 3.0564467906951904
27,1892380648,0.6602757,0.04314115,-0.7376036,0.13459527,9.817573547363281,-1.3647000789642334,-0.7315171957015991,1.1800217628479004,-2.8331356048583984, 2.732804298400879
28,1892397315,0.65993714,0.043319877,-0.7378159,0.13503377,9.71369743347168,-1.4131481647491455,-0.7772946953773499,1.395603895187378,-3.1098806858062744, 2.5414390563964844
29,1892413982,0.6596411,0.04350686,-0.7379847,0.1354968,9.680034637451172,-1.3980966806411743,-0.8041714429855347,2.030043125152588,-2.771524429321289, 2.397610902786255
30,1892430649,0.65937084,0.043509196,-0.7381673,0.13581657,9.648808479309082,-1.3803253173828125,-0.7984699606895447,1.7247402667999268,-2.751009464263916, 2.451359987258911
31,1892447316,0.65908116,0.04357051,-0.7383535,0.1361908,9.695047378540039,-1.3634033203125,-0.7844964265823364,1.3611679077148438,-2.7684004306793213, 2.435211181640625
32,1892463983,0.65880024,0.04349234,-0.73856324,0.13643724,9.751675605773926,-1.3467010259628296,-0.7691152691841125,1.0292143821716309,-2.8869736194610596, 2.4250681400299072
33,1892480650,0.6585158,0.043225627,-0.7388197,0.13650702,9.75886058807373,-1.3699073791503906,-0.7338091731071472,0.7935646176338196,-3.238725423812866, 2.423543930053711
34,1892497317,0.65819275,0.042993523,-0.73910594,0.1365884,9.788016319274902,-1.4000940322875977,-0.7243044376373291,0.6190397143363953,-3.5756099224090576, 2.3502917289733887
35,1892513984,0.65783834,0.042939425,-0.73938966,0.13677731,9.809855461120605,-1.406929612159729,-0.7321656346321106,0.9584976434707642,-3.742591619491577, 2.024216413497925
36,1892530651,0.6574637,0.043035973,-0.739668,0.13704327,9.751843452453613,-1.398255467414856,-0.7784918546676636,1.2333475351333618,-3.8481290340423584, 1.6730791330337524
37,1892547318,0.6570943,0.043130714,-0.73994875,0.13726878,9.707324981689453,-1.4258428812026978,-0.7997165322303772,0.987747311592102,-3.8449909687042236, 1.4723012447357178
38,1892563985,0.65674376,0.043150276,-0.740235,0.13739662,9.72806167602539,-1.4756557941436768,-0.79732745885849,0.8821461796760559,-3.840892791748047, 1.289003849029541
39,1892580652,0.6564242,0.043156516,-0.7405066,0.13745898,9.736188888549805,-1.4357041120529175,-0.8006320595741272,0.6022506952285767,-3.641934633255005, 0.9717652797698975
40,1892597319,0.65610635,0.043215226,-0.74077004,0.13753831,9.70374870300293,-1.4828368425369263,-0.7887626886367798,0.33998939394950867,-3.5549404621124268, 0.8105459809303284
41,1892613986,0.65579563,0.04354965,-0.7409753,0.13780832,9.76704216003418,-1.5018199682235718,-0.770221471786499,2.150846004486084,-3.396411180496216, 0.25286781787872314
42,1892630653,0.6556506,0.044422887,-0.7408853,0.13870046,9.715245246887207,-1.616288661956787,-0.6381231546401978,8.417326927185059,-1.625087857246399, -0.014304697513580322
43,1892647320,0.6559117,0.046500787,-0.7400604,0.14116785,9.766560554504395,-1.8457549810409546,-0.48210039734840393,21.979700088500977,3.1129024028778076, 0.32380273938179016
44,1892663987,0.6561471,0.048509505,-0.73926634,0.14353824,9.408794403076172,-1.5744471549987793,-0.8872012495994568,21.185977935791016,2.790398597717285, 0.15452805161476135
45,1892680654,0.6560812,0.04980004,-0.7389681,0.14492686,9.262184143066406,-1.583180546760559,-1.0284841060638428,14.0952730178833,-0.7795102000236511, -0.35492822527885437
46,1892697321,0.6556975,0.050748266,-0.7390678,0.1458224,8.987574577331543,-1.659071922302246,-1.037146806716919,7.779007434844971,-3.6340205669403076, -0.23673824965953827
47,1892713988,0.6552404,0.05182064,-0.73918647,0.1468949,9.154167175292969,-1.7547376155853271,-0.6947008967399597,7.0938920974731445,-3.745511770248413, 0.1569354236125946
48,1892730655,0.654668,0.052624255,-0.73943657,0.14789888,9.721731185913086,-1.5866061449050903,-0.5103942155838013,8.329476356506348,-5.1238603591918945, 1.0119516849517822
49,1892747322,0.6537375,0.05432956,-0.73971474,0.14999244,10.094463348388672,-1.4781501293182373,-0.3405844271183014,13.717092514038086,-6.994014739990234, 2.130408525466919
50,1892763989,0.6525614,0.05627923,-0.74013495,0.15230416,10.415278434753418,-1.0528843402862549,-0.45098981261253357,20.020734786987305,-9.785029411315918, 1.7798231840133667
51,1892780656,0.65101475,0.05845111,-0.74081695,0.1547702,10.221635818481445,-1.0853062868118286,-0.4880065321922302,21.343360900878906,-13.044089317321777, 1.9869416952133179
52,1892797323,0.64914936,0.06082504,-0.741686,0.15750371,9.845104217529297,-1.4522970914840698,-0.5947339534759521,25.961956024169922,-16.051210403442383, 2.4128971099853516
53,1892813990,0.64694655,0.06388464,-0.7425934,0.16104062,9.705236434936523,-1.5110660791397095,-0.7337622046470642,30.00135040283203,-17.878162384033203, 3.25170636177063
54,1892830657,0.6447709,0.06637276,-0.74357826,0.16418462,9.707901000976562,-1.3362351655960083,-0.9776828289031982,28.35588836669922,-18.1097354888916, 4.092548370361328
55,1892847324,0.6427045,0.06831016,-0.7445786,0.16693535,9.572856903076172,-1.3483293056488037,-1.225856900215149,22.566083908081055,-16.94590950012207, 5.233386516571045
56,1892863991,0.64084363,0.06966712,-0.74554944,0.16918059,9.431111335754395,-1.4915962219238281,-1.2383441925048828,16.848569869995117,-15.185590744018555, 5.813522815704346
57,1892880658,0.6395647,0.070526585,-0.74609554,0.17124431,9.835166931152344,-1.3331314325332642,-0.8673295974731445,15.853354454040527,-10.102072715759277, 6.448140621185303
58,1892897325,0.63865614,0.07057859,-0.7465158,0.17277564,10.303919792175293,-0.8787907958030701,-1.0791876316070557,11.692265510559082,-7.341823577880859, 7.519543170928955
59,1892913992,0.63782096,0.070528366,-0.74682486,0.17453642,10.204643249511719,-0.7627665400505066,-0.8405627608299255,8.948066711425781,-5.630675315856934, 9.485870361328125
60,1892930659,0.6371838,0.06977876,-0.7470814,0.17606072,10.158658027648926,-0.9714131951332092,-0.9910851120948792,8.28385066986084,-4.329535484313965, 11.44419002532959
61,1892947326,0.63648564,0.06887284,-0.74738383,0.17765157,9.753229141235352,-1.2555338144302368,-0.975507378578186,5.589085578918457,-4.222897052764893, 13.029388427734375
62,1892963993,0.6359382,0.06723245,-0.74771225,0.17885427,9.458845138549805,-1.5778924226760864,-0.9717842936515808,3.865337371826172,-3.522965431213379, 14.506540298461914
63,1892980660,0.63558096,0.065015346,-0.74796295,0.17989297,9.388851165771484,-1.6929931640625,-0.9785147905349731,3.1557369232177734,-2.0944035053253174, 16.130619049072266
64,1892997327,0.6353622,0.063070066,-0.74795425,0.18138756,9.477090835571289,-1.5507099628448486,-1.0447056293487549,3.8206183910369873,0.19206342101097107, 16.83234405517578
65,1893013994,0.63525003,0.061178192,-0.74779487,0.18307845,9.479249954223633,-1.653247594833374,-1.1165544986724854,2.7227160930633545,1.8959373235702515, 17.55226707458496
66,1893030661,0.6354339,0.05854326,-0.74753445,0.18436044,9.498822212219238,-1.4643505811691284,-1.078180193901062,-0.27006062865257263,4.150267601013184, 18.874258041381836
67,1893047328,0.6357746,0.055432472,-0.747252,0.18529023,9.531652450561523,-1.6440271139144897,-1.0869781970977783,-3.7137062549591064,5.406151294708252, 19.554794311523438
68,1893063995,0.63624185,0.0525015,-0.7467819,0.18643184,9.785764694213867,-1.8199870586395264,-0.9302390813827515,-4.267197608947754,7.284704208374023, 19.680912017822266
69,1893080662,0.6367937,0.049512748,-0.74626416,0.18743654,10.049559593200684,-1.8951860666275024,-0.664603590965271,-5.561691761016846,8.018165588378906, 19.31268310546875
70,1893097329,0.6373195,0.04674122,-0.7457705,0.1883229,10.159214973449707,-2.1398353576660156,-0.5551696419715881,-5.166779518127441,7.392096996307373, 17.725914001464844
71,1893113996,0.63767433,0.04448726,-0.74539953,0.18913476,9.906209945678711,-2.4970104694366455,-0.5375797748565674,-4.021646022796631,5.370380401611328, 15.075540542602539
72,1893130663,0.6377859,0.04306202,-0.7451596,0.19003126,9.55484676361084,-2.595499277114868,-0.525166392326355,-1.1435693502426147,2.701712131500244, 11.636667251586914
73,1893147330,0.63783985,0.04214297,-0.7449423,0.1909062,9.595661163330078,-2.5091962814331055,-0.5472118258476257,0.9416190385818481,1.6020809412002563, 8.969895362854004
74,1893163997,0.63783383,0.041480444,-0.74483895,0.19147426,9.858487129211426,-2.162555694580078,-0.5819897651672363,0.33663418889045715,0.34020712971687317, 6.379951477050781
75,1893180664,0.63782364,0.041041613,-0.744763,0.19189754,9.988526344299316,-2.1100125312805176,-0.6110126376152039,0.5193167924880981,-0.1645360141992569, 4.618680953979492
76,1893197331,0.6379835,0.041157164,-0.7444516,0.19254865,9.917767524719238,-2.0544707775115967,-0.7534533739089966,4.402394771575928,1.0383198261260986, 2.4998061656951904
77,1893213998,0.63836586,0.041400515,-0.74401176,0.19292952,9.935912132263184,-1.7858192920684814,-0.921078622341156,3.678220748901367,2.4857444763183594, 0.35027289390563965
78,1893230665,0.63879406,0.04129618,-0.743695,0.19275486,9.679113388061523,-1.945448398590088,-0.8623773455619812,-0.862187385559082,2.4904699325561523, -0.2889368534088135
79,1893247332,0.6392057,0.040950786,-0.7434864,0.19226865,9.467066764831543,-2.546334743499756,-0.6571143269538879,-3.651845693588257,2.1662259101867676, -0.350599467754364
80,1893263999,0.6396233,0.040914994,-0.7431868,0.19204576,9.255085945129395,-2.8885321617126465,-0.5388394594192505,-0.8291854858398438,2.2465476989746094, -0.8526724576950073
81,1893280666,0.64007646,0.04072244,-0.7429482,0.19149913,9.122106552124023,-2.6731185913085938,-0.5965213179588318,-3.2647995948791504,2.2522590160369873, -1.5852723121643066
82,1893297333,0.64057815,0.040291097,-0.7427588,0.19064558,9.28438663482666,-2.498849868774414,-0.6058678030967712,-5.982550621032715,2.5009970664978027, -1.8242390155792236
83,1893314000,0.64102083,0.03978309,-0.74264926,0.1896888,9.526436805725098,-2.2982287406921387,-0.4946123957633972,-6.9469733238220215,1.9072308540344238, -1.8257633447647095
84,1893330667,0.64141315,0.039563198,-0.7424868,0.18904427,9.739401817321777,-2.233243703842163,-0.31877321004867554,-4.007542610168457,1.5664536952972412, -1.8830204010009766
85,1893347334,0.6418352,0.039745938,-0.74214107,0.1889301,9.795595169067383,-2.0857481956481934,-0.13171891868114471,0.6960059404373169,2.1056137084960938, -1.6907328367233276
86,1893364001,0.64200336,0.039723508,-0.74208504,0.18858288,9.700074195861816,-2.023589611053467,-0.12424522638320923,-1.7245031595230103,-0.3223358392715454, -1.2508090734481812
87,1893380668,0.6417206,0.039404742,-0.74256027,0.1877397,9.8949556350708,-2.008140802383423,0.008206636644899845,-6.113227367401123,-4.782007217407227, -1.1875970363616943
88,1893397335,0.6408909,0.038927343,-0.74366903,0.1862792,10.321219444274902,-2.144322156906128,0.11746220290660858,-10.696754455566406,-10.388787269592285, -2.2017717361450195
89,1893414002,0.639591,0.038215138,-0.7453666,0.18409714,10.231345176696777,-2.1857590675354004,0.023945147171616554,-16.01189422607422,-15.375446319580078, -3.4160614013671875
90,1893430669,0.6379958,0.03755621,-0.74737066,0.18162705,10.523365020751953,-1.9230659008026123,-0.12416638433933258,-17.538427352905273,-18.46565818786621, -4.503414630889893
91,1893447336,0.6358798,0.037254013,-0.74978554,0.17913869,10.706644058227539,-1.8189340829849243,-0.009824678301811218,-16.47689437866211,-23.457731246948242, -5.628830909729004
92,1893464003,0.63337076,0.03789894,-0.7522542,0.17753603,10.9971284866333,-2.103520154953003,0.5016639828681946,-7.780327320098877,-26.73739242553711, -6.095699310302734
93,1893480670,0.6308121,0.039351612,-0.7544329,0.17708322,11.013132095336914,-2.21014404296875,0.7908034920692444,3.948829412460327,-26.98807144165039, -5.532166481018066
94,1893497337,0.6277474,0.041218497,-0.7568497,0.17723641,10.762081146240234,-1.9964771270751953,0.37530189752578735,9.136590003967285,-31.240581512451172, -4.434074878692627
95,1893514004,0.62360424,0.04290016,-0.7602357,0.17697209,10.2991361618042,-2.1172091960906982,-0.2602265775203705,5.75492000579834,-41.161949157714844, -3.753615140914917
96,1893530671,0.61868185,0.04415862,-0.7643597,0.17617391,9.40496826171875,-2.5198240280151367,-0.9521889090538025,0.7086642980575562,-48.16879653930664, -2.731027364730835
97,1893547338,0.61375797,0.04547538,-0.76847374,0.17516169,8.56698989868164,-2.5547103881835938,-1.4597995281219482,-0.3901614546775818,-48.23369598388672, -3.9874563217163086
98,1893564005,0.60948366,0.046245012,-0.7721931,0.17351957,8.04944896697998,-2.9979214668273926,-1.4485938549041748,-5.869470596313477,-42.62038803100586, -4.731849193572998
99,1893580672,0.6064714,0.045866758,-0.7752318,0.17060126,7.566623687744141,-2.592909812927246,-1.1248425245285034,-16.943262100219727,-32.10246658325195, -5.8661417961120605
100,1893597339,0.60570973,0.04596789,-0.7764779,0.1675859,7.151331424713135,-0.3969847559928894,0.4779145121574402,-14.594091415405273,-13.109487533569336, -12.02328872680664
101,1893614006,0.60749304,0.045988496,-0.7760209,0.16318409,7.0782036781311035,0.8408841490745544,0.9846861362457275,-21.14750099182129,7.107137203216553, -20.774887084960938
102,1893630673,0.6111559,0.047656883,-0.77348495,0.16105415,8.208860397338867,-1.124481439590454,0.08743324130773544,-0.509067177772522,24.56629180908203, -22.64681053161621
103,1893647340,0.61591995,0.052398205,-0.76896924,0.16304454,8.357380867004395,-1.1694343090057373,-0.22861126065254211,36.6268424987793,36.50265884399414, -23.577295303344727
104,1893664007,0.6214302,0.059308905,-0.7628477,0.16843559,8.696863174438477,-1.4307191371917725,-0.7579848766326904,65.36681365966797,45.978065490722656, -21.971027374267578
105,1893680674,0.6277153,0.06714833,-0.7554665,0.1753139,8.559442520141602,-0.12770813703536987,0.26768386363983154,78.47159576416016,54.90918731689453, -21.82634735107422
106,1893697341,0.63409865,0.072727546,-0.74817526,0.18128376,9.633866310119629,-5.804341793060303,-6.329184532165527,60.96306610107422,57.800785064697266, -13.464835166931152
107,1893714008,0.6376162,0.07389024,-0.74457145,0.18330093,11.169271469116211,-5.674858093261719,-11.991670608520508,18.24513053894043,30.91544532775879, -2.852922201156616
108,1893730675,0.6391524,0.07292478,-0.7429061,0.18508604,10.942622184753418,-4.473354816436768,-4.41243314743042,6.450368404388428,15.64088249206543, 10.23321533203125
109,1893747342,0.64297014,0.06891852,-0.7406366,0.18247543,7.945774555206299,1.9281375408172607,5.267246246337891,-29.7714900970459,31.870370864868164, 3.06231951713562
110,1893764009,0.6466,0.061271545,-0.7395479,0.1767012,12.220857620239258,-2.872236728668213,-2.986093282699585,-63.404571533203125,28.315858840942383, 8.633902549743652
111,1893780676,0.64869905,0.056861922,-0.7390458,0.17253348,11.976604461669922,0.8486199378967285,-0.18347220122814178,-40.90403366088867,14.808292388916016, 1.3578214645385742
112,1893797343,0.6494028,0.052906092,-0.73979545,0.16786876,10.812813758850098,-1.7793742418289185,-0.04567822068929672,-42.322532653808594,1.335755467414856, -0.8176008462905884
113,1893814010,0.6494323,0.05028516,-0.7406485,0.16476987,10.670989990234375,-0.817419171333313,0.09605704993009567,-28.277748107910156,-3.5910263061523438, 0.19622588157653809
114,1893830677,0.6492302,0.047898296,-0.74163103,0.16183178,9.947530746459961,-1.3023881912231445,-0.5369303822517395,-26.491527557373047,-5.629570960998535, 0.09586218744516373
115,1893847344,0.64925647,0.046475258,-0.7420181,0.16036017,9.65293025970459,-1.5530853271484375,-0.5174878239631653,-14.123224258422852,-2.4181735515594482, 1.2999541759490967
116,1893864011,0.6493507,0.045514096,-0.7421674,0.15956163,9.354764938354492,-2.2070937156677246,-0.616016149520874,-8.39225959777832,-1.3256882429122925, 1.8019883632659912
117,1893880678,0.64967036,0.045277495,-0.7419304,0.15942927,9.31441593170166,-1.8668577671051025,-0.6816650629043579,-1.4144867658615112,0.9526194334030151, 0.6680367588996887
118,1893897345,0.6502725,0.045208376,-0.7413982,0.15946981,9.317116737365723,-2.176070213317871,-0.4382944107055664,0.4519040584564209,3.5758466720581055, 0.16673226654529572
119,1893914012,0.6509864,0.045164205,-0.74076694,0.15950413,9.344893455505371,-2.0584356784820557,-0.34582823514938354,0.5969744920730591,4.537552833557129, -0.17959626019001007
120,1893930679,0.65157807,0.04481665,-0.74033344,0.15919739,9.716525077819824,-1.602138876914978,-0.3469703495502472,-2.6904473304748535,3.230971574783325, 0.005257006268948317
121,1893947346,0.6519549,0.044139985,-0.7401525,0.15868561,9.836264610290527,-1.4020400047302246,-0.2842654883861542,-5.415959358215332,1.2721508741378784, 1.0799916982650757
122,1893964013,0.6522725,0.04354297,-0.7399602,0.15844099,9.80260944366455,-1.5693340301513672,-0.2917954623699188,-3.6712214946746826,0.9834315776824951, 1.953653335571289
123,1893980680,0.6525463,0.042973373,-0.7397821,0.15830074,9.714252471923828,-1.7983473539352417,-0.24337533116340637,-3.0276520252227783,0.6658726334571838, 2.343824863433838
124,1893997347,0.65274954,0.042456485,-0.7396419,0.1582579,9.722357749938965,-2.1588964462280273,-0.06103169173002243,-2.325108051300049,0.07514125108718872, 2.5939066410064697
125,1894014014,0.6528666,0.042003598,-0.73959917,0.15809551,9.732772827148438,-2.0564260482788086,-0.17138563096523285,-2.736806631088257,-0.9501031041145325, 1.8230159282684326
126,1894030681,0.6529214,0.04141681,-0.7397117,0.15749569,9.683518409729004,-1.847082495689392,-0.3773326873779297,-5.721633434295654,-1.981231927871704, 0.6291311383247375
127,1894047348,0.6529956,0.041128457,-0.739751,0.15707932,9.863452911376953,-1.768949031829834,-0.3380335867404938,-3.378136396408081,-1.848110318183899, -0.11670428514480591
128,1894064015,0.6531786,0.041246235,-0.7395805,0.15709053,9.80252742767334,-1.5973618030548096,-0.41339313983917236,0.8074467182159424,-0.6961274743080139, -0.4398212730884552
129,1894080682,0.6534309,0.041488867,-0.7392993,0.15730013,9.831573486328125,-1.588341474533081,-0.28015953302383423,2.473719596862793,0.05480477213859558, -0.2787429988384247
130,1894097349,0.6538635,0.04208209,-0.73873943,0.1579747,9.768630981445312,-1.4583851099014282,-0.45504477620124817,6.655775547027588,1.9483522176742554, -0.23296035826206207
131,1894114016,0.65434885,0.042542335,-0.7381733,0.15848699,9.761406898498535,-1.454331636428833,-0.2929525673389435,5.2254838943481445,2.326510429382324, -0.3247946500778198
132,1894130683,0.65502566,0.042901427,-0.7374382,0.15901564,9.67302131652832,-1.5352411270141602,-0.3692686855792999,4.981619834899902,4.147388458251953, 0.024857129901647568
133,1894147350,0.65571576,0.0429347,-0.73677295,0.15924588,9.621654510498047,-1.5122144222259521,-0.3616143465042114,1.9201264381408691,4.1495842933654785, 0.35202738642692566
134,1894164017,0.6564045,0.0426576,-0.73618776,0.15918905,9.569047927856445,-1.669594407081604,-0.31983911991119385,-1.020538091659546,4.0199456214904785, 0.667473316192627
135,1894180684,0.65689516,0.042289425,-0.7358266,0.15893278,9.650130271911621,-1.8564733266830444,-0.1163271889090538,-2.6433846950531006,2.030210018157959, 0.5125933885574341
136,1894197351,0.657087,0.04190353,-0.7357744,0.1584835,9.686655044555664,-1.86014986038208,-0.08848965913057327,-3.9506826400756836,-0.9454033374786377, 0.1348956972360611
137,1894214018,0.6570815,0.041653667,-0.73590434,0.15796739,9.745802879333496,-1.878210425376892,-0.026676950976252556,-3.821017026901245,-2.9674103260040283, -0.5987608432769775
138,1894230685,0.6569876,0.041473426,-0.736117,0.15741366,9.814221382141113,-1.7513084411621094,-0.0754157230257988,-3.764657735824585,-3.911738634109497, -1.0131489038467407
139,1894247352,0.656764,0.041229878,-0.7364893,0.15666799,9.903406143188477,-1.657957673072815,-0.08468296378850937,-5.169194221496582,-5.308719158172607, -1.3761065006256104
140,1894264019,0.656333,0.041093055,-0.7370193,0.1560163,9.858541488647461,-1.8434762954711914,0.009222269989550114,-4.3141913414001465,-7.195685386657715, -1.2212905883789062
141,1894280686,0.6556458,0.04145666,-0.737685,0.15566255,9.821812629699707,-2.120809555053711,0.08542579412460327,-0.6362965106964111,-9.59743881225586, -2.105940818786621
142,1894297353,0.6549743,0.042635206,-0.73816806,0.15588196,9.693309783935547,-2.133824586868286,-0.054574884474277496,6.121572971343994,-9.448144912719727, -3.747267723083496
143,1894314020,0.65440214,0.04431251,-0.7384693,0.1563887,9.447673797607422,-2.095273733139038,-0.2666628360748291,9.961649894714355,-8.606961250305176, -5.165034294128418
144,1894330687,0.65379876,0.046013247,-0.73881364,0.15679398,9.527084350585938,-1.7880967855453491,-0.33796030282974243,9.495037078857422,-9.033655166625977, -5.714964866638184
145,1894347354,0.6531193,0.047491696,-0.73928624,0.15695707,9.758540153503418,-1.4781689643859863,-0.3692364990711212,7.1955156326293945,-9.860486030578613, -5.5598673820495605
146,1894364021,0.6523498,0.04870659,-0.73990655,0.15686275,9.91280746459961,-1.390865683555603,-0.3421216309070587,4.541934013366699,-10.793875694274902, -5.210880756378174
147,1894380688,0.6515018,0.049610857,-0.74068,0.1564533,9.953361511230469,-1.4514933824539185,-0.3758314251899719,1.4234329462051392,-11.675786018371582, -4.8887248039245605
148,1894397355,0.6506451,0.050456412,-0.7414846,0.15593544,9.774704933166504,-1.6555460691452026,-0.4284819960594177,0.5548802614212036,-11.850720405578613, -5.037713527679443
149,1894414022,0.64993715,0.05133261,-0.7421592,0.15539144,9.590134620666504,-1.7382878065109253,-0.539633572101593,0.8899328708648682,-10.61279296875, -5.542411804199219
150,1894430689,0.649331,0.05206395,-0.74277586,0.15473501,9.57422924041748,-1.569014072418213,-0.4239072799682617,-0.46611288189888,-9.70427131652832, -5.4269232749938965
151,1894447356,0.6487206,0.052717037,-0.7434061,0.1540455,9.70962905883789,-1.574647307395935,-0.36815527081489563,-1.0657318830490112,-9.72365951538086, -5.158450603485107
152,1894464023,0.64801824,0.053414933,-0.7441196,0.15331547,9.894845008850098,-1.5405763387680054,-0.305318146944046,-1.11323082447052,-10.656192779541016, -5.442816257476807
153,1894480690,0.6472804,0.05392395,-0.74492836,0.15232259,9.89211654663086,-1.4639087915420532,-0.37992119789123535,-3.275623083114624,-11.209827423095703, -5.586389541625977
154,1894497357,0.64661384,0.054427575,-0.7456723,0.15133132,9.831106185913086,-1.4780632257461548,-0.43813228607177734,-3.853867769241333,-10.481438636779785, -5.57373571395874
155,1894514024,0.64618385,0.055038583,-0.7461453,0.15061383,9.748333930969238,-1.271536946296692,-0.6066874265670776,-1.2984744310379028,-8.175626754760742, -5.309385776519775
156,1894530691,0.6458466,0.055660438,-0.7465015,0.15006545,9.74957275390625,-1.056948184967041,-0.7164321541786194,0.021213721483945847,-7.191625118255615, -4.77863883972168
157,1894547358,0.6454791,0.056610078,-0.7467738,0.14993705,9.8240385055542,-0.9307512640953064,-0.6648452281951904,1.148697853088379,-6.7610368728637695, -4.250031471252441
158,1894564025,0.64506465,0.057361804,-0.74710816,0.1497688,9.879230499267578,-1.1217374801635742,-0.600997805595398,1.986963152885437,-7.404504776000977, -3.5453872680664062
159,1894580692,0.6445455,0.058107387,-0.7475254,0.14963469,9.842215538024902,-1.3632484674453735,-0.4554003179073334,2.2769246101379395,-8.339457511901855, -3.221348285675049
160,1894597359,0.6439994,0.05901106,-0.7479219,0.14965177,9.720186233520508,-1.5016883611679077,-0.4428422749042511,1.9921884536743164,-8.240965843200684, -3.1088578701019287
161,1894614026,0.64359176,0.0597351,-0.74821573,0.14964855,9.69363021850586,-1.4668903350830078,-0.44644415378570557,3.0420658588409424,-7.215778350830078, -2.704266309738159
162,1894630693,0.643162,0.060645975,-0.74845237,0.14994742,9.634678840637207,-1.2971575260162354,-0.5620224475860596,4.198274612426758,-6.97568416595459, -2.163261651992798
163,1894647360,0.6425457,0.061307345,-0.74890316,0.15006913,9.776662826538086,-1.0659425258636475,-0.3994261920452118,1.7266292572021484,-8.675368309020996, -1.3292993307113647
164,1894664027,0.641626,0.061470564,-0.74972844,0.14981653,9.909900665283203,-1.1717650890350342,-0.24859358370304108,-1.6600494384765625,-11.711169242858887, -0.057910334318876266
165,1894680694,0.6402112,0.061430175,-0.7510051,0.14949091,10.19690990447998,-1.0961389541625977,0.12168905138969421,-3.578507423400879,-16.061534881591797, 1.4386603832244873
166,1894697361,0.63787377,0.061340537,-0.75306207,0.14917132,10.525593757629395,-1.2551788091659546,0.8036806583404541,-3.2925961017608643,-24.40764808654785, 2.8970391750335693
167,1894714028,0.6343567,0.061978146,-0.75586176,0.14974418,11.11648178100586,-1.2260156869888306,1.6403076648712158,7.216288089752197,-34.6966552734375, 4.138627529144287
168,1894730695,0.6291324,0.06313762,-0.7598982,0.15086734,11.948661804199219,-1.340023159980774,2.217486619949341,13.928068161010742,-49.76158142089844, 5.759973526000977
169,1894747362,0.6222076,0.06461683,-0.7651333,0.1524914,12.948892593383789,-1.4833918809890747,2.511056423187256,15.370579719543457,-63.850502014160156, 8.845630645751953
170,1894764029,0.6141383,0.06467461,-0.771557,0.15281212,13.451181411743164,-1.3250575065612793,2.477092742919922,5.240265846252441,-74.8683090209961, 11.74073314666748
171,1894780696,0.6053772,0.06316488,-0.77883166,0.1514926,12.905096054077148,-1.7356892824172974,2.294234275817871,-16.203327178955078,-80.59674835205078, 15.305304527282715
172,1894797363,0.5968714,0.059450056,-0.78634804,0.14787576,12.012994766235352,-2.336674690246582,1.634216070175171,-37.29216384887695,-79.37915802001953, 17.223596572875977
173,1894814030,0.5888651,0.054266717,-0.79364693,0.14289099,11.008118629455566,-3.284791946411133,0.926240086555481,-52.57526779174805,-74.7822036743164, 19.352397918701172
174,1894830697,0.5826079,0.04870274,-0.79950804,0.13777919,9.819184303283691,-2.314335584640503,2.5007364749908447,-54.059505462646484,-59.28133773803711, 18.51413917541504
175,1894847364,0.5798183,0.043357797,-0.80271065,0.13261473,7.804493427276611,-0.180077463388443,5.451048851013184,-52.18974304199219,-30.054122924804688, 12.835148811340332
176,1894864031,0.58065486,0.03798088,-0.8031876,0.12762058,8.088174819946289,-0.18182966113090515,5.8131422996521,-50.0356559753418,0.5107923150062561, 9.574581146240234
177,1894880698,0.58514756,0.035208322,-0.8002488,0.12635149,8.365585327148438,0.01677057519555092,6.479667663574219,-17.08941650390625,32.61204147338867, 5.98126745223999
178,1894897365,0.5927685,0.034723308,-0.79437244,0.12803271,8.533883094787598,-0.15704987943172455,5.337093830108643,10.077159881591797,59.923606872558594, 1.9001349210739136
179,1894914032,0.60320985,0.036862392,-0.78559583,0.13273516,8.992671012878418,0.06645990908145905,4.966115474700928,39.101539611816406,85.1900634765625, -3.201456069946289
180,1894930699,0.6158794,0.040664833,-0.7744982,0.138534,9.583354949951172,0.5655849575996399,4.0287041664123535,53.434913635253906,105.27300262451172, -10.1201171875
181,1894947366,0.6302559,0.045437466,-0.7614864,0.14440057,10.302536010742188,0.568878710269928,2.8659191131591797,59.230472564697266,121.2920150756836, -16.974018096923828
182,1894964033,0.6456454,0.05069775,-0.7471321,0.14955121,10.944708824157715,0.24635590612888336,1.5667273998260498,58.60257339477539,131.51463317871094, -23.860212326049805
183,1894980700,0.66134405,0.05622268,-0.7319723,0.15388228,11.336976051330566,-0.1758853942155838,0.7868452072143555,56.29143524169922,136.0240936279297, -29.283231735229492
184,1894997367,0.6769402,0.061665118,-0.7163779,0.15732826,11.728838920593262,-0.40594178438186646,0.07537174224853516,51.969825744628906,137.2002716064453, -32.81127166748047
185,1895014034,0.6920369,0.066346966,-0.70083576,0.1597258,11.923152923583984,-0.5131393074989319,-0.6212491989135742,43.434791564941406,134.9115753173828, -33.27066421508789
186,1895030701,0.70612794,0.07056696,-0.6857496,0.16171312,11.70711612701416,-1.1542826890945435,-1.415628433227539,39.2344856262207,128.31834411621094, -31.596759796142578
187,1895047368,0.7190346,0.07514669,-0.6711165,0.16414934,11.45085334777832,-1.3387393951416016,-1.8975956439971924,43.18930435180664,120.52616119384766, -29.53447914123535
188,1895064035,0.7306365,0.07985372,-0.6573376,0.16643687,10.792655944824219,-0.9272940754890442,-1.917191505432129,42.868751525878906,110.28560638427734, -28.916982650756836
189,1895080702,0.74079275,0.08437544,-0.6448477,0.16816208,10.2634859085083,-1.032716989517212,-1.8189563751220703,38.738765716552734,97.4216537475586, -28.507761001586914
190,1895097369,0.7496563,0.08892242,-0.63358176,0.16935931,9.853835105895996,-1.0760900974273682,-1.3988178968429565,35.89017105102539,85.36744689941406, -29.089731216430664
191,1895114036,0.75749993,0.093247585,-0.6233846,0.16997267,9.577032089233398,-0.9610048532485962,-0.9814532995223999,31.612024307250977,75.54869842529297, -29.29256820678711
192,1895130703,0.7644542,0.09715622,-0.61418885,0.17012592,9.260870933532715,-0.8273405432701111,-0.7238345146179199,26.900760650634766,66.92903900146484, -28.22910499572754
193,1895147370,0.7706192,0.1008637,-0.60579073,0.17026527,9.011481285095215,-0.9905780553817749,-0.8460594415664673,25.4062442779541,59.834747314453125, -26.00634002685547
194,1895164037,0.775941,0.10496105,-0.59803975,0.17101903,8.842086791992188,-0.987541675567627,-0.9162166118621826,29.884963989257812,53.080848693847656, -22.961462020874023
195,1895180704,0.78038734,0.10928065,-0.59109885,0.17220818,8.738353729248047,-1.1683166027069092,-1.1101558208465576,32.56758499145508,45.437259674072266, -19.961198806762695
196,1895197371,0.7839238,0.113699384,-0.58512443,0.17368186,8.598258018493652,-1.1360509395599365,-1.0852653980255127,33.8243408203125,36.88850784301758, -17.068700790405273
197,1895214038,0.7865646,0.11734436,-0.5805024,0.17482466,8.364090919494629,-1.3210349082946777,-1.3334354162216187,27.435914993286133,26.898853302001953, -13.652237892150879
198,1895230705,0.78836054,0.11986582,-0.5773287,0.1755323,8.378351211547852,-1.5788578987121582,-1.4848921298980713,18.59552574157715,16.939571380615234, -9.396669387817383
199,1895247372,0.78923047,0.1209636,-0.57587934,0.17563076,8.31394100189209,-1.8524293899536133,-1.8748332262039185,7.177044868469238,5.382721900939941, -4.590539932250977
200,1895264039,0.7891458,0.120395504,-0.5763059,0.17500177,8.191648483276367,-2.098024368286133,-2.2116103172302246,-6.175467014312744,-6.906095504760742, 0.6669613122940063
201,1895280706,0.7880513,0.118271485,-0.5786114,0.17377016,8.871075630187988,-2.454887866973877,-1.6965209245681763,-18.387739181518555,-19.455739974975586, 6.211141109466553
202,1895297373,0.7854111,0.11472337,-0.58323103,0.17265427,8.014656066894531,-3.879218339920044,-2.688065767288208,-27.10663604736328,-36.09721755981445, 16.09199333190918
203,1895314040,0.78210837,0.11278179,-0.58793837,0.17296095,9.74505615234375,-1.9331655502319336,2.283043146133423,-12.24418830871582,-39.72872543334961, 17.982685089111328
204,1895330707,0.7797404,0.11163626,-0.59083843,0.17450672,10.659991264343262,-0.5209583044052124,11.461877822875977,-1.5082987546920776,-26.16550064086914, 18.819744110107422
205,1895347374,0.7771084,0.11175722,-0.59306186,0.17858002,11.391600608825684,-0.3258063793182373,5.52899169921875,16.540496826171875,-23.592744827270508, 27.00932502746582
206,1895364041,0.7723273,0.11218238,-0.59747267,0.1842613,13.636384963989258,-1.8678836822509766,1.0812817811965942,23.667875289916992,-43.269195556640625, 38.69062042236328
207,1895380708,0.76546645,0.114775345,-0.6033401,0.1920129,12.810540199279785,3.4786696434020996,-0.03355689346790314,43.45281982421875,-60.532135009765625, 44.48808670043945
208,1895397375,0.75846624,0.110493585,-0.61225545,0.19407049,11.16431999206543,3.2562170028686523,1.9397361278533936,-20.307275772094727,-72.37492370605469, 45.84244918823242
209,1895414042,0.7522454,0.10441729,-0.62065625,0.194961,8.898280143737793,-0.7533962726593018,2.077972412109375,-34.524627685546875,-64.85093688964844, 46.06494903564453
210,1895430709,0.74726343,0.09970059,-0.6267729,0.1970097,8.189990997314453,-3.393463611602783,4.1509108543396,-20.38033103942871,-48.7303352355957, 42.931785583496094
211,1895447376,0.7425628,0.09628021,-0.630934,0.20310879,10.078320503234863,-10.833943367004395,-1.5309109687805176,6.188223361968994,-36.551536560058594, 56.29119110107422
212,1895464043,0.73662806,0.10037571,-0.63393563,0.21314216,11.399446487426758,0.5932820439338684,1.1687463521957397,64.150390625,-43.67226028442383, 44.252925872802734
213,1895480710,0.73072726,0.09642948,-0.6405583,0.21546301,10.87006664276123,-0.5840145349502563,1.388882040977478,-15.544336318969727,-55.33461380004883, 42.798614501953125
214,1895497377,0.7246459,0.09369524,-0.64672774,0.21875302,9.954355239868164,-1.0924712419509888,0.7423782348632812,-4.405228137969971,-54.965145111083984, 42.33482360839844
215,1895514044,0.7186448,0.09117508,-0.6527347,0.22175309,10.065943717956543,-1.825636386871338,0.23908066749572754,-4.437906265258789,-54.25019073486328, 39.72733688354492
216,1895530711,0.7126741,0.08988669,-0.65822816,0.22528175,9.733884811401367,-1.93695068359375,1.0598200559616089,4.7912774085998535,-53.047813415527344, 36.42947006225586
217,1895547378,0.7069705,0.08842709,-0.6635768,0.2281218,9.491921424865723,-2.8225903511047363,0.7911126613616943,0.894900381565094,-51.265220642089844, 33.31117248535156
218,1895564045,0.70162,0.08799829,-0.66828084,0.23105522,9.817789077758789,-2.4767165184020996,0.43179357051849365,7.131337642669678,-48.05133056640625, 28.060752868652344
219,1895580712,0.69661707,0.08736812,-0.6728535,0.23315184,10.037993431091309,-1.7216780185699463,0.4376457631587982,2.3202571868896484,-45.964054107666016, 24.28640365600586
220,1895597379,0.6918638,0.08587828,-0.6776386,0.23399891,10.036685943603516,-1.6359143257141113,0.23903247714042664,-8.066486358642578,-45.16501235961914, 22.015012741088867
221,1895614046,0.6872982,0.08443592,-0.6821991,0.23472613,9.839034080505371,-1.9508148431777954,0.15928804874420166,-8.143689155578613,-43.33439636230469, 20.80414581298828
222,1895630713,0.6829588,0.08346842,-0.68635494,0.2356215,9.738673210144043,-2.2392680644989014,0.31993183493614197,-4.583720684051514,-40.99570846557617, 18.772216796875
223,1895647380,0.6789888,0.08288724,-0.69000316,0.23664291,9.742813110351562,-2.498203992843628,0.6120893955230713,-1.5615898370742798,-37.402469635009766, 16.640789031982422
224,1895664047,0.6752169,0.082963295,-0.693169,0.23815137,9.393796920776367,-2.7275593280792236,0.962617814540863,4.4879374504089355,-35.00102996826172, 15.179885864257812
225,1895680714,0.6715916,0.08344294,-0.6960406,0.2398531,9.49415111541748,-2.458676815032959,0.7729721069335938,7.673710823059082,-33.507564544677734, 13.715571403503418
226,1895697381,0.66804975,0.08406701,-0.69876564,0.24159674,9.539468765258789,-2.373871088027954,0.6757424473762512,8.730148315429688,-32.659915924072266, 12.982093811035156
227,1895714048,0.66470903,0.08479075,-0.7012239,0.24342892,9.558971405029297,-2.3141984939575195,0.47483590245246887,9.93474006652832,-30.596378326416016, 12.414277076721191
228,1895730715,0.66154385,0.08551711,-0.70349634,0.24523413,9.6893892288208,-2.3573238849639893,0.4406084418296814,10.02249813079834,-28.928539276123047, 11.873982429504395
229,1895747382,0.6584751,0.0862595,-0.7056281,0.24710123,9.585037231445312,-2.430562973022461,0.4950386881828308,10.570521354675293,-27.821460723876953, 11.830978393554688
230,1895764049,0.65555596,0.08715453,-0.7075301,0.24910247,9.55309009552002,-2.5957303047180176,0.32808807492256165,12.20927619934082,-26.249906539916992, 11.303032875061035
231,1895780716,0.65270454,0.08802235,-0.7093671,0.25105226,9.52531909942627,-2.498055934906006,0.3968925178050995,11.902703285217285,-25.620033264160156, 11.038501739501953
232,1895797383,0.6499081,0.08883473,-0.7112211,0.25276968,9.60468578338623,-2.5597543716430664,0.14006972312927246,10.452055931091309,-25.48710823059082, 10.176192283630371
233,1895814050,0.64711076,0.089840285,-0.7129851,0.2546149,9.587353706359863,-2.454230546951294,0.2925448417663574,12.094039916992188,-25.352373123168945, 9.743977546691895
234,1895830717,0.64437205,0.09070279,-0.71475685,0.25628188,9.693777084350586,-2.237265110015869,-0.06664901971817017,10.5294189453125,-24.97308349609375, 9.554916381835938
235,1895847384,0.6416309,0.091192536,-0.7167565,0.25739828,9.681229591369629,-2.198861598968506,-0.12301298975944519,5.770998954772949,-25.683115005493164, 9.106038093566895
236,1895864051,0.6388114,0.09149654,-0.7189097,0.25829726,9.604203224182129,-2.1906394958496094,0.021791938692331314,3.657600164413452,-26.555002212524414, 9.310724258422852
237,1895880718,0.63589746,0.09163739,-0.7212607,0.25888267,9.560134887695312,-2.358137607574463,-0.18724314868450165,1.0968735218048096,-27.808055877685547, 9.04582405090332
238,1895897385,0.63286287,0.09156138,-0.7237925,0.259279,9.596441268920898,-2.082174062728882,-0.13515502214431763,-1.0358706712722778,-28.933382034301758, 9.62924861907959
239,1895914052,0.6296979,0.09109609,-0.72659856,0.25930047,9.544681549072266,-2.321596145629883,-0.1980322003364563,-5.0040483474731445,-30.327125549316406, 10.359075546264648
240,1895930719,0.6264289,0.09039497,-0.7295837,0.25908196,9.56562328338623,-2.160061836242676,-0.24331483244895935,-7.479937553405762,-31.361663818359375, 10.80380630493164
241,1895947386,0.62315667,0.08922589,-0.73275644,0.2584236,9.594257354736328,-2.078530788421631,-0.3436829447746277,-12.036742210388184,-31.637205123901367, 11.39444351196289
242,1895964053,0.61989725,0.087667115,-0.73605394,0.25742322,9.694201469421387,-2.11348819732666,-0.6059978008270264,-15.659834861755371,-31.63507652282715, 11.96479320526123
243,1895980720,0.6165633,0.08582936,-0.739472,0.2562504,9.690518379211426,-2.3561394214630127,-0.17759236693382263,-17.888795852661133,-32.141082763671875, 12.865294456481934
244,1895997387,0.6129265,0.08441045,-0.74286455,0.2556329,9.365141868591309,-3.1014492511749268,-0.4975101053714752,-13.072765350341797,-34.009334564208984, 13.618247032165527
245,1896014054,0.6090962,0.082877465,-0.74651957,0.2546404,9.243424415588379,-2.918954849243164,-0.4367761015892029,-15.825145721435547,-36.13405227661133, 13.089264869689941
246,1896030721,0.60512316,0.08102889,-0.7504596,0.25312197,9.547103881835938,-2.7166500091552734,-0.3959497809410095,-20.272415161132812,-37.82697296142578, 12.902520179748535
247,1896047388,0.6011241,0.07898685,-0.75449264,0.25130057,9.831323623657227,-2.476496934890747,-1.1054050922393799,-22.79673957824707,-38.207271575927734, 12.733492851257324
248,1896064055,0.5970615,0.076656856,-0.7586723,0.24911407,9.752304077148438,-2.4544663429260254,-1.2856831550598145,-26.098417282104492,-38.849124908447266, 12.91795539855957
249,1896080722,0.5929908,0.07399061,-0.7629333,0.24661769,9.975835800170898,-2.4848334789276123,-1.212532639503479,-29.229562759399414,-38.81547927856445, 13.467718124389648
250,1896097389,0.58894694,0.071763895,-0.7669664,0.244447,9.572320938110352,-3.0917599201202393,-1.4625656604766846,-25.35613441467285,-38.3375358581543, 12.341506958007812
251,1896114056,0.58477724,0.06993472,-0.77101475,0.2422419,9.589423179626465,-3.34257173538208,-1.2190197706222534,-23.894454956054688,-39.75121307373047, 10.310365676879883
252,1896130723,0.5803683,0.06838384,-0.7752666,0.23970376,9.498016357421875,-3.41009783744812,-1.0417017936706543,-24.77313804626465,-42.479209899902344, 7.9693522453308105
253,1896147390,0.57564247,0.06626062,-0.7801664,0.23576696,10.11499309539795,-2.891833782196045,-0.9828147888183594,-35.443878173828125,-46.49641799926758, 6.238619327545166
254,1896164057,0.57026696,0.063023604,-0.78614336,0.22978725,10.748958587646484,-2.0881989002227783,-1.2711173295974731,-52.270023345947266,-53.4140625, 5.66801643371582
255,1896180724,0.56416756,0.058740754,-0.7930233,0.22221342,12.331548690795898,-1.8341996669769287,-0.9879670143127441,-66.10028076171875,-59.95379638671875, 6.636456489562988
256,1896197391,0.55715215,0.054475393,-0.80036545,0.21454473,13.860726356506348,-2.6839449405670166,0.11676025390625,-66.88899230957031,-66.89268493652344, 7.813804626464844
257,1896214058,0.5485886,0.050822087,-0.8083943,0.20728363,15.446610450744629,-1.927717685699463,0.20080333948135376,-62.76150131225586,-78.94877624511719, 8.58287525177002
258,1896230725,0.53808665,0.047528096,-0.81740814,0.20011996,16.316864013671875,-2.180685520172119,0.5661901831626892,-61.60883331298828,-94.10822296142578, 10.138056755065918
259,1896247392,0.52557683,0.045632333,-0.8272131,0.1934043,17.250076293945312,-1.2670906782150269,1.6159086227416992,-54.3773307800293,-110.32882690429688, 7.0352559089660645
260,1896264059,0.51163393,0.043845832,-0.8376756,0.18603213,16.611059188842773,-2.006086587905884,2.8385303020477295,-58.161773681640625,-121.5120620727539, 6.266304969787598
261,1896280726,0.49678296,0.041118763,-0.8485271,0.17753251,15.931632041931152,-2.1149322986602783,3.426435708999634,-68.23442840576172,-127.60405731201172, 9.06307601928711
262,1896297393,0.4816909,0.037715446,-0.8594745,0.16689852,14.853256225585938,-2.10851788520813,4.066546440124512,-83.0987319946289,-129.500732421875, 6.075679779052734
263,1896314060,0.46667817,0.034336038,-0.87013423,0.15459298,12.858531951904297,-2.945444345474243,3.2644996643066406,-92.64673614501953,-128.94253540039062, 0.23649665713310242
264,1896330727,0.45233732,0.032290507,-0.8798293,0.14229816,10.875494003295898,-2.7375998497009277,-1.98296320438385,-87.49609375,-123.58753204345703, -8.708344459533691
265,1896347394,0.4365885,0.030737802,-0.8897859,0.1293324,11.11095905303955,-4.795619010925293,-3.245407819747925,-89.9689712524414,-133.69053649902344, -12.41055965423584
266,1896364061,0.42042902,0.030487439,-0.89905936,0.118331894,9.730502128601074,-3.786830186843872,-0.6410978436470032,-73.38192749023438,-135.00836181640625, -14.388026237487793
267,1896380728,0.40689248,0.029667526,-0.9063205,0.11018838,8.472249984741211,-5.309577465057373,0.45743852853775024,-56.33549880981445,-112.08305358886719, -5.258655548095703
268,1896397395,0.39775643,0.028442428,-0.91095525,0.10555324,6.626951694488525,-3.424381971359253,0.4853629469871521,-34.63212585449219,-76.4652099609375, 3.076270818710327
269,1896414062,0.3940488,0.028198676,-0.91258204,0.1054733,6.982097148895264,-2.348078966140747,4.523782730102539,-2.377880334854126,-34.191986083984375, 4.79232931137085
270,1896430729,0.39644778,0.028619431,-0.9112661,0.107722804,5.278611183166504,0.9130606651306152,7.670382976531982,14.904170036315918,11.80687427520752, 1.9214351177215576
271,1896447396,0.40396553,0.028770134,-0.9077637,0.109313056,5.21581506729126,0.696663498878479,5.487906455993652,10.6285400390625,49.606685638427734, -2.336334705352783
272,1896464063,0.41584328,0.029126758,-0.902114,0.11143035,5.8535966873168945,-0.7361226081848145,2.5465424060821533,15.233434677124023,82.5007095336914, -5.806594371795654
273,1896480730,0.43158805,0.030267453,-0.8941362,0.11548225,6.44461727142334,-1.6846147775650024,1.069088101387024,30.465517044067383,112.77339172363281, -8.545680046081543
274,1896497397,0.45091993,0.03270935,-0.88355196,0.12221888,7.039610862731934,-1.095556616783142,1.2611618041992188,52.131927490234375,141.96954345703125, -11.953622817993164
275,1896514064,0.4729418,0.03560798,-0.8708304,0.12927684,7.754926681518555,-0.11797279119491577,0.9163556098937988,56.683258056640625,164.4998016357422, -16.422903060913086
276,1896530731,0.49717075,0.0384966,-0.8561658,0.1353504,8.789811134338379,-0.45960408449172974,-0.36755698919296265,51.95747375488281,183.68325805664062, -21.91884422302246
277,1896547398,0.5233257,0.041483782,-0.83946973,0.14035597,9.855058670043945,-0.5480372905731201,-1.2149627208709717,47.412784576416016,201.5089874267578, -28.413644790649414
278,1896564065,0.5502524,0.04350184,-0.8214745,0.14321235,10.909607887268066,-0.5816758275032043,-1.8603328466415405,32.580501556396484,210.90469360351562, -31.612625122070312
279,1896580732,0.5772267,0.043895934,-0.80260336,0.14391217,11.780205726623535,-1.3210067749023438,-2.6699581146240234,15.13440990447998,215.41116333007812, -30.873435974121094
280,1896597399,0.6038541,0.044493504,-0.7825607,0.14484303,12.46501636505127,-1.6036123037338257,-3.5158989429473877,18.50916290283203,218.02964782714844, -31.087696075439453
281,1896614066,0.6297017,0.045288216,-0.7617314,0.1455691,12.86868667602539,-1.453971028327942,-3.8769328594207764,19.28527069091797,216.9065399169922, -32.46564483642578
282,1896630733,0.6544733,0.046340574,-0.7403484,0.14629301,12.73969841003418,-1.606429934501648,-4.105853080749512,21.318872451782227,213.51641845703125, -32.913246154785156
283,1896647400,0.67806256,0.04778079,-0.7185554,0.14705981,12.663517951965332,-1.5197757482528687,-4.050491809844971,24.112424850463867,209.11209106445312, -33.633453369140625
284,1896664067,0.70049506,0.048682544,-0.69665235,0.14701132,12.725213050842285,-1.1673108339309692,-4.0444793701171875,18.114608764648438,204.39492797851562, -33.643577575683594
285,1896680734,0.7215516,0.04813959,-0.67512816,0.14576645,12.57227897644043,-1.8382818698883057,-4.163944244384766,5.559449195861816,197.33660888671875, -30.977975845336914
286,1896697401,0.741326,0.048001003,-0.65345925,0.14533697,12.032440185546875,-2.5030946731567383,-4.508848667144775,11.983572006225586,192.3400421142578, -27.616085052490234
287,1896714068,0.7592245,0.048347045,-0.63252234,0.14545254,11.807862281799316,-2.149702548980713,-4.962852954864502,16.8580322265625,180.30604553222656, -24.96237564086914
288,1896730735,0.7748318,0.04965735,-0.6129576,0.1464686,11.561595916748047,-2.497098922729492,-5.428982257843018,25.270347595214844,162.98086547851562, -21.750993728637695
289,1896747402,0.7883777,0.05326073,-0.5943663,0.14950868,11.045769691467285,-2.9156320095062256,-6.121410369873047,45.813411712646484,147.97540283203125, -18.26593017578125
290,1896764069,0.7995148,0.05940193,-0.57743126,0.15434025,10.634154319763184,-2.223207712173462,-6.938797950744629,66.14531707763672,127.68925476074219, -15.885782241821289
291,1896780736,0.80769336,0.06642222,-0.5637259,0.15947692,9.980786323547363,-2.3664958477020264,-8.890240669250488,70.03256225585938,97.85725402832031, -13.260533332824707
292,1896797403,0.8122709,0.07249814,-0.5550453,0.16396555,9.69308853149414,-3.2694828510284424,-10.92324161529541,58.47099685668945,57.215335845947266, -6.988654136657715
293,1896814070,0.8126515,0.07718375,-0.5527631,0.1676107,9.337191581726074,-3.425307035446167,-11.048833847045898,42.43016815185547,7.086304187774658, 1.4652671813964844
294,1896830737,0.80866486,0.08012211,-0.55715007,0.17095475,8.943597793579102,-5.730001926422119,-12.072490692138672,26.212745666503906,-44.50916290283203, 14.930952072143555
295,1896847404,0.8002491,0.0824045,-0.5678702,0.17416696,10.613818168640137,-7.172586441040039,-10.93603515625,17.126739501953125,-95.62133026123047, 25.296890258789062
296,1896864071,0.7921649,0.091038875,-0.57524586,0.18242548,12.672394752502441,-0.8045721650123596,11.30061149597168,75.6644515991211,-80.37504577636719, 25.844953536987305
297,1896880738,0.7852064,0.095213175,-0.5815548,0.1902095,12.357356071472168,1.5847034454345703,8.970897674560547,50.101749420166016,-64.99575805664062, 38.83881378173828
298,1896897405,0.77530044,0.09931633,-0.591075,0.19918934,16.248510360717773,-2.5976405143737793,-5.927900314331055,52.19582748413086,-93.36141967773438, 51.60129928588867
299,1896914072,0.76329863,0.104245834,-0.60193586,0.21019357,13.767205238342285,1.7362598180770874,1.3195732831954956,64.44429016113281,-108.5932846069336, 62.808528900146484
300,1896930739,0.7503463,0.10427843,-0.61413145,0.22124495,11.284624099731445,-4.354136943817139,-3.618499517440796,37.67587661743164,-112.41093444824219, 85.71441650390625
301,1896947406,0.7383184,0.10518288,-0.62519217,0.23012476,8.341361999511719,-0.6033149361610413,0.8361973166465759,34.08888626098633,-105.46050262451172, 68.56153106689453
302,1896964073,0.727973,0.1030037,-0.6354855,0.23580502,9.077380180358887,-4.831565856933594,-1.093712568283081,4.675180435180664,-91.79039764404297, 62.374027252197266
303,1896980740,0.7186073,0.101545535,-0.64480823,0.23982185,10.371994018554688,-2.1370816230773926,0.5615649819374084,1.907064437866211,-84.99209594726562, 48.58111572265625
304,1896997407,0.71008086,0.09834586,-0.6542384,0.24100976,11.054380416870117,-1.5830754041671753,0.6995288729667664,-20.008338928222656,-80.92372131347656, 41.024112701416016
305,1897014074,0.7020706,0.09544758,-0.66298056,0.24175072,11.122763633728027,-1.6041301488876343,0.2629237771034241,-19.761615753173828,-76.06504821777344, 36.18562316894531
306,1897030741,0.69465303,0.09286327,-0.67094517,0.24221091,10.429278373718262,-1.8613876104354858,0.07653169333934784,-18.627775192260742,-70.3310317993164, 31.922412872314453
307,1897047408,0.68800277,0.09087407,-0.67787576,0.24264917,9.984064102172852,-2.5853490829467773,-0.4561312198638916,-14.658788681030273,-62.87410354614258, 27.14725112915039
308,1897064075,0.68236697,0.08894731,-0.68381685,0.24260719,10.042302131652832,-2.5486855506896973,-0.06719362735748291,-15.586793899536133,-53.88024139404297, 22.276744842529297
309,1897080742,0.6775216,0.08647758,-0.6893347,0.2414617,10.016683578491211,-2.385971784591675,0.14248988032341003,-23.10282325744629,-47.96234893798828, 18.07940673828125
310,1897097409,0.6734161,0.083984785,-0.6941667,0.23997925,10.363499641418457,-2.0699377059936523,-0.16105039417743683,-24.113353729248047,-41.44059753417969, 14.989688873291016
311,1897114076,0.67006016,0.08199719,-0.6979747,0.23901367,10.329595565795898,-1.662536859512329,-0.22271409630775452,-18.053394317626953,-33.670875549316406, 13.153828620910645
312,1897130743,0.66703385,0.08065385,-0.7010789,0.23884976,9.537426948547363,-2.414630174636841,-0.2125231921672821,-10.271400451660156,-29.466020584106445, 12.830470085144043
313,1897147410,0.66429865,0.07987066,-0.7036848,0.23907232,9.402825355529785,-2.6913955211639404,0.0073865316808223724,-5.184782028198242,-26.496536254882812, 11.15122127532959
314,1897164077,0.6617462,0.07951743,-0.7059761,0.23951389,9.570150375366211,-2.381892681121826,0.2676434814929962,-1.7489802837371826,-24.776287078857422, 9.59787654876709
315,1897180744,0.65895325,0.07896804,-0.7086566,0.23947987,9.54317855834961,-2.2077417373657227,0.062121521681547165,-5.463307857513428,-27.66839599609375, 8.998492240905762
316,1897197411,0.6557311,0.07820464,-0.7118507,0.23910151,9.542037010192871,-2.4248046875,0.2075113207101822,-8.726604461669922,-31.93408966064453, 9.471686363220215
317,1897214078,0.65212804,0.077182606,-0.71554506,0.2382583,9.555643081665039,-2.4155924320220947,0.11667500436306,-12.789284706115723,-35.89398193359375, 9.540109634399414
318,1897230745,0.6481907,0.076023735,-0.71962273,0.23709159,9.527185440063477,-2.2895193099975586,-0.038985058665275574,-15.447555541992188,-39.21736145019531, 9.516993522644043
319,1897247412,0.6438033,0.07458108,-0.7242076,0.23553877,9.444084167480469,-2.537559747695923,-0.3342766761779785,-19.217647552490234,-43.45444107055664, 10.203113555908203
320,1897264079,0.6390848,0.07317241,-0.72906536,0.23383808,9.37712287902832,-2.75518536567688,-0.6559354066848755,-20.07807159423828,-46.45051574707031, 10.056952476501465
321,1897280746,0.6342411,0.0719942,-0.73395306,0.23209514,9.507574081420898,-2.58005952835083,-0.9747246503829956,-19.26396942138672,-47.608314514160156, 8.932879447937012
322,1897297413,0.62943524,0.07122838,-0.7385664,0.2307761,9.737022399902344,-2.5679824352264404,-0.8350680470466614,-14.909037590026855,-46.67241287231445, 8.505661010742188
323,1897314080,0.6247546,0.071239226,-0.74261147,0.23051025,9.648351669311523,-2.767235279083252,-0.8630285859107971,-5.360854148864746,-44.30046463012695, 8.644676208496094
324,1897330747,0.619905,0.071008,-0.7468618,0.2299416,9.420063972473145,-2.529963254928589,-1.0369154214859009,-8.192055702209473,-45.81593704223633, 8.948808670043945
325,1897347414,0.61477464,0.07047596,-0.75149125,0.22879325,9.609657287597656,-2.6951887607574463,-1.096265196800232,-12.913541793823242,-48.685550689697266, 8.653630256652832
326,1897364081,0.6094611,0.0700891,-0.75622547,0.22752592,9.906256675720215,-2.449169397354126,-1.1849392652511597,-12.991130828857422,-50.36613464355469, 7.7404961585998535
327,1897380748,0.6037695,0.06966558,-0.76127815,0.22597522,10.077523231506348,-2.3462584018707275,-1.2028121948242188,-14.936527252197266,-53.75051498413086, 7.492097854614258
328,1897397415,0.5977587,0.06925455,-0.7665193,0.22435829,10.121521949768066,-2.479383707046509,-1.24981689453125,-15.371904373168945,-56.26046371459961, 7.741397857666016
329,1897414082,0.5915523,0.06850176,-0.77194273,0.22243689,10.202916145324707,-2.444593906402588,-1.2745496034622192,-18.571704864501953,-57.663204193115234, 8.683427810668945
330,1897430749,0.5851438,0.06733034,-0.77758765,0.22007029,10.357935905456543,-2.4232380390167236,-1.4012356996536255,-22.881410598754883,-59.2144889831543, 9.510625839233398
331,1897447416,0.5784888,0.06566762,-0.78349817,0.2171848,10.511783599853516,-2.430589437484741,-1.5833820104599,-27.921297073364258,-61.103023529052734, 10.549280166625977
332,1897464083,0.571626,0.06362989,-0.78960866,0.21380687,10.795666694641113,-2.455734968185425,-1.6513800621032715,-32.2721061706543,-62.68663024902344, 11.01480484008789
333,1897480750,0.56452656,0.061467234,-0.79589075,0.20997553,11.05605697631836,-2.44118332862854,-1.5429357290267944,-35.37336730957031,-64.6669921875, 10.337237358093262
334,1897497417,0.55710834,0.059562046,-0.8022498,0.20610183,11.411768913269043,-2.499222755432129,-1.2798125743865967,-34.584625244140625,-67.10940551757812, 9.260992050170898
335,1897514084,0.5494078,0.05768784,-0.80876005,0.20181812,12.165777206420898,-2.3397696018218994,-0.9373478889465332,-36.82876205444336,-69.46922302246094, 7.985095024108887
336,1897530751,0.54143685,0.055394202,-0.8156426,0.1962273,13.404011726379395,-2.009737253189087,-0.29241710901260376,-46.09512710571289,-72.331298828125, 5.908753395080566
337,1897547418,0.53275514,0.05312943,-0.8231047,0.18933639,15.056384086608887,-1.951637864112854,0.6515853404998779,-53.791629791259766,-79.03311157226562, 2.0948212146759033
338,1897564085,0.5228652,0.05131132,-0.83113545,0.18218982,15.669320106506348,-2.171687602996826,2.378577470779419,-53.907047271728516,-88.66061401367188, 0.4214537739753723
339,1897580752,0.5118235,0.05004398,-0.8394703,0.17556246,16.671865463256836,-1.2887684106826782,4.034803867340088,-48.94258117675781,-96.88528442382812, 0.6997231841087341
340,1897597419,0.50010407,0.04901961,-0.8480446,0.1682669,18.071502685546875,0.7360700368881226,6.521872520446777,-52.00800323486328,-102.21691131591797, -2.1398868560791016
341,1897614086,0.48748082,0.04605223,-0.85774636,0.15656608,17.095191955566406,0.4921671748161316,7.226790428161621,-85.38391876220703,-110.67413330078125, -4.509298801422119
342,1897630753,0.47519845,0.041611377,-0.8675267,0.14089935,13.661080360412598,0.6386358141899109,6.245967864990234,-113.91281127929688,-108.67100524902344, -9.440465927124023
343,1897647420,0.4615466,0.03525122,-0.8784628,0.11847048,11.387115478515625,-3.0110316276550293,-4.286701679229736,-161.26034545898438,-120.75579071044922, -18.426897048950195
344,1897664087,0.44654506,0.032948423,-0.8885135,0.10027825,13.454872131347656,-4.600905418395996,-3.310509204864502,-121.7337646484375,-128.37118530273438, -28.626415252685547
345,1897680754,0.43062273,0.033032387,-0.89784986,0.08566606,11.307950019836426,-5.758111476898193,-1.1599349975585938,-91.83948516845703,-132.64686584472656, -31.761417388916016
346,1897697421,0.415881,0.03484603,-0.90531254,0.07898305,9.163220405578613,-7.536531448364258,-1.3390015363693237,-36.93819808959961,-119.03987121582031, -20.109952926635742
347,1897714088,0.4048588,0.035581548,-0.91096705,0.07044468,8.868027687072754,-1.9873439073562622,-0.858741044998169,-51.501766204833984,-90.58305358886719, -21.186927795410156
348,1897730755,0.3997274,0.035231147,-0.9135082,0.06693259,8.610774040222168,-5.016751766204834,4.705420017242432,-22.977733612060547,-43.27393341064453, -4.013800621032715
349,1897747422,0.4001023,0.0365066,-0.9133251,0.066505335,5.085811614990234,1.5898629426956177,5.055044651031494,0.7668508291244507,-1.2412045001983643, -8.957146644592285
350,1897764089,0.4040637,0.034798026,-0.9119787,0.061778218,4.938855171203613,-0.5379471778869629,3.170961618423462,-34.803955078125,24.743494033813477, -3.96916127204895
351,1897780756,0.41231912,0.0341792,-0.90829253,0.061885394,5.149166107177734,-3.7961089611053467,1.8050577640533447,-1.4987196922302246,58.84913635253906, 0.2429201900959015
352,1897797423,0.42547178,0.037342545,-0.90144765,0.07051039,5.524448394775391,-3.6037421226501465,1.147848129272461,62.60066604614258,98.77462005615234, -2.0660200119018555
353,1897814090,0.4427688,0.0436646,-0.89159286,0.08433006,5.693578720092773,-2.40224552154541,0.7401419878005981,104.43047332763672,133.06893920898438, -9.232864379882812
354,1897830757,0.4631367,0.051693935,-0.87912315,0.09987436,6.139767169952393,-1.2562257051467896,0.21315768361091614,120.79987335205078,159.38525390625, -17.01032257080078
355,1897847424,0.48592094,0.059791364,-0.86447376,0.11397911,6.86150598526001,-0.5145739316940308,-0.0895230770111084,112.95592498779297,180.37608337402344, -24.428157806396484
356,1897864091,0.5106551,0.0669809,-0.8480087,0.1250042,7.8294854164123535,-0.5855884552001953,-0.3971085846424103,92.24465942382812,197.47850036621094, -31.583690643310547
357,1897880758,0.53734565,0.07320847,-0.82955515,0.13318552,9.198859214782715,-1.2838802337646484,-1.3075296878814697,73.09899139404297,215.38739013671875, -38.54779815673828
358,1897897425,0.5651853,0.07849437,-0.8093727,0.13899688,10.44594669342041,-1.447164535522461,-1.9047815799713135,57.11267852783203,228.0055694580078, -43.85248565673828
359,1897914092,0.59349334,0.08147271,-0.78802836,0.14191337,11.349498748779297,-1.2933247089385986,-2.8357319831848145,32.89476776123047,235.77789306640625, -43.33396530151367
360,1897930759,0.62175786,0.08190712,-0.7658051,0.14230642,12.277665138244629,-1.691251516342163,-3.7894163131713867,9.728107452392578,240.2128448486328, -40.298892974853516
361,1897947426,0.64917386,0.08039107,-0.74300086,0.141635,13.034908294677734,-2.5209004878997803,-4.74337911605835,-3.170712471008301,239.5641632080078, -34.08020782470703
362,1897964093,0.67545974,0.078620166,-0.7193595,0.1417574,13.547944068908691,-2.664313316345215,-5.092207431793213,1.2085179090499878,238.24964904785156, -28.608631134033203
363,1897980760,0.7005844,0.0744048,-0.6957002,0.14016625,13.630812644958496,-2.040905237197876,-5.070409297943115,-0.5406217575073242,232.57998657226562, -23.359695434570312
364,1897997427,0.7240712,0.069378816,-0.67216367,0.13821673,13.88096809387207,-1.9119770526885986,-5.0491509437561035,-7.742204666137695,225.08204650878906, -18.569067001342773
365,1898014094,0.74497247,0.06758812,-0.64857346,0.1407147,13.166994094848633,-2.2672672271728516,-5.188198089599609,-8.155618667602539,215.5044708251953, -13.062078475952148
366,1898030761,0.76403993,0.06524824,-0.6257319,0.14298834,12.525404930114746,-3.1239655017852783,-5.480245113372803,11.440666198730469,202.1841583251953, -6.549846172332764
367,1898047428,0.7805334,0.0660088,-0.6035399,0.14882956,12.957576751708984,-3.73738431930542,-6.051185131072998,43.610260009765625,186.30458068847656, 1.6658283472061157
368,1898064095,0.7941669,0.07052228,-0.5823602,0.15868984,12.47707748413086,-3.5616917610168457,-7.176610946655273,80.70889282226562,167.0503692626953, 11.036837577819824
369,1898080762,0.8046563,0.07853859,-0.5628715,0.17185913,11.802660942077637,-2.134697914123535,-8.535862922668457,112.77935028076172,143.07749938964844, 19.319366455078125
370,1898097429,0.811769,0.08698693,-0.54713607,0.18467925,11.04733943939209,-0.4357873797416687,-10.615442276000977,111.21635437011719,108.61346435546875, 21.72857093811035
371,1898114096,0.8151195,0.09267119,-0.5382486,0.19308195,9.678407669067383,1.14792001247406,-12.154827117919922,72.72830200195312,57.18381118774414, 16.346027374267578
372,1898130763,0.8147673,0.0944328,-0.53724647,0.19647636,9.04438304901123,-1.863353967666626,-11.507879257202148,24.10512924194336,1.3910870552062988, 12.745407104492188
373,1898147430,0.8109727,0.09679536,-0.541501,0.19932541,8.884618759155273,-4.450270652770996,-10.43806266784668,20.6008243560791,-41.85982131958008, 15.527390480041504
374,1898164097,0.8047276,0.098514095,-0.54967225,0.20141755,8.78630256652832,-3.6040215492248535,-7.983811855316162,10.470907211303711,-72.37864685058594, 19.648353576660156
375,1898180764,0.7972453,0.10373784,-0.5577048,0.20640685,9.046165466308594,-2.1792523860931396,-4.92904806137085,41.85379409790039,-79.13250732421875, 24.03407859802246
376,1898197431,0.7908802,0.110834114,-0.562959,0.21284181,12.816449165344238,1.9554030895233154,14.175771713256836,60.811920166015625,-61.21974563598633, 21.199331283569336
377,1898214098,0.78462493,0.11585989,-0.5674717,0.22116974,14.321466445922852,1.6803561449050903,7.266493797302246,57.86760330200195,-52.3707160949707, 38.79660415649414
378,1898230765,0.7748083,0.120160595,-0.5769579,0.22880779,19.385984420776367,1.5110235214233398,-4.720926761627197,46.53112030029297,-92.579345703125, 47.29636001586914
379,1898247432,0.76238865,0.12195575,-0.5898102,0.23667397,13.819437980651855,5.029297351837158,2.670868396759033,30.947265625,-116.66175079345703, 65.34463500976562
380,1898264099,0.75036395,0.11459402,-0.60442823,0.24184446,9.51786994934082,-7.0214619636535645,-0.7796041965484619,-31.19530487060547,-111.68756103515625, 89.22560119628906
381,1898280766,0.73768455,0.115854606,-0.61578375,0.2514151,8.263647079467773,-3.845505952835083,-1.531190037727356,37.53434371948242,-108.44483184814453, 74.57494354248047
382,1898297433,0.7264206,0.1143971,-0.62702507,0.25703332,8.156595230102539,-7.064902305603027,0.3007071018218994,6.08829402923584,-100.31775665283203, 63.478759765625
383,1898314100,0.7157138,0.11447525,-0.63745475,0.26134422,10.683640480041504,-1.777422308921814,0.5638035535812378,9.126093864440918,-97.61278533935547, 48.67152786254883
384,1898330767,0.70531315,0.11356266,-0.64829725,0.2633402,11.545455932617188,-1.777521014213562,-0.2175714671611786,-6.879104137420654,-98.35359954833984, 41.400474548339844
385,1898347434,0.6956912,0.1135282,-0.65788466,0.26516578,11.09192943572998,-2.034813642501831,0.17238904535770416,-1.7162612676620483,-90.5235824584961, 34.275569915771484
386,1898364101,0.6873534,0.11202121,-0.6668057,0.26526737,10.472940444946289,-1.1387009620666504,-0.14864498376846313,-16.350879669189453,-80.19513702392578, 29.83223533630371
387,1898380768,0.68016416,0.11011803,-0.674502,0.26513785,10.509635925292969,-2.182558059692383,-0.42436498403549194,-17.93084144592285,-68.60405731201172, 27.528724670410156
388,1898397435,0.6742211,0.1092774,-0.68032795,0.26577878,10.593725204467773,-1.9720039367675781,-0.0523892380297184,-6.925365447998047,-55.43777847290039, 22.520402908325195
389,1898414102,0.66973376,0.108394556,-0.6846668,0.26634338,10.708761215209961,-1.3380768299102783,0.2966436445713043,-5.856105327606201,-41.72404861450195, 18.591583251953125
390,1898430769,0.6666849,0.10658122,-0.6877901,0.26667672,10.514954566955566,-1.35883629322052,0.417743980884552,-10.078716278076172,-27.836061477661133, 18.37713050842285
391,1898447436,0.66441774,0.10379533,-0.69055927,0.26627722,10.316106796264648,-1.6952853202819824,-0.24844606220722198,-17.927410125732422,-21.28401756286621, 17.934791564941406
392,1898464103,0.6623397,0.0999675,-0.69375616,0.26460335,9.444589614868164,-2.6929337978363037,-0.41571274399757385,-29.658096313476562,-21.352108001708984, 17.028064727783203
393,1898480770,0.6597883,0.09725295,-0.6970963,0.26320767,8.91861629486084,-3.621697187423706,-0.015969885513186455,-23.198524475097656,-26.104543685913086, 13.94562816619873
394,1898497437,0.65668076,0.09556009,-0.70082515,0.2616925,8.969258308410645,-3.3312525749206543,0.49552121758461,-19.470457077026367,-32.47377395629883, 9.767986297607422
395,1898514104,0.65293956,0.0948653,-0.70497143,0.26016507,8.925759315490723,-3.5352840423583984,0.4469238519668579,-15.362570762634277,-39.22986602783203, 6.314691066741943
396,1898530771,0.64887106,0.09432591,-0.709426,0.25842553,9.066218376159668,-2.6392176151275635,0.18019862473011017,-16.035755157470703,-42.63079833984375, 5.391641139984131
397,1898547438,0.6444119,0.09382363,-0.7141539,0.25673884,9.194108009338379,-2.4172377586364746,-0.27862316370010376,-15.848898887634277,-45.799285888671875, 6.3184943199157715
398,1898564105,0.6396731,0.093575075,-0.71895474,0.25527647,9.335495948791504,-2.3899381160736084,-0.5408980846405029,-13.574222564697266,-47.80992126464844, 6.61021614074707
399,1898580772,0.63468844,0.093198776,-0.72399634,0.25360212,9.36539077758789,-2.4431285858154297,-0.6427493095397949,-15.451318740844727,-50.0047607421875, 6.8992767333984375
400,1898597439,0.6295833,0.093001455,-0.72902954,0.25197533,9.428683280944824,-2.5318665504455566,-0.7112427353858948,-14.344161033630371,-50.85714340209961, 6.4232869148254395
401,1898614106,0.6244016,0.092506535,-0.7341947,0.25004688,9.392826080322266,-2.4524972438812256,-0.7997226119041443,-17.327735900878906,-51.498023986816406, 6.82816743850708
402,1898630773,0.6191172,0.09200044,-0.7393418,0.24820045,9.4352445602417,-2.5227267742156982,-0.8380960822105408,-16.866106033325195,-51.875831604003906, 7.404576778411865
403,1898647440,0.6137729,0.0916829,-0.7443312,0.24667427,9.565013885498047,-2.5718109607696533,-0.8695648312568665,-14.13219165802002,-51.63632583618164, 7.813867092132568
404,1898664107,0.60843784,0.091614895,-0.7490867,0.2455187,9.684813499450684,-2.521479368209839,-0.9739668369293213,-10.794422149658203,-50.80035400390625, 7.939903736114502
405,1898680774,0.6030059,0.09131033,-0.7538862,0.24433963,9.873462677001953,-2.2865147590637207,-1.0036307573318481,-11.922202110290527,-51.10696029663086, 9.25401782989502
406,1898697441,0.5973815,0.09068837,-0.7588648,0.24297248,9.91950798034668,-2.549323797225952,-1.0017420053482056,-14.392992973327637,-52.44145584106445, 10.558893203735352
407,1898714108,0.59154457,0.08987735,-0.76396537,0.24156609,10.27441120147705,-2.409195899963379,-1.1339854001998901,-15.449516296386719,-53.76988220214844, 11.818418502807617
408,1898730775,0.58558816,0.08871263,-0.7692093,0.23986235,10.514666557312012,-2.3271639347076416,-1.177366018295288,-18.61588478088379,-54.58653259277344, 12.758220672607422
409,1898747442,0.57935363,0.08696816,-0.77480257,0.23762853,10.904318809509277,-1.9692013263702393,-1.2869231700897217,-24.161880493164062,-56.84098815917969, 14.36677074432373
410,1898764109,0.5725847,0.084512785,-0.78098816,0.23465326,11.085494995117188,-2.2170660495758057,-1.342803955078125,-31.59242820739746,-61.340755462646484, 16.435909271240234
411,1898780776,0.5653498,0.08170132,-0.7875964,0.23107773,11.240311622619629,-2.516706943511963,-1.2177746295928955,-36.63206100463867,-65.29177856445312, 16.989347457885742
412,1898797443,0.557577,0.07868882,-0.7946165,0.226938,11.547749519348145,-2.9725329875946045,-0.9476845860481262,-40.82427978515625,-69.81697845458984, 16.976511001586914
413,1898814110,0.54917854,0.075509705,-0.8021105,0.22208217,12.044483184814453,-2.8284575939178467,-0.6867568492889404,-45.78076934814453,-75.19606018066406, 16.376794815063477
414,1898830777,0.54005384,0.072190754,-0.81006914,0.21660733,13.272001266479492,-2.343806266784668,-0.4003204107284546,-50.05914306640625,-81.08456420898438, 16.165658950805664
415,1898847444,0.53020513,0.068915464,-0.81846404,0.21035719,14.799687385559082,-1.573698878288269,-0.07866952568292618,-54.51132583618164,-87.21382904052734, 14.348246574401855
416,1898864111,0.51927537,0.06690217,-0.8272137,0.20394802,15.559410095214844,-1.5958555936813354,0.6822922825813293,-50.8114128112793,-96.5236587524414, 8.414953231811523
417,1898880778,0.5076997,0.065655485,-0.83600825,0.19753659,16.51922035217285,-1.708923578262329,2.8056764602661133,-47.857173919677734,-101.4760513305664, 4.988903045654297
418,1898897445,0.49580595,0.0647601,-0.8448,0.19051468,18.5037841796875,-0.23675186932086945,4.774219036102295,-50.00365447998047,-104.1066665649414, 1.2867592573165894
419,1898914112,0.48358688,0.062133323,-0.8544094,0.17963353,18.510480880737305,1.606877088546753,7.816054344177246,-79.2559585571289,-108.31505584716797, -0.9974474310874939
420,1898930779,0.47101802,0.05607866,-0.86506784,0.1632643,16.25371551513672,1.1065529584884644,7.22513484954834,-124.05682373046875,-112.0722427368164, 1.8051624298095703
421,1898947446,0.4587601,0.04850674,-0.87585276,0.141662,12.432724952697754,0.07865485548973083,2.3970510959625244,-160.36610412597656,-111.04379272460938, -6.408172607421875
422,1898964113,0.4444347,0.040919155,-0.88733333,0.11594465,12.527843475341797,-3.3215460777282715,-6.2439985275268555,-185.1981964111328,-127.1020736694336, -17.053386688232422
423,1898980780,0.4298808,0.037656944,-0.8969772,0.09600266,12.419734954833984,-4.6184234619140625,-0.4836854040622711,-135.19729614257812,-124.70204162597656, -26.156726837158203
424,1898997447,0.41531503,0.035135664,-0.90555686,0.0790317,10.360799789428711,-5.406171798706055,0.2699446976184845,-113.98688507080078,-121.38296508789062, -22.242130279541016
425,1899014114,0.40338752,0.033658113,-0.9118042,0.068985336,8.257431983947754,-5.567454814910889,-1.4658938646316528,-67.27839660644531,-97.21663665771484, -10.993361473083496
426,1899030781,0.39523122,0.030395031,-0.9160193,0.061457295,10.03817367553711,-6.289329528808594,-1.4301612377166748,-56.368804931640625,-66.51944732666016, 4.891856670379639
427,1899047448,0.39374527,0.029723892,-0.9163524,0.06617959,6.925433158874512,-2.9644968509674072,6.14595365524292,28.04281234741211,-12.517263412475586, 18.203571319580078
428,1899064115,0.39707273,0.029124688,-0.9145311,0.07154177,4.03917932510376,1.2937346696853638,5.390381813049316,32.24648666381836,23.69025421142578, 16.849109649658203
429,1899080782,0.40418738,0.027165534,-0.91128844,0.07381126,4.30505895614624,-0.7654486894607544,2.751791477203369,9.030601501464844,51.40461730957031, 14.823909759521484
430,1899097449,0.41586438,0.026935568,-0.90549105,0.080109745,4.9245147705078125,-3.426800012588501,1.2975188493728638,39.518836975097656,86.95166015625, 12.397470474243164
431,1899114116,0.4323643,0.030457003,-0.89643943,0.092358604,5.190694808959961,-1.9761309623718262,1.6305372714996338,88.18195343017578,125.31352233886719, 2.7896525859832764
432,1899130783,0.45288393,0.036014177,-0.884581,0.10543186,5.6050639152526855,-0.28032174706459045,1.4960544109344482,100.25385284423828,157.3067626953125, -10.440290451049805
433,1899147450,0.47622126,0.041641016,-0.8706647,0.115855314,6.269484043121338,0.4334869980812073,0.7139774560928345,85.15235900878906,180.13726806640625, -21.6519832611084
434,1899164117,0.50155985,0.046292342,-0.8551355,0.122631624,7.098186492919922,0.25926724076271057,0.008457854390144348,60.84497833251953,197.1239471435547, -29.79502296447754
435,1899180784,0.5289863,0.050484702,-0.83758765,0.12677486,8.2871732711792,-0.7889350056648254,-0.8123179078102112,44.82377624511719,215.91053771972656, -38.56808090209961
436,1899197451,0.5585099,0.054946158,-0.8174493,0.12970877,9.680052757263184,-1.199320912361145,-1.336554765701294,40.38255310058594,236.76206970214844, -47.244625091552734
437,1899214118,0.5888999,0.05801898,-0.79555804,0.13006988,11.131211280822754,-0.33091461658477783,-1.844943642616272,21.822330474853516,248.63653564453125, -50.75320816040039
438,1899230785,0.6192993,0.057178,-0.7728575,0.12605835,11.783419609069824,-1.2127482891082764,-2.885089635848999,-17.219703674316406,253.7277069091797, -47.3801383972168
439,1899247452,0.6488851,0.05446431,-0.7491443,0.12151161,13.106616020202637,-2.9599339962005615,-4.0451741218566895,-26.824018478393555,255.14707946777344, -39.41077423095703
440,1899264119,0.6772726,0.05271288,-0.7239921,0.119827025,14.34999942779541,-3.164160966873169,-4.544445037841797,-6.131822109222412,255.6988983154297, -31.15399932861328
441,1899280786,0.7041678,0.05121281,-0.69796765,0.11985963,14.462841033935547,-2.095590591430664,-4.390295505523682,4.85749626159668,252.79150390625, -23.51311683654785
442,1899297453,0.7293027,0.048747823,-0.6717383,0.12045283,14.805774688720703,-2.543389320373535,-5.234743595123291,3.6763980388641357,246.3797607421875, -14.796906471252441
443,1899314120,0.7521954,0.047565304,-0.6455469,0.12332457,15.218379974365234,-3.4328629970550537,-6.310476779937744,21.368005752563477,235.59925842285156, -7.4341325759887695
444,1899330787,0.77259123,0.049064036,-0.61974186,0.12890224,13.914083480834961,-3.7923333644866943,-6.713344573974609,47.7522087097168,221.20851135253906, -3.1092770099639893
445,1899347454,0.78987664,0.054118883,-0.5952551,0.13725016,12.79758071899414,-3.383162021636963,-6.704550743103027,78.34688568115234,198.81881713867188, -0.3589300811290741
446,1899364121,0.80365884,0.06044063,-0.5735036,0.14687803,12.45729923248291,-3.411085605621338,-7.260637283325195,89.20781707763672,168.9868621826172, 5.722736358642578
447,1899380788,0.8140041,0.066630796,-0.5551637,0.15732542,12.590218544006348,-3.6053247451782227,-8.649060249328613,89.70662689208984,137.14332580566406, 15.646160125732422
448,1899397455,0.8205621,0.06995029,-0.54227525,0.16650155,11.228175163269043,-1.9023072719573975,-10.977760314941406,64.64423370361328,94.79768371582031, 26.068830490112305
449,1899414122,0.8226585,0.06822956,-0.53753453,0.17214674,9.560918807983398,-1.1893073320388794,-13.05384349822998,15.878304481506348,36.37945556640625, 33.96204376220703
450,1899430789,0.8206078,0.06599838,-0.5396585,0.17611419,8.350053787231445,-2.1221930980682373,-13.410228729248047,0.6263170838356018,-17.834474563598633, 34.48851013183594
451,1899447456,0.8156163,0.06781077,-0.54535437,0.18099907,9.018158912658691,-2.618387222290039,-11.947611808776855,23.873029708862305,-53.26261901855469, 29.836458206176758
452,1899464123,0.8074224,0.07252153,-0.5549232,0.1867362,8.962553977966309,-2.8802788257598877,-10.648658752441406,40.014156341552734,-90.09998321533203, 29.525442123413086
453,1899480790,0.800113,0.080145985,-0.5609188,0.1968913,13.174009323120117,-0.835334300994873,12.549696922302246,77.21065521240234,-68.34208679199219, 39.996517181396484
454,1899497457,0.7932159,0.089576066,-0.5651021,0.20843364,16.686508178710938,9.549821853637695,7.528741359710693,94.70977783203125,-58.54702377319336, 39.10432434082031
455,1899514124,0.7829624,0.08581606,-0.5789217,0.21084508,21.73650360107422,0.4799058437347412,-5.644832134246826,-24.477642059326172,-110.89651489257812, 51.38182067871094
456,1899530791,0.76947695,0.087235875,-0.59237915,0.22222182,15.076374053955078,0.5887240767478943,-1.4153088331222534,41.54054641723633,-123.95391845703125, 83.52043151855469
457,1899547458,0.7569293,0.08091836,-0.6075768,0.22662967,8.292694091796875,1.7071045637130737,1.2125210762023926,-30.994237899780273,-121.67461395263672, 77.7896728515625
458,1899564125,0.7463187,0.07208251,-0.62084293,0.2288385,7.321798324584961,-12.802589416503906,-2.6653337478637695,-51.350730895996094,-100.84442138671875, 72.79737854003906
459,1899580792,0.7380697,0.07463627,-0.62707776,0.23760486,7.88464879989624,-4.497183322906494,1.3553333282470703,45.005496978759766,-69.3382568359375, 50.53634262084961
460,1899597459,0.73091286,0.07293619,-0.63413227,0.2415021,11.311858177185059,-2.112516164779663,1.0846527814865112,0.5322495698928833,-64.35980987548828, 42.779781341552734
461,1899614126,0.7235573,0.07195423,-0.6413795,0.24478602,11.70583724975586,-1.782023310661316,0.9030313491821289,1.244694471359253,-67.70616149902344, 36.996219635009766
462,1899630793,0.71662503,0.07124604,-0.6482929,0.24716209,10.332441329956055,-1.5504939556121826,0.9378154277801514,-1.0443897247314453,-65.09992218017578, 30.4020938873291
463,1899647460,0.7104819,0.06797932,-0.65542936,0.24699551,10.048177719116211,-1.565816879272461,0.5072586536407471,-25.753002166748047,-59.59286880493164, 28.055206298828125
464,1899664127,0.70501316,0.063963674,-0.66214705,0.2458182,10.22534465789795,-2.3902482986450195,0.3353668451309204,-33.57280349731445,-53.71912384033203, 25.16315269470215
465,1899680794,0.70024806,0.06095274,-0.6677417,0.24506892,10.497213363647461,-2.6579432487487793,0.35385769605636597,-25.164865493774414,-46.592994689941406, 20.986572265625
466,1899697461,0.6963828,0.059108652,-0.6720889,0.24465069,10.21298599243164,-2.3746838569641113,0.9915531873703003,-16.307064056396484,-38.291954040527344, 15.18734073638916
467,1899714128,0.6932262,0.056763537,-0.6759753,0.2434604,10.314152717590332,-1.8749624490737915,1.1424232721328735,-21.788326263427734,-32.29823684692383, 12.432034492492676
468,1899730795,0.69044596,0.052935958,-0.68009216,0.24074316,10.257811546325684,-1.8672049045562744,0.8225595951080322,-36.48750305175781,-29.77828598022461, 11.514853477478027
469,1899747462,0.6876348,0.04923058,-0.68424743,0.23778178,10.00275993347168,-2.1711292266845703,0.5338358283042908,-37.10694122314453,-30.41085433959961, 9.860363960266113
470,1899764129,0.68408304,0.04632111,-0.68883675,0.23534817,9.362129211425781,-2.836744546890259,0.8637667894363403,-31.323484420776367,-37.084495544433594, 9.977313041687012
471,1899780796,0.67998815,0.044614434,-0.6935746,0.23362368,8.712295532226562,-3.6429617404937744,0.8646069765090942,-22.38045883178711,-42.09195327758789, 8.54257869720459
472,1899797463,0.6757204,0.043638166,-0.69827193,0.23219419,8.67841625213623,-4.009523868560791,0.7976275682449341,-17.44438362121582,-43.82767105102539, 6.6962690353393555
473,1899814130,0.67143375,0.042280853,-0.7030985,0.23030812,8.809523582458496,-3.317556142807007,0.5663089156150818,-21.614580154418945,-44.064727783203125, 6.463529586791992
474,1899830797,0.6668967,0.040907096,-0.7080923,0.22843128,9.081613540649414,-2.9335880279541016,0.11804704368114471,-21.843250274658203,-46.03541564941406, 7.026556968688965
475,1899847464,0.6620034,0.039934948,-0.71319705,0.22695103,9.277161598205566,-2.7329487800598145,-0.1590978503227234,-18.150232315063477,-48.80965042114258, 7.480256080627441
476,1899864131,0.6568752,0.039520312,-0.7181853,0.22619301,9.288594245910645,-2.7929656505584717,-0.05198919028043747,-11.827278137207031,-50.114601135253906, 8.369715690612793
477,1899880798,0.65153694,0.03966781,-0.72302794,0.2261793,9.217728614807129,-3.084423542022705,-0.1806214451789856,-5.334856986999512,-51.17897033691406, 9.243309020996094
478,1899897465,0.6458102,0.04020072,-0.72793114,0.22678062,8.865621566772461,-3.2159314155578613,-0.10871905833482742,-0.5419960618019104,-53.82632064819336, 10.700976371765137
479,1899914132,0.63969857,0.04130338,-0.7328426,0.22808287,8.763620376586914,-3.6965341567993164,-0.15610748529434204,5.583064556121826,-56.49583435058594, 11.56025505065918
480,1899930799,0.6332896,0.04303,-0.7376488,0.23014598,8.789416313171387,-3.7746453285217285,-0.2971166968345642,12.405716896057129,-58.30738067626953, 12.191988945007324
481,1899947466,0.6266432,0.044853058,-0.74250627,0.23235981,8.913501739501953,-3.4004738330841064,-0.5105598568916321,13.574385643005371,-59.85688400268555, 12.74255084991455
482,1899964133,0.61974186,0.046050604,-0.7477205,0.23390959,9.1546630859375,-3.081906795501709,-0.786637008190155,6.992167949676514,-61.911224365234375, 13.588468551635742
483,1899980800,0.61261356,0.047013268,-0.75313234,0.23513025,9.61898422241211,-2.84130597114563,-1.0083215236663818,4.0514326095581055,-63.65801239013672, 13.821083068847656
484,1899997467,0.60531473,0.04766987,-0.75877184,0.23576932,10.305731773376465,-2.5280654430389404,-1.1144846677780151,-0.5661391019821167,-65.20208740234375, 13.309327125549316
485,1900014134,0.59780246,0.047655117,-0.76482624,0.2353767,10.99095344543457,-2.116093397140503,-1.076791763305664,-9.348766326904297,-67.30302429199219, 13.007697105407715
486,1900030801,0.5899517,0.046479657,-0.7716019,0.23329647,11.540595054626465,-1.621504783630371,-1.5692577362060547,-24.050466537475586,-70.73503875732422, 12.9719877243042
487,1900047468,0.5818463,0.044352688,-0.77891725,0.2297301,11.843772888183594,-1.5384950637817383,-1.4074060916900635,-36.580989837646484,-73.23435974121094, 12.590975761413574
488,1900064135,0.5737111,0.041577935,-0.78635067,0.22534353,12.09126091003418,-2.1747384071350098,-1.1000155210494995,-43.742679595947266,-73.10832977294922, 12.881098747253418
489,1900080802,0.5653607,0.038458746,-0.79400784,0.22009104,12.507299423217773,-2.4948527812957764,-0.6218522787094116,-50.070377349853516,-74.8868637084961, 11.739391326904297
490,1900097469,0.55678403,0.034794506,-0.8019936,0.2135122,12.931591033935547,-2.114929676055908,-0.2835044860839844,-59.875694274902344,-76.95113372802734, 10.002706527709961
491,1900114136,0.54760325,0.030430434,-0.8106514,0.20505977,13.757735252380371,-1.5462961196899414,0.4087381362915039,-73.73090362548828,-82.30792236328125, 7.751486778259277
492,1900130803,0.5373902,0.025849946,-0.82009035,0.19492456,15.17593002319336,-0.6608375906944275,1.4142359495162964,-84.81893157958984,-91.09092712402344, 4.262282848358154
493,1900147470,0.5257483,0.022637928,-0.830145,0.18421675,16.711055755615234,0.26664984226226807,3.0707130432128906,-83.56824493408203,-103.4138412475586, -3.5173163414001465
494,1900164137,0.5125959,0.020560538,-0.8406838,0.17341785,17.386112213134766,0.7681914567947388,5.008981704711914,-80.3711166381836,-115.31292724609375, -8.299262046813965
495,1900180804,0.49862733,0.018776234,-0.85153073,0.16097789,18.339427947998047,0.9622525572776794,8.272819519042969,-89.08372497558594,-121.7934341430664, -14.72508716583252
496,1900197471,0.4834542,0.015634684,-0.86289877,0.14640194,16.19845962524414,-1.5850986242294312,7.433050632476807,-106.67857360839844,-129.5335235595703, -12.668089866638184
497,1900214138,0.46743345,0.0146894315,-0.87357825,0.1347273,13.16043472290039,-4.649890422821045,0.3807888329029083,-81.39459228515625,-134.28219604492188, -15.269392013549805
498,1900230805,0.4499884,0.015958935,-0.8845412,0.121831454,12.231232643127441,-1.6428604125976562,-4.9247894287109375,-81.74322509765625,-145.9737548828125, -31.171518325805664
499,1900247472,0.4325904,0.017827628,-0.8950223,0.107159086,13.223072052001953,-4.613034248352051,-0.26832571625709534,-90.28441619873047,-144.9033660888672, -40.4100456237793
500,1900264139,0.4178622,0.02060661,-0.9031827,0.09606229,11.12552261352539,-4.884777545928955,3.596541166305542,-64.1948013305664,-121.85000610351562, -37.654205322265625
501,1900280806,0.4068896,0.023100825,-0.90901494,0.08717444,7.831871509552002,-4.411708831787109,2.5246682167053223,-50.31135940551758,-91.40218353271484, -32.37337875366211
502,1900297473,0.39783964,0.02420339,-0.9138269,0.07783608,8.461019515991211,-4.709261894226074,-3.7704710960388184,-56.7350959777832,-75.80941772460938, -26.276500701904297
503,1900314140,0.3946237,0.025485048,-0.9154151,0.07508811,10.53084659576416,-7.3881072998046875,1.0418332815170288,-14.098199844360352,-29.337961196899414, -13.05924129486084
504,1900330807,0.3970293,0.029137751,-0.9138508,0.07997598,5.610606670379639,-2.475555419921875,5.677211761474609,40.99690628051758,14.661396026611328, -10.751006126403809
505,1900347474,0.40424922,0.032074075,-0.9101869,0.084343836,3.218797206878662,-0.43498146533966064,5.129342079162598,35.94664001464844,50.88444519042969, -10.735943794250488
506,1900364141,0.4158413,0.03398107,-0.90467596,0.0865054,3.910339117050171,-1.5779656171798706,2.011847496032715,19.383533477783203,83.46031951904297, -13.365113258361816
507,1900380808,0.43163714,0.037326217,-0.8966851,0.09084155,5.042218208312988,-3.3125574588775635,0.2876683175563812,37.510498046875,116.3409652709961, -19.176546096801758
508,1900397475,0.45139652,0.04311856,-0.8857843,0.098835774,5.836040496826172,-2.997910499572754,0.6587563753128052,68.1205062866211,148.8240509033203, -26.6413631439209
509,1900414142,0.4745021,0.05000163,-0.87224144,0.10743614,6.388627529144287,-0.8983430862426758,0.6728325486183167,75.99858856201172,176.83572387695312, -34.466087341308594
510,1900430809,0.50001943,0.05497859,-0.85692006,0.11245386,7.233283996582031,-0.38875702023506165,-0.210105299949646,48.782039642333984,197.2686767578125, -37.10863494873047
511,1900447476,0.52700204,0.05743857,-0.84023124,0.113936596,8.367810249328613,-1.1412274837493896,-1.0333186388015747,19.8137264251709,211.20761108398438, -36.078365325927734
512,1900464143,0.5558043,0.058328234,-0.821374,0.11412481,9.704886436462402,-1.9784184694290161,-1.4152164459228516,7.627442359924316,230.30136108398438, -33.98350143432617
513,1900480810,0.5856728,0.057901565,-0.8004469,0.11366497,11.012530326843262,-2.263340711593628,-2.4163451194763184,0.13699975609779358,245.01222229003906, -30.707212448120117
514,1900497477,0.6151139,0.05567174,-0.77832305,0.11291139,11.988119125366211,-2.5122451782226562,-3.706728458404541,-7.623645305633545,248.78207397460938, -22.127120971679688
515,1900514144,0.6433774,0.052676763,-0.75530267,0.11317551,12.636974334716797,-2.8453474044799805,-4.482687473297119,-4.265897750854492,247.2804412841797, -13.174384117126465
516,1900530811,0.6700924,0.05040429,-0.7314567,0.11578862,13.27797794342041,-3.253596305847168,-4.999676704406738,12.352609634399414,243.21861267089844, -5.647948265075684
517,1900547478,0.6954441,0.049732376,-0.706533,0.12122547,13.47217845916748,-2.9851512908935547,-5.248152256011963,35.261810302734375,241.0854949951172, 0.007358786650002003
518,1900564145,0.71956784,0.0497321,-0.6808085,0.12747101,13.889384269714355,-2.2732152938842773,-5.258369445800781,43.51139450073242,238.73150634765625, 1.3497941493988037
519,1900580812,0.742151,0.050481625,-0.65476733,0.13395357,13.836393356323242,-2.453305244445801,-5.017486572265625,49.151309967041016,232.5814971923828, 0.2517397105693817
520,1900597479,0.76296765,0.052684527,-0.6286841,0.1409295,13.114530563354492,-2.378666400909424,-5.212113857269287,59.455909729003906,223.7505645751953, -2.1648998260498047
521,1900614146,0.781503,0.056223765,-0.6035592,0.14767696,12.801131248474121,-2.383007526397705,-5.664381504058838,65.39247131347656,207.56492614746094, -6.585268497467041
522,1900630813,0.7975669,0.06014809,-0.5802459,0.1535719,12.688966751098633,-2.29937744140625,-5.8019795417785645,63.06184768676758,186.9385223388672, -9.555273056030273
523,1900647480,0.8105861,0.064503714,-0.5597906,0.15944958,12.732515335083008,-3.708181858062744,-7.362602710723877,63.6236686706543,158.74644470214844, -6.973726272583008
524,1900664147,0.81990874,0.069977604,-0.54315954,0.16682607,12.39484691619873,-4.298215389251709,-10.724560737609863,73.09152221679688,122.75113677978516, 2.8082950115203857
525,1900680814,0.8243928,0.07186152,-0.5341134,0.1730186,11.320058822631836,-2.700716495513916,-12.993585586547852,42.088626861572266,65.60774993896484, 18.718637466430664
526,1900697481,0.8234381,0.0703115,-0.5344588,0.17708758,9.728087425231934,-2.361171007156372,-13.121109962463379,6.3658599853515625,-4.406270503997803, 30.391193389892578
527,1900714148,0.8182445,0.07026333,-0.54105496,0.18110509,8.83919620513916,-3.3563077449798584,-12.301748275756836,9.142306327819824,-57.08006286621094, 32.75716781616211
528,1900730815,0.81026024,0.074588366,-0.5504486,0.18687317,8.456347465515137,-3.03049898147583,-9.884236335754395,38.148921966552734,-87.67365264892578, 31.143924713134766
529,1900747482,0.8007722,0.08450157,-0.55943745,0.19660452,9.486183166503906,-3.4230148792266846,-4.4034929275512695,85.58930969238281,-96.1634292602539, 33.773006439208984
530,1900764149,0.792484,0.09860467,-0.5631319,0.21243536,10.728288650512695,-4.061882495880127,11.099251747131348,138.59927368164062,-64.47665405273438, 46.50611877441406
531,1900780816,0.7859723,0.112997465,-0.562391,0.23064211,11.966980934143066,1.8471171855926514,8.70173168182373,154.6509552001953,-32.33988571166992, 52.687095642089844
532,1900797483,0.7770105,0.12435521,-0.5673824,0.24262711,21.49950408935547,13.750368118286133,-2.3677306175231934,106.98202514648438,-72.88231658935547, 39.15465545654297
533,1900814150,0.7663696,0.1170251,-0.582969,0.24316719,16.74420738220215,3.609395980834961,0.861457109451294,-53.781044006347656,-114.58063507080078, 62.9127311706543
534,1900830817,0.7545864,0.113532655,-0.5954186,0.25136977,12.008685111999512,-3.6125411987304688,-0.952090859413147,3.316192865371704,-102.85828399658203, 87.34213256835938
535,1900847484,0.7438137,0.10938686,-0.6073164,0.25679326,7.274818420410156,-0.4505452513694763,0.39522701501846313,-11.26523494720459,-96.87870025634766, 73.40144348144531
536,1900864151,0.73415583,0.1064891,-0.6169731,0.26271617,8.318490982055664,-10.746386528015137,-0.0028304383158683777,0.3273497521877289,-82.59751892089844, 67.095703125
537,1900880818,0.7256153,0.10758248,-0.62392586,0.2694905,8.523957252502441,-2.6431493759155273,1.6039327383041382,28.169517517089844,-70.79635620117188, 50.37877655029297
538,1900897485,0.71722335,0.106503695,-0.632137,0.27322313,11.617898941040039,-2.3111841678619385,1.4770848751068115,1.844464898109436,-74.68209838867188, 45.169166564941406
539,1900914152,0.70827055,0.10747969,-0.64007765,0.2776724,10.9976167678833,-2.090177059173584,0.8100641965866089,16.010286331176758,-79.13323211669922, 40.62947463989258
540,1900930819,0.69943917,0.10759805,-0.64830345,0.28091007,10.047467231750488,-1.3781870603561401,0.7374005317687988,5.866936206817627,-79.2557144165039, 38.48491668701172
541,1900947486,0.6913878,0.10661677,-0.6561451,0.28300112,10.134021759033203,-2.1195030212402344,0.006260186433792114,-4.370792865753174,-72.66668701171875, 36.09138870239258
542,1900964153,0.68445796,0.10696109,-0.66234016,0.28527606,11.05467700958252,-1.8187297582626343,0.5747267603874207,5.138408184051514,-62.22868728637695, 27.600231170654297
543,1900980820,0.6789267,0.105717145,-0.6678743,0.28605375,10.761064529418945,-1.179478645324707,1.1754252910614014,-8.886504173278809,-50.745704650878906, 24.56802749633789
544,1900997487,0.67479163,0.10306741,-0.672593,0.28574842,10.868147850036621,-2.067033529281616,0.31490808725357056,-19.837535858154297,-38.56796646118164, 22.647432327270508
545,1901014154,0.67136633,0.100115635,-0.6768263,0.28486905,10.676094055175781,-1.7706576585769653,-0.018223337829113007,-23.444520950317383,-32.85622787475586, 19.654203414916992
546,1901030821,0.6681311,0.0968106,-0.68120843,0.2831679,10.000535011291504,-2.664377450942993,0.26538848876953125,-29.324106216430664,-32.538047790527344, 17.249279022216797
547,1901047488,0.6648065,0.09345207,-0.6857368,0.2811838,9.150725364685059,-3.303274631500244,0.7073869109153748,-31.122020721435547,-33.72435760498047, 16.476856231689453
548,1901064155,0.66125506,0.09054758,-0.69045776,0.27894673,9.042938232421875,-3.477652072906494,0.4745500981807709,-30.471939086914062,-36.73072814941406, 13.740636825561523
549,1901080822,0.6572532,0.08835058,-0.69539964,0.27682462,8.998973846435547,-3.574760675430298,0.5248032212257385,-26.85633659362793,-41.17306900024414, 11.903155326843262
550,1901097489,0.6528215,0.08704757,-0.7003731,0.27518082,9.331904411315918,-3.163412570953369,0.705024003982544,-20.334362030029297,-44.798553466796875, 10.622354507446289
551,1901114156,0.6479919,0.08577205,-0.7056934,0.2733986,9.375900268554688,-2.704660415649414,0.3781083822250366,-21.30206871032715,-48.42350769042969, 10.829334259033203
552,1901130823,0.64275014,0.08448538,-0.7113342,0.27154818,9.32031536102295,-2.582098960876465,-0.06533462554216385,-22.047983169555664,-51.88776779174805, 11.547277450561523
553,1901147490,0.6370577,0.08332743,-0.71724033,0.2697786,9.098413467407227,-2.689523935317993,-0.42749032378196716,-21.321260452270508,-55.46879196166992, 12.27624225616455
554,1901164157,0.6311184,0.08262465,-0.7230555,0.2684282,8.92003059387207,-2.911837339401245,-0.6901744604110718,-16.95680046081543,-56.902713775634766, 12.276762008666992
555,1901180824,0.62548965,0.08267061,-0.72808164,0.2680034,9.038628578186035,-3.0643811225891113,-0.652984619140625,-7.825555324554443,-52.80112075805664, 11.549328804016113
556,1901197491,0.62005615,0.0828822,-0.73275393,0.2678301,8.90945053100586,-2.8310725688934326,-0.985644519329071,-5.320883750915527,-50.473426818847656, 11.241142272949219
557,1901214158,0.61455196,0.082830906,-0.7374758,0.2675717,8.973906517028809,-2.835306167602539,-0.9623090028762817,-6.926240921020508,-50.61428451538086, 12.362556457519531
558,1901230825,0.60889226,0.08263804,-0.74223524,0.2674102,9.026823043823242,-2.8655216693878174,-0.8595478534698486,-7.01170015335083,-51.256412506103516, 13.79908275604248
559,1901247492,0.6029991,0.0821063,-0.7472141,0.26706165,9.185498237609863,-3.1126508712768555,-0.8815781474113464,-9.663649559020996,-52.86043930053711, 15.302417755126953
560,1901264159,0.5968959,0.08123718,-0.75239336,0.26649663,9.447532653808594,-2.875629425048828,-0.770500123500824,-12.426851272583008,-54.284732818603516, 16.637393951416016
561,1901280826,0.590447,0.079843566,-0.75797015,0.26547796,9.670220375061035,-2.796504497528076,-0.846916675567627,-17.46761131286621,-57.01028060913086, 18.34832191467285
562,1901297493,0.58377594,0.078133665,-0.76379514,0.26404208,10.145190238952637,-2.6382358074188232,-0.9439175128936768,-21.257949829101562,-58.8433723449707, 18.85088348388672
563,1901314160,0.57686746,0.0759338,-0.7699465,0.26199377,10.566311836242676,-2.3506832122802734,-0.9879565834999084,-26.914627075195312,-60.853790283203125, 19.58220863342285
564,1901330827,0.5697373,0.0736089,-0.77620125,0.25979424,11.003144264221191,-2.3408074378967285,-1.2148566246032715,-28.28350830078125,-62.30873489379883, 20.11075210571289
565,1901347494,0.56231713,0.07114584,-0.7825828,0.25749183,11.113612174987793,-2.3424715995788574,-1.1693650484085083,-29.455245971679688,-64.17647552490234, 21.0414981842041
566,1901364161,0.5545013,0.06850322,-0.78922546,0.25487065,11.196812629699707,-2.568131446838379,-1.1831821203231812,-32.13850784301758,-67.17242431640625, 21.618581771850586
567,1901380828,0.54624116,0.065626435,-0.7962891,0.25147116,11.512628555297852,-2.895336151123047,-0.7507830262184143,-37.785614013671875,-71.16519927978516, 20.91214942932129
568,1901397495,0.53774256,0.06239743,-0.8036982,0.24700041,12.40135383605957,-3.053396463394165,-0.16251248121261597,-45.47074508666992,-73.6713638305664, 19.397016525268555
569,1901414162,0.5292736,0.058239106,-0.8115306,0.24061605,13.715579986572266,-2.496075391769409,0.660930335521698,-60.223724365234375,-74.35100555419922, 17.601627349853516
570,1901430829,0.5205143,0.052982897,-0.82012206,0.23164193,15.787358283996582,-1.5408928394317627,2.3424410820007324,-79.8202896118164,-78.00492095947266, 15.108205795288086
571,1901447496,0.51066375,0.047526233,-0.82966805,0.22048841,17.708688735961914,-0.05250947177410126,3.8973917961120605,-93.96812438964844,-88.12371826171875, 10.559117317199707
572,1901464163,0.5000762,0.04197623,-0.8399496,0.20651019,18.67096519470215,2.145206928253174,6.680476188659668,-111.29788970947266,-95.79308319091797, 2.5776467323303223
573,1901480830,0.4887799,0.03507659,-0.85137594,0.18714453,19.295543670654297,3.4412810802459717,9.05268669128418,-148.49586486816406,-103.59378814697266, -6.754055500030518
574,1901497497,0.47548133,0.027454084,-0.86337316,0.16658562,15.514092445373535,-1.9548158645629883,5.4707183837890625,-158.17315673828125,-116.75484466552734, -3.7607901096343994
575,1901514164,0.4605454,0.023836942,-0.8744925,0.15030873,12.154718399047852,-2.8156557083129883,-2.1125741004943848,-118.35772705078125,-127.49391174316406, -11.829275131225586
576,1901530831,0.44374472,0.022291334,-0.88592947,0.13312821,13.430288314819336,-4.483769416809082,-4.104529857635498,-117.24907684326172,-142.03887939453125, -25.187986373901367
577,1901547498,0.42842904,0.022958837,-0.8955505,0.11794597,12.726271629333496,-4.43762731552124,1.5484588146209717,-96.89008331298828,-129.19647216796875, -34.235931396484375
578,1901564165,0.41522005,0.024153857,-0.9031771,0.106209345,9.964439392089844,-5.827872276306152,1.7607922554016113,-72.84964752197266,-110.3011474609375, -29.3828182220459
579,1901580832,0.40508023,0.02656234,-0.9085063,0.099100895,7.034762382507324,-5.1086320877075195,-1.3079007863998413,-39.50556182861328,-84.85481262207031, -26.361785888671875
580,1901597499,0.39903042,0.026772285,-0.9119267,0.09191337,10.486104965209961,-6.593930721282959,-0.7020233869552612,-45.58991622924805,-52.52235794067383, -16.01879119873047
581,1901614166,0.39972463,0.029703608,-0.9112538,0.09462798,6.301449298858643,-2.7438976764678955,6.515684604644775,25.269075393676758,1.0527807474136353, -10.961456298828125
582,1901630833,0.40485704,0.032207742,-0.90868956,0.096629314,3.3790037631988525,0.05989272519946098,5.219403266906738,19.926576614379883,34.120887756347656, -13.523240089416504
583,1901647500,0.41424948,0.033498812,-0.90435934,0.09700344,3.9157896041870117,-2.1225931644439697,2.526883363723755,6.610892295837402,66.06050109863281, -13.688481330871582
584,1901664167,0.42853263,0.036797218,-0.8970237,0.10175649,4.835886001586914,-3.4497299194335938,1.4854049682617188,40.42319869995117,104.6828384399414, -17.65988540649414
585,1901680834,0.44698715,0.042673882,-0.886697,0.110227555,5.18184232711792,-2.1588168144226074,1.4298449754714966,71.97838592529297,138.34800720214844, -26.295352935791016
586,1901697501,0.46860403,0.04939136,-0.87395275,0.11907024,6.294422149658203,-1.493491530418396,0.6967344284057617,77.72794342041016,164.51724243164062, -33.381736755371094
587,1901714168,0.49296755,0.0562415,-0.8588412,0.12732801,7.171200275421143,-0.5408194065093994,0.16159725189208984,75.6534652709961,188.3309783935547, -39.11104965209961
588,1901730835,0.5192756,0.061650135,-0.84201884,0.13250178,7.959212779998779,-0.020954785868525505,-0.07376213371753693,53.309547424316406,205.6708984375, -43.40373992919922
589,1901747502,0.54754996,0.06525928,-0.82329226,0.13461162,9.384725570678711,-0.7902233004570007,-0.6134544014930725,30.05076026916504,224.18899536132812, -46.51097106933594
590,1901764169,0.57717687,0.06762634,-0.8025142,0.13514642,10.857177734375,-1.7932201623916626,-1.7973418235778809,17.760866165161133,240.00921630859375, -47.583892822265625
591,1901780836,0.6069192,0.06847692,-0.7803125,0.13443509,12.055126190185547,-1.8033959865570068,-2.936152219772339,6.137989044189453,247.13296508789062, -44.94148254394531
592,1901797503,0.63595337,0.06731627,-0.75731516,0.13230927,12.925545692443848,-2.4423673152923584,-3.787917375564575,-8.765334129333496,247.86331176757812, -39.787906646728516
593,1901814170,0.6638716,0.06621331,-0.7331497,0.13184035,13.871885299682617,-3.2361435890197754,-4.4347944259643555,1.715000867843628,247.9085235595703, -32.39041519165039
594,1901830837,0.69044113,0.06620147,-0.70777863,0.13400812,14.340389251708984,-2.6792609691619873,-4.345448970794678,21.703989028930664,246.87457275390625, -25.20441436767578
595,1901847504,0.7158196,0.06614445,-0.68151623,0.13697809,14.46693229675293,-2.084230422973633,-3.9703242778778076,26.762826919555664,245.77952575683594, -20.49970817565918
596,1901864171,0.74000925,0.06462436,-0.6548548,0.13919626,15.338849067687988,-2.9390244483947754,-4.606000900268555,16.971738815307617,243.27432250976562, -16.415447235107422
597,1901880838,0.7622473,0.06304683,-0.6283755,0.14194721,14.31145191192627,-3.713275194168091,-5.380197525024414,19.802682876586914,233.93272399902344, -11.511907577514648
598,1901897505,0.781879,0.06283285,-0.6028301,0.14599204,13.657381057739258,-4.06189489364624,-5.707364559173584,32.773948669433594,217.10389709472656, -7.697299003601074
599,1901914172,0.7985969,0.06344069,-0.5792308,0.15069956,13.2067289352417,-3.9241302013397217,-5.949239730834961,39.26576232910156,194.1287384033203, -3.8009891510009766
600,1901930839,0.8120839,0.064647704,-0.5584318,0.15650767,12.736368179321289,-4.215970993041992,-7.5752410888671875,45.47882843017578,165.85275268554688, 4.406823635101318
601,1901947506,0.8217967,0.06506423,-0.54231185,0.16221853,11.724294662475586,-3.239053249359131,-10.222118377685547,37.36116409301758,126.1700439453125, 13.015554428100586
602,1901964173,0.82695186,0.06254676,-0.53360736,0.16583726,10.494885444641113,-2.023324966430664,-11.96013069152832,6.780032634735107,69.76638793945312, 20.520492553710938
603,1901980840,0.8273826,0.058528185,-0.53279227,0.16776608,8.829143524169922,-2.717926502227783,-12.490605354309082,-14.886431694030762,8.729522705078125, 25.19791603088379
604,1901997507,0.824095,0.0573492,-0.5370297,0.17081566,8.440422058105469,-3.7958154678344727,-11.933992385864258,1.0687040090560913,-36.29604721069336, 27.48195457458496
605,1902014174,0.8180174,0.060219076,-0.5441821,0.1763152,7.7001142501831055,-3.554875612258911,-11.133232116699219,30.764726638793945,-66.75647735595703, 30.81584930419922
606,1902030841,0.81003755,0.0676323,-0.5522563,0.18514352,9.217944145202637,-3.710527181625366,-8.349207878112793,68.47219848632812,-83.0604019165039, 35.19715118408203
607,1902047508,0.8014638,0.08048096,-0.5582527,0.19882827,10.10027027130127,-1.9757213592529297,1.397735595703125,120.13681030273438,-78.3083267211914, 41.3567008972168
608,1902064175,0.79572004,0.09210549,-0.5589487,0.21429572,12.07983112335205,1.509765863418579,16.529268264770508,125.91999053955078,-35.58232498168945, 49.05134963989258
609,1902080842,0.7899989,0.10000587,-0.56145936,0.22508746,17.139192581176758,12.02905559539795,4.188045978546143,84.84672546386719,-43.048057556152344, 38.91330337524414
610,1902097509,0.7806768,0.09666129,-0.57522684,0.22430938,19.708480834960938,7.409952163696289,-2.6822381019592285,-35.884300231933594,-108.64375305175781, 32.932003021240234
611,1902114176,0.76915294,0.09019503,-0.59027517,0.2276931,14.685415267944336,-4.452868938446045,-1.0089082717895508,-36.702293395996094,-116.56703186035156, 71.96820068359375
612,1902130843,0.7575483,0.089098945,-0.6022618,0.23550656,9.273811340332031,1.1153481006622314,1.0401784181594849,14.54609489440918,-106.32315826416016, 71.79923248291016
613,1902147510,0.747765,0.08007568,-0.6156961,0.23527437,6.54743766784668,-6.99177360534668,0.32013073563575745,-63.5173225402832,-98.41997528076172, 60.68296813964844
614,1902164177,0.7390188,0.08157312,-0.622802,0.24354689,8.742402076721191,-8.85919189453125,-0.6805587410926819,36.26176834106445,-73.832763671875, 54.646541595458984
615,1902180844,0.7312475,0.08100173,-0.63037103,0.24768628,10.10598373413086,-1.5761855840682983,2.3151488304138184,6.750393867492676,-70.85633850097656, 41.05263137817383
616,1902197511,0.7233817,0.07996266,-0.63848597,0.25032118,11.405590057373047,-2.1341798305511475,0.568192720413208,-3.0010859966278076,-74.07627868652344, 35.98601531982422
617,1902214178,0.7155207,0.07992623,-0.6463245,0.25279778,10.544647216796875,-2.120349407196045,0.8344563245773315,1.76386559009552,-74.49574279785156, 30.64017105102539
618,1902230845,0.7083085,0.07910133,-0.65384084,0.2540362,10.050073623657227,-1.9534623622894287,0.44648391008377075,-7.412510871887207,-69.34671020507812, 26.751636505126953
619,1902247512,0.70182014,0.078388385,-0.6604786,0.25509208,9.91807746887207,-3.0184249877929688,0.07619637995958328,-6.5532145500183105,-62.11511993408203, 23.62271499633789
620,1902264179,0.69612765,0.07841996,-0.6660731,0.25613195,10.013142585754395,-3.097121000289917,0.22440889477729797,-1.6317784786224365,-54.784908294677734, 18.200847625732422
621,1902280846,0.6910183,0.07962431,-0.6706583,0.25762644,9.699368476867676,-3.3467512130737305,0.6070138812065125,7.527904033660889,-49.11197280883789, 13.429036140441895
622,1902297513,0.6862678,0.08123013,-0.6747816,0.25905305,9.465827941894531,-2.758124351501465,1.0709333419799805,9.737765312194824,-46.02357864379883, 10.357545852661133
623,1902314180,0.68156856,0.08185941,-0.6794976,0.2589333,9.63961124420166,-1.876847505569458,0.6355195045471191,-3.1348276138305664,-47.724327087402344, 7.828245639801025
624,1902330847,0.6764667,0.08226151,-0.6848265,0.258145,9.654393196105957,-2.1335697174072266,0.7278318405151367,-8.19244384765625,-52.466766357421875, 6.828458309173584
625,1902347514,0.6708188,0.08279756,-0.690673,0.25713328,9.36233139038086,-2.5887551307678223,0.6417486071586609,-9.238639831542969,-57.82619094848633, 6.42710542678833
626,1902364181,0.6649657,0.083698615,-0.69648165,0.2563758,9.217537879943848,-2.6707398891448975,0.6644814014434814,-6.173557758331299,-59.144432067871094, 6.208052158355713
627,1902380848,0.6591158,0.084540844,-0.70226324,0.25543246,9.269786834716797,-2.519031286239624,0.34094947576522827,-7.292130470275879,-59.02655792236328, 5.618607521057129
628,1902397515,0.65306926,0.08474703,-0.7084494,0.25380743,9.312187194824219,-2.2004075050354004,-0.03070271760225296,-14.069586753845215,-61.105960845947266, 6.183345317840576
629,1902414182,0.64702433,0.08501159,-0.71447027,0.25231886,9.576498985290527,-2.321873664855957,-0.39172494411468506,-12.860260009765625,-60.391597747802734, 6.419814586639404
630,1902430849,0.6409087,0.08554408,-0.7202759,0.25123924,9.744312286376953,-2.157874584197998,-0.42585325241088867,-9.251493453979492,-60.01957702636719, 6.924887657165527
631,1902447516,0.63474566,0.08628464,-0.72583383,0.2506359,9.691754341125488,-2.173774242401123,-0.4518813490867615,-5.524742603302002,-59.25624084472656, 7.937053680419922
632,1902464183,0.6285533,0.086823866,-0.7312981,0.2501717,9.592020034790039,-2.1884467601776123,-0.4773801863193512,-5.534857749938965,-58.57871627807617, 9.550422668457031
633,1902480850,0.6220714,0.087161005,-0.7369182,0.24976419,9.470178604125977,-2.3706271648406982,-0.6573241353034973,-6.2215352058410645,-60.34235763549805, 11.409233093261719
634,1902497517,0.61556447,0.08791813,-0.7422689,0.24977607,9.654390335083008,-2.57224178314209,-0.6279492378234863,-1.8299357891082764,-59.800514221191406, 10.96168041229248
635,1902514184,0.60892683,0.08885391,-0.74760014,0.24981502,9.737859725952148,-2.479612112045288,-0.8032333254814148,-0.8294142484664917,-60.69209289550781, 10.380651473999023
636,1902530851,0.60221076,0.08958832,-0.7529807,0.24967255,9.858601570129395,-2.4721486568450928,-1.0619806051254272,-2.6427674293518066,-61.08419418334961, 10.82451057434082
637,1902547518,0.5954779,0.0899366,-0.7584393,0.2491742,9.908238410949707,-2.4290661811828613,-1.2161991596221924,-6.215339660644531,-61.064048767089844, 11.433440208435059
638,1902564185,0.58879536,0.090052575,-0.76383454,0.2485312,10.227617263793945,-2.399444103240967,-1.3325845003128052,-7.847479343414307,-60.24950408935547, 11.9332275390625
639,1902580852,0.5820977,0.089689024,-0.7693124,0.24754152,10.40859603881836,-2.4174253940582275,-1.3888028860092163,-11.742713928222656,-60.07273864746094, 13.133072853088379
640,1902597519,0.5754172,0.088864826,-0.7748739,0.2461069,10.808343887329102,-2.1594250202178955,-1.5528391599655151,-16.099475860595703,-59.822513580322266, 13.821392059326172
641,1902614186,0.56858516,0.08763885,-0.7806598,0.24413249,11.129681587219238,-2.0021166801452637,-1.5246777534484863,-20.855613708496094,-61.18620681762695, 14.232908248901367
642,1902630853,0.5614117,0.086315505,-0.78665286,0.24195941,11.277583122253418,-2.4026196002960205,-1.4638656377792358,-22.441648483276367,-63.80585861206055, 14.69189739227295
643,1902647520,0.55392027,0.08488462,-0.79287857,0.23939705,11.607507705688477,-2.7114813327789307,-1.1241157054901123,-23.491289138793945,-66.98433685302734, 13.977665901184082
644,1902664187,0.5466102,0.0810651,-0.7997711,0.23454678,12.177098274230957,-2.9103481769561768,-0.7312829494476318,-31.715272903442383,-70.2477798461914, 13.90967845916748
645,1902680854,0.53892666,0.07631765,-0.8073343,0.22791544,12.985259056091309,-2.551111936569214,-0.30599337816238403,-47.56063461303711,-73.89420318603516, 13.451696395874023
646,1902697521,0.53047067,0.07042382,-0.8159316,0.21885511,14.285998344421387,-2.22642183303833,0.35858356952667236,-64.9786148071289,-81.99579620361328, 11.611734390258789
647,1902714188,0.5209207,0.06485019,-0.82518405,0.20858575,15.547927856445312,-2.307347297668457,1.4414454698562622,-71.49884033203125,-91.48831939697266, 7.0331268310546875
648,1902730855,0.5098362,0.06022323,-0.8349736,0.19813998,16.316728591918945,-1.8854016065597534,3.4480295181274414,-73.1926498413086,-102.42109680175781, 4.631554126739502
649,1902747522,0.49731076,0.057808936,-0.84503067,0.18778597,18.583229064941406,-0.3845447599887848,5.609391212463379,-76.24056243896484,-111.36792755126953, -0.6597870588302612
650,1902764189,0.48393014,0.05379217,-0.85596305,0.17391263,18.153705596923828,0.8028969764709473,8.029085159301758,-102.9824447631836,-118.80998229980469, -1.885873794555664
651,1902780856,0.47000623,0.047133196,-0.86745226,0.15620312,15.624698638916016,-0.9277543425559998,6.197149276733398,-134.83636474609375,-122.30109405517578, 1.797574758529663
652,1902797523,0.45643106,0.040881924,-0.8782184,0.13686635,11.60145092010498,-1.3992445468902588,1.0090179443359375,-142.589111328125,-118.9958724975586, -6.490535259246826
653,1902814190,0.44091466,0.03483086,-0.88973635,0.11291875,11.61709213256836,-3.6217212677001953,-6.8153767585754395,-169.9695281982422,-134.64183044433594, -20.156503677368164
654,1902830857,0.42546993,0.0335641,-0.8993999,0.094494246,12.338486671447754,-4.437310695648193,-0.41699647903442383,-120.234375,-130.96571350097656, -33.22547149658203
655,1902847524,0.410956,0.031503845,-0.90775204,0.07816114,9.940037727355957,-5.793240070343018,1.9478542804718018,-109.01165008544922,-120.43951416015625, -23.14270782470703
656,1902864191,0.3998044,0.030872198,-0.913402,0.07000257,7.431126117706299,-5.813044548034668,-0.2569388449192047,-53.262733459472656,-90.88428497314453, -11.408284187316895
657,1902880858,0.39202434,0.030307638,-0.9171076,0.065668166,8.945369720458984,-6.2418212890625,-1.466840147972107,-28.88426971435547,-63.61800003051758, -3.3975701332092285
658,1902897525,0.39010417,0.03252494,-0.91726154,0.07343364,7.821240425109863,-4.849780082702637,4.802637577056885,55.24580001831055,-15.865883827209473, 8.254807472229004
659,1902914192,0.39365393,0.036015827,-0.91455114,0.085651,5.198436260223389,-0.7662255167961121,5.912598609924316,86.91767883300781,26.580562591552734, 8.754646301269531
660,1902930859,0.40200087,0.03863897,-0.90980065,0.09573687,4.42097282409668,0.1145986020565033,4.102311134338379,71.16606140136719,62.18138122558594, 5.139677047729492
661,1902947526,0.41471645,0.040968616,-0.9029822,0.10466896,5.034434795379639,-0.8078250288963318,2.8369922637939453,63.338905334472656,95.06712341308594, 0.38694241642951965
662,1902964193,0.43182084,0.044272266,-0.89359206,0.114298634,5.725939750671387,-1.1851598024368286,1.8789594173431396,71.05923461914062,129.11123657226562, -7.537525177001953
663,1902980860,0.45267853,0.04859754,-0.8816016,0.12449633,6.423746585845947,-1.0785733461380005,1.039842128753662,78.48222351074219,159.2360382080078, -15.854434967041016
664,1902997527,0.47662055,0.053489253,-0.86705583,0.13485646,7.153975486755371,-1.0694516897201538,0.1460128128528595,82.39041137695312,185.43580627441406, -22.260181427001953
665,1903014194,0.5029027,0.05845563,-0.8501497,0.14462985,8.071708679199219,-0.8897724151611328,-0.3782058656215668,80.47075653076172,206.82542419433594, -27.649532318115234
666,1903030861,0.531564,0.06297081,-0.83078396,0.15255402,9.246699333190918,-0.6793003082275391,-0.7686073780059814,69.5983657836914,228.9370574951172, -34.744720458984375
667,1903047528,0.56179535,0.0655741,-0.80959904,0.15695769,10.447864532470703,-0.7080512642860413,-1.5051277875900269,43.741676330566406,245.0304718017578, -39.11370086669922
668,1903064195,0.59244263,0.065299034,-0.7873095,0.15777285,11.69680404663086,-1.0543692111968994,-2.3723866939544678,13.655043601989746,253.10427856445312, -37.893089294433594
669,1903080862,0.62285787,0.06303578,-0.7638943,0.15665382,12.689754486083984,-1.5064016580581665,-3.274242401123047,-3.5831754207611084,257.7384338378906, -35.26739501953125
670,1903097529,0.65262777,0.05987596,-0.7391979,0.15517363,13.666712760925293,-1.910566806793213,-4.142557144165039,-7.646047592163086,260.6805114746094, -31.97919273376465
671,1903114196,0.6811897,0.056895707,-0.7132993,0.1547508,14.215696334838867,-2.203357458114624,-4.897209167480469,0.33651041984558105,260.2376403808594, -27.369495391845703
672,1903130863,0.70857644,0.05441357,-0.6861363,0.15548578,14.792132377624512,-1.9145690202713013,-5.155534744262695,10.16858959197998,260.4035339355469, -23.64937973022461
673,1903147530,0.7342614,0.05150403,-0.6586278,0.15626043,14.875907897949219,-2.3313586711883545,-5.651658535003662,9.301522254943848,254.62612915039062, -19.75815200805664
674,1903164197,0.7573885,0.049277067,-0.63162607,0.15806094,14.472753524780273,-3.401556968688965,-6.53310489654541,17.778663635253906,240.227294921875, -14.753779411315918
675,1903180864,0.7773282,0.050372105,-0.60563827,0.16256073,13.50588607788086,-4.193244457244873,-7.704115867614746,46.81078338623047,218.54342651367188, -11.336772918701172
676,1903197531,0.793814,0.05586364,-0.5813109,0.16975375,13.010563850402832,-3.45564866065979,-8.180510520935059,80.90570068359375,191.46043395996094, -10.838489532470703
677,1903214198,0.8066241,0.064320266,-0.5596769,0.17883633,12.681991577148438,-2.971285581588745,-9.565683364868164,102.94554901123047,159.49990844726562, -7.065047264099121
678,1903230865,0.8150646,0.07300551,-0.54321694,0.18776461,11.589755058288574,-2.187478542327881,-12.792426109313965,99.22402954101562,113.81918334960938, -1.1491419076919556
679,1903247532,0.8181102,0.07769499,-0.5358631,0.1936755,10.389265060424805,-1.9000251293182373,-15.395973205566406,56.543636322021484,46.50188446044922, 8.390643119812012
680,1903264199,0.8156667,0.08044329,-0.5376669,0.19781637,9.09853744506836,-3.284273386001587,-14.342753410339355,29.876508712768555,-23.34783363342285, 17.776174545288086
681,1903280866,0.8094455,0.08566767,-0.5444096,0.2026765,8.73084545135498,-3.359908103942871,-12.140390396118164,41.837989807128906,-67.76375579833984, 20.496097564697266
682,1903297533,0.8004008,0.09184507,-0.5545898,0.20821495,8.644649505615234,-4.469018936157227,-9.687238693237305,46.5908203125,-98.21512603759766, 26.626018524169922
683,1903314200,0.7920768,0.10009069,-0.562096,0.21597382,11.560765266418457,-1.0999866724014282,9.400077819824219,69.84776306152344,-82.16938781738281, 28.18079376220703
684,1903330867,0.7865165,0.10576714,-0.5657743,0.22384094,11.445218086242676,3.725954532623291,14.488476753234863,60.04339599609375,-46.848358154296875, 31.950044631958008
685,1903347534,0.7796249,0.10639992,-0.5732873,0.22848639,19.06159782409668,1.4232487678527832,-3.966094493865967,15.265437126159668,-67.50408172607422, 39.042781829833984
686,1903364201,0.7689876,0.10697784,-0.58466715,0.23532662,17.974716186523438,0.3671514689922333,-2.246201753616333,20.29610252380371,-101.1922607421875, 59.7762451171875
687,1903380868,0.7577386,0.10047337,-0.5988172,0.23907244,13.12821102142334,1.1065359115600586,0.12485036253929138,-33.60329818725586,-109.03952026367188, 74.94581604003906
688,1903397535,0.7473844,0.09315626,-0.6117252,0.24193184,8.025849342346191,-3.403346300125122,0.004234910011291504,-40.0614128112793,-98.13993835449219, 71.38296508789062
689,1903414202,0.7388401,0.087332964,-0.6215295,0.24533583,7.895814895629883,-10.33010196685791,-2.4193835258483887,-26.067138671875,-76.71475219726562, 62.87677001953125
690,1903430869,0.73196346,0.09015562,-0.6258267,0.25385562,9.315408706665039,-2.5345795154571533,1.7063190937042236,48.04177474975586,-53.0958366394043, 45.6806755065918
