PacketCounter,SampleTimeFine,Quat_W,Quat_X,Quat_Y,Quat_Z,Acc_X,Acc_Y,Acc_Z,Gyr_X,Gyr_Y,Gyr_Z 
1,1914747001,0.13377647,-0.7189283,0.00006837086,-0.6820895,0.6102942228317261,2.2075772285461426,2.4014179706573486,-2.038106918334961,2.5422604084014893, -0.8567570447921753
2,1914763668,0.13389327,-0.71956116,-0.0000579929,-0.6813989,9.68012523651123,-1.899461269378662,-0.36459705233573914,0.7977779507637024,-4.056244373321533, 0.007293215487152338
3,1914780335,0.1336103,-0.7201464,0.00017583116,-0.6808359,9.677726745605469,-1.9014928340911865,-0.31910809874534607,0.8557266592979431,-4.075479507446289, 0.0672653540968895
4,1914797002,0.13353808,-0.7204793,0.00020886607,-0.68049777,9.708365440368652,-1.8979990482330322,-0.3366301357746124,0.919515073299408,-4.109442234039307, -0.003099136520177126
5,1914813669,0.13332471,-0.7207526,0.00036125633,-0.6802501,9.710336685180664,-1.8670239448547363,-0.33610013127326965,0.7737404108047485,-4.051198959350586, 0.06303925067186356
6,1914830336,0.1331452,-0.72100353,0.00038381334,-0.68001926,9.695159912109375,-1.9114826917648315,-0.34503477811813354,0.9759910106658936,-4.091564655303955, 0.17656752467155457
7,1914847003,0.13294835,-0.7212726,0.0005039934,-0.6797724,9.684069633483887,-1.911765217781067,-0.38017258048057556,0.9957001805305481,-4.240848541259766, 0.12442009896039963
8,1914863670,0.13279417,-0.7215676,0.00062990736,-0.6794893,9.701265335083008,-1.9086910486221313,-0.3304475247859955,1.2094509601593018,-4.162870407104492, 0.1400822401046753
9,1914880337,0.13258642,-0.7218413,0.00079901883,-0.67923903,9.694807052612305,-1.8724875450134277,-0.3582839071750641,1.0877777338027954,-4.1609110832214355, -0.0142278540879488
10,1914897004,0.13252088,-0.7221334,0.0007960658,-0.67894125,9.670989036560059,-1.9029301404953003,-0.3636488616466522,0.7752131223678589,-4.229565620422363, 0.09287804365158081
11,1914913671,0.13236934,-0.7224286,0.0009296056,-0.6786564,9.678927421569824,-1.9032248258590698,-0.33603155612945557,0.7325552105903625,-4.1976141929626465, 0.22450169920921326
12,1914930338,0.13233565,-0.7227249,0.0009538329,-0.6783474,9.664155960083008,-1.9068286418914795,-0.34793323278427124,0.8036177158355713,-4.315112590789795, 0.24938446283340454
13,1914947005,0.13240974,-0.72302073,0.0008700033,-0.6780178,9.671638488769531,-1.8860472440719604,-0.37072765827178955,0.9671419858932495,-4.355542182922363, 0.2217867523431778
14,1914963672,0.13238817,-0.7233367,0.00087390625,-0.6776849,9.701375007629395,-1.876846432685852,-0.3756917715072632,0.6620051264762878,-4.442625522613525, 0.22357967495918274
15,1914980339,0.1322714,-0.72365826,0.0009779108,-0.6773643,9.700166702270508,-1.8615666627883911,-0.36217281222343445,0.7460403442382812,-4.472438812255859, 0.2797355353832245
16,1914997006,0.13221791,-0.7239648,0.0009923888,-0.6770468,9.689637184143066,-1.859653115272522,-0.4204689860343933,0.6245592832565308,-4.303125858306885, 0.24153414368629456
17,1915013673,0.13244477,-0.7242827,0.0006839695,-0.67666274,9.681279182434082,-1.8892767429351807,-0.384714812040329,0.6697912216186523,-4.30873441696167, 0.19085942208766937
18,1915030340,0.1323514,-0.7245911,0.0007348101,-0.6763509,9.679649353027344,-1.8642315864562988,-0.41016140580177307,0.6840831637382507,-4.208845138549805, 0.23767946660518646
19,1915047007,0.13219306,-0.7248665,0.0007970653,-0.67608654,9.690497398376465,-1.871886968612671,-0.4363649785518646,1.3146038055419922,-3.955676317214966, -0.0823063999414444
20,1915063674,0.13208048,-0.72512776,0.0007731961,-0.6758283,9.688748359680176,-1.8661612272262573,-0.440678209066391,1.4060157537460327,-3.762800693511963, -0.2731594741344452
21,1915080341,0.13209614,-0.7253892,0.00059526274,-0.675545,9.663806915283203,-1.8672868013381958,-0.41153475642204285,1.0381404161453247,-3.6387197971343994, -0.3261777460575104
22,1915097008,0.13154915,-0.7256522,0.0010723026,-0.6753686,9.687409400939941,-1.8600127696990967,-0.3672046661376953,0.5704140663146973,-3.5678107738494873, -0.0666058287024498
23,1915113675,0.13126378,-0.72593087,0.0012985176,-0.6751243,9.70034122467041,-1.8393630981445312,-0.37908145785331726,0.12210214883089066,-3.6842591762542725, 0.11621122807264328
24,1915130342,0.13106108,-0.7262209,0.0014471228,-0.67485124,9.72005844116211,-1.8659946918487549,-0.40052366256713867,0.022212615236639977,-3.8101069927215576, 0.20643197000026703
25,1915147009,0.13097472,-0.7265048,0.0015069155,-0.6745623,9.698981285095215,-1.8959280252456665,-0.3855966627597809,0.06376922130584717,-3.7601494789123535, 0.36599910259246826
26,1915163676,0.13086584,-0.7267712,0.0016008938,-0.6742962,9.703792572021484,-1.881972074508667,-0.40661919116973877,0.36187544465065,-3.6606569290161133, 0.34841597080230713
27,1915180343,0.1306666,-0.72702295,0.0017842387,-0.67406297,9.68663215637207,-1.8979642391204834,-0.3910607099533081,0.5248363018035889,-3.5494465827941895, 0.27165472507476807
28,1915197010,0.13067989,-0.7272807,0.0017902456,-0.6737823,9.704848289489746,-1.9025717973709106,-0.34295740723609924,0.6033647656440735,-3.6333281993865967, 0.49083536863327026
29,1915213677,0.13065659,-0.7275355,0.0018420273,-0.67351145,9.707749366760254,-1.9251211881637573,-0.32851630449295044,0.9943556189537048,-3.7254064083099365, 0.4712289571762085
30,1915230344,0.13070992,-0.72777563,0.0018330031,-0.6732417,9.711341857910156,-1.8898812532424927,-0.3740214705467224,0.9666168093681335,-3.6142334938049316, 0.5318540334701538
31,1915247011,0.13052896,-0.72802883,0.0020719878,-0.6730023,9.698601722717285,-1.8780227899551392,-0.3798983693122864,0.8631417155265808,-3.748086452484131, 0.5176647305488586
32,1915263678,0.130542,-0.72828674,0.0021097518,-0.6727205,9.6751708984375,-1.8842084407806396,-0.3940708339214325,0.8324448466300964,-3.791999340057373, 0.562781572341919
33,1915280345,0.13055716,-0.7285451,0.002142895,-0.67243767,9.673129081726074,-1.8754825592041016,-0.3979571461677551,0.9124589562416077,-3.8131682872772217, 0.5418303608894348
34,1915297012,0.13048914,-0.7288132,0.0022583108,-0.67216,9.655130386352539,-1.9079244136810303,-0.3948342800140381,0.8273735046386719,-3.896601676940918, 0.5178056359291077
35,1915313679,0.13046241,-0.7290833,0.0023109368,-0.671872,9.6716890335083,-1.8537938594818115,-0.4202277660369873,0.6541292667388916,-3.8841280937194824, 0.4292241036891937
36,1915330346,0.13023289,-0.7293688,0.002585702,-0.6716056,9.685558319091797,-1.9043760299682617,-0.39963409304618835,0.286894291639328,-3.969572067260742, 0.4852646589279175
37,1915347013,0.13031434,-0.7296519,0.0025503032,-0.6712824,9.682003021240234,-1.8956571817398071,-0.41168755292892456,0.372799277305603,-3.953589677810669, 0.5965390801429749
38,1915363680,0.13023132,-0.72993064,0.002652272,-0.670995,9.688610076904297,-1.8786102533340454,-0.4184841215610504,0.5775473117828369,-3.954575777053833, 0.3790103793144226
39,1915380347,0.13022439,-0.73020667,0.0026829029,-0.67069584,9.694833755493164,-1.8781707286834717,-0.42938148975372314,0.7618690729141235,-3.9592247009277344, 0.4203236699104309
40,1915397014,0.13011885,-0.73048216,0.0028418046,-0.6704155,9.708763122558594,-1.8632030487060547,-0.41010430455207825,0.7473978996276855,-3.95212984085083, 0.5200338959693909
41,1915413681,0.13000786,-0.7307535,0.00302253,-0.6701407,9.721610069274902,-1.861853003501892,-0.3879773020744324,0.7898765206336975,-3.922943592071533, 0.5937601327896118
42,1915430348,0.1300194,-0.731026,0.0030675044,-0.6698408,9.724161148071289,-1.8697766065597534,-0.4066047966480255,0.8375288844108582,-3.953934669494629, 0.5885733962059021
43,1915447015,0.13002545,-0.7312944,0.0030873616,-0.6695465,9.693109512329102,-1.8697303533554077,-0.4260982573032379,0.8380796313285828,-3.9167075157165527, 0.4432854652404785
44,1915463682,0.13006148,-0.73155385,0.0030773988,-0.66925603,9.686807632446289,-1.8934506177902222,-0.40525171160697937,0.8612462878227234,-3.8301751613616943, 0.44941967725753784
45,1915480349,0.12999435,-0.7318011,0.0031601838,-0.6689984,9.69308090209961,-1.8776379823684692,-0.43095675110816956,0.8100465536117554,-3.7054028511047363, 0.3458547294139862
46,1915497016,0.13000402,-0.7320731,0.0031984332,-0.66869867,9.696110725402832,-1.9171298742294312,-0.3799774944782257,1.0188795328140259,-4.003355026245117, 0.5384621620178223
47,1915513683,0.1301126,-0.7323392,0.003138894,-0.66838646,9.694355010986328,-1.8953090906143188,-0.40949156880378723,1.1666008234024048,-3.981045722961426, 0.5621539354324341
48,1915530350,0.12992683,-0.7325993,0.0034141608,-0.6681361,9.681281089782715,-1.9207179546356201,-0.40550509095191956,0.9619810581207275,-3.903388261795044, 0.6275303959846497
49,1915547017,0.13003118,-0.73286194,0.0033722073,-0.66782796,9.676762580871582,-1.8717331886291504,-0.4047471582889557,0.9033793210983276,-3.9112391471862793, 0.6298355460166931
50,1915563684,0.12980154,-0.73312306,0.0037189415,-0.6675841,9.681656837463379,-1.8858463764190674,-0.4290333688259125,0.9856470823287964,-3.942178964614868, 0.7282266616821289
51,1915580351,0.12983288,-0.73339564,0.0038036227,-0.667278,9.712408065795898,-1.8979367017745972,-0.37459227442741394,1.068388819694519,-4.069204807281494, 0.8453407287597656
52,1915597018,0.12964477,-0.7336742,0.0041423915,-0.6670063,9.739032745361328,-1.860106348991394,-0.42305734753608704,1.0705020427703857,-4.163908004760742, 0.9100513458251953
53,1915613685,0.12965637,-0.7339477,0.004271137,-0.6667022,9.702725410461426,-1.8637166023254395,-0.4440930187702179,0.9935998916625977,-4.092858791351318, 0.9628390669822693
54,1915630352,0.12971748,-0.7342166,0.0043577384,-0.6663939,9.677799224853516,-1.9095622301101685,-0.4360523819923401,0.7235779762268066,-3.992392063140869, 1.0436854362487793
55,1915647019,0.12958968,-0.73448163,0.0046070125,-0.6661248,9.69949722290039,-1.9092423915863037,-0.42175525426864624,0.682930588722229,-3.963718891143799, 0.8263232111930847
56,1915663686,0.12955998,-0.7347263,0.0047019934,-0.66585994,9.673110008239746,-1.8919410705566406,-0.4539184272289276,0.9932542443275452,-3.8170225620269775, 0.5646384954452515
57,1915680353,0.12952717,-0.73495555,0.0047987704,-0.66561264,9.654290199279785,-1.9201960563659668,-0.44562381505966187,0.9857752919197083,-3.6593894958496094, 0.5441994667053223
58,1915697020,0.12954117,-0.73517895,0.004882031,-0.66536254,9.649392127990723,-1.9248723983764648,-0.4439374804496765,1.0967038869857788,-3.627065658569336, 0.7046374082565308
59,1915713687,0.12971523,-0.7354061,0.0048178583,-0.6650781,9.672245025634766,-1.9402114152908325,-0.4049181044101715,1.2811282873153687,-3.7013046741485596, 0.8252477645874023
60,1915730354,0.12974589,-0.7356447,0.0048791533,-0.6648076,9.694576263427734,-1.920843243598938,-0.3774726688861847,1.2288652658462524,-3.832709789276123, 0.6784483790397644
61,1915747021,0.12970601,-0.7358795,0.005056818,-0.66455424,9.69404411315918,-1.8928284645080566,-0.4257514476776123,1.1185516119003296,-3.798184633255005, 0.8620147705078125
62,1915763688,0.12979245,-0.73613966,0.005120357,-0.66424865,9.726176261901855,-1.9006779193878174,-0.376605361700058,1.0749202966690063,-4.057218074798584, 1.0099663734436035
63,1915780355,0.1299042,-0.7363905,0.0051811812,-0.6639484,9.703513145446777,-1.927248477935791,-0.42878860235214233,1.0162798166275024,-3.9675347805023193, 1.1274261474609375
64,1915797022,0.12996122,-0.73665595,0.00530569,-0.6636416,9.693460464477539,-1.9150289297103882,-0.4386484920978546,0.8146824240684509,-4.098339557647705, 1.172555923461914
65,1915813689,0.13000067,-0.7369135,0.0054757837,-0.66334647,9.681731224060059,-1.9358911514282227,-0.43916410207748413,0.63595050573349,-3.9935061931610107, 1.3035967350006104
66,1915830356,0.13003184,-0.73716974,0.005612249,-0.6630544,9.65048885345459,-1.9279649257659912,-0.46942558884620667,0.7046501636505127,-4.005339622497559, 1.0931051969528198
67,1915847023,0.1301155,-0.7373988,0.0056732926,-0.6627827,9.656129837036133,-1.8889844417572021,-0.5115362405776978,1.222564458847046,-3.8315188884735107, 0.9426305890083313
68,1915863690,0.13011074,-0.7376133,0.00581635,-0.6625436,9.675691604614258,-1.8945984840393066,-0.48024266958236694,1.4314618110656738,-3.7337169647216797, 0.8393985629081726
69,1915880357,0.13022274,-0.73781514,0.0057922127,-0.66229707,9.66723346710205,-1.8451366424560547,-0.5188843607902527,1.7980306148529053,-3.672041177749634, 0.624213457107544
70,1915897024,0.13032669,-0.7380116,0.0057385573,-0.6620581,9.660395622253418,-1.8727580308914185,-0.5541149973869324,1.616219162940979,-3.581578016281128, 0.46738702058792114
71,1915913691,0.13031155,-0.73820156,0.005756033,-0.6618493,9.650184631347656,-1.855582594871521,-0.5701794028282166,1.2771070003509521,-3.4500949382781982, 0.21195150911808014
72,1915930358,0.1303023,-0.73837876,0.0057109175,-0.6616538,9.686664581298828,-1.8409996032714844,-0.5649247169494629,0.6657700538635254,-3.188166379928589, 0.004488625563681126
73,1915947025,0.13011865,-0.7385301,0.005845488,-0.66151977,9.66407299041748,-1.9055273532867432,-0.5068001747131348,1.0498965978622437,-3.0150883197784424, -0.1136179268360138
74,1915963692,0.13005233,-0.73864555,0.0058230613,-0.66140425,9.664543151855469,-1.940805196762085,-0.48787569999694824,1.7649774551391602,-2.7824485301971436, -0.3328498601913452
75,1915980359,0.13001077,-0.7387547,0.0057880064,-0.6612906,9.665268898010254,-1.9209555387496948,-0.45578742027282715,1.1919317245483398,-2.612098217010498, -0.2160303145647049
76,1915997026,0.129945,-0.73887265,0.0058088917,-0.66117156,9.694046020507812,-1.9035656452178955,-0.43860629200935364,0.7803869843482971,-2.6380441188812256, -0.03464118018746376
77,1916013693,0.12981401,-0.73900217,0.00591223,-0.6610516,9.711723327636719,-1.876912236213684,-0.45304450392723083,0.32962897419929504,-2.6909849643707275, 0.06425585597753525
78,1916030360,0.12969099,-0.73912346,0.0060084546,-0.66093916,9.704299926757812,-1.8563164472579956,-0.4489482343196869,0.2993291914463043,-2.6151845455169678, 0.07380939275026321
79,1916047027,0.12953597,-0.7392287,0.006135649,-0.6608507,9.697175979614258,-1.8680996894836426,-0.4706338346004486,-0.003624197095632553,-2.40535306930542, 0.07305382192134857
80,1916063694,0.12934893,-0.7393284,0.006302308,-0.66077435,9.710840225219727,-1.877204418182373,-0.46458950638771057,-0.38366544246673584,-2.2871246337890625, 0.1269557625055313
81,1916080361,0.12915097,-0.7394219,0.0065190755,-0.66070634,9.69031047821045,-1.9196993112564087,-0.4105936288833618,-0.5737116932868958,-2.2051639556884766, 0.32101038098335266
82,1916097028,0.12897225,-0.73950934,0.006745313,-0.66064125,9.71142292022705,-1.9291508197784424,-0.39758601784706116,-0.43673497438430786,-2.1921653747558594, 0.44597476720809937
83,1916113695,0.12880589,-0.73961496,0.006969516,-0.660553,9.709303855895996,-1.9096132516860962,-0.39458733797073364,-0.4618738293647766,-2.400294065475464, 0.5187020301818848
84,1916130362,0.12859997,-0.7397324,0.0072313044,-0.6604588,9.704795837402344,-1.9012123346328735,-0.41385531425476074,-0.11792086809873581,-2.6204991340637207, 0.46481290459632874
85,1916147029,0.12851004,-0.73982614,0.007341057,-0.66037005,9.694464683532715,-1.9083753824234009,-0.4380384087562561,0.4885301887989044,-2.503859281539917, 0.28435859084129333
86,1916163696,0.12845816,-0.73991543,0.00741816,-0.6602793,9.662785530090332,-1.9063241481781006,-0.4403267502784729,0.46652892231941223,-2.4682958126068115, 0.3303205966949463
87,1916180363,0.12832463,-0.7400059,0.007615945,-0.66020155,9.6947021484375,-1.905169129371643,-0.4298067092895508,0.2489234209060669,-2.4676809310913086, 0.48978525400161743
88,1916197030,0.1282466,-0.74012625,0.007751181,-0.6600802,9.715631484985352,-1.9097923040390015,-0.39960777759552,0.09499109536409378,-2.7607929706573486, 0.5297667384147644
89,1916213697,0.12814532,-0.7402515,0.007931452,-0.6599574,9.722975730895996,-1.9040502309799194,-0.37235110998153687,0.2878931760787964,-2.8784964084625244, 0.6049144268035889
90,1916230364,0.128066,-0.74038106,0.008088864,-0.6598255,9.717967987060547,-1.895626187324524,-0.38632428646087646,0.2908386290073395,-2.9487650394439697, 0.6186811923980713
91,1916247031,0.1280173,-0.7404927,0.008234228,-0.65970796,9.696107864379883,-1.9194716215133667,-0.41490450501441956,0.6377626657485962,-2.8550093173980713, 0.6759512424468994
92,1916263698,0.12796995,-0.740599,0.008386887,-0.6595959,9.701889991760254,-1.9130765199661255,-0.4201447069644928,0.49153974652290344,-2.791938304901123, 0.7279193997383118
93,1916280365,0.12787545,-0.7407159,0.0085726455,-0.65948045,9.689020156860352,-1.884528398513794,-0.40541574358940125,0.21893095970153809,-2.8729636669158936, 0.6739277839660645
94,1916297032,0.12773395,-0.7408468,0.008789782,-0.6593581,9.668158531188965,-1.915705680847168,-0.4339516758918762,0.0944020226597786,-3.0198657512664795, 0.602442741394043
95,1916313699,0.12765977,-0.740962,0.008947143,-0.6592407,9.649721145629883,-1.9107707738876343,-0.445132315158844,0.4513918459415436,-2.943936586380005, 0.6278505325317383
96,1916330366,0.12753886,-0.74108315,0.009138851,-0.65912545,9.65237808227539,-1.9542478322982788,-0.4650574326515198,0.3657301664352417,-3.011925458908081, 0.5582224130630493
97,1916347033,0.12742622,-0.7411807,0.009310531,-0.65903497,9.695487022399902,-1.9034961462020874,-0.433950275182724,0.185698464512825,-2.7451179027557373, 0.5052681565284729
98,1916363700,0.12731344,-0.74125177,0.009490188,-0.6589743,9.695479393005371,-1.8658561706542969,-0.4306408166885376,0.5916982293128967,-2.5734872817993164, 0.4810769557952881
99,1916380367,0.12720491,-0.7412955,0.009655132,-0.65894365,9.676454544067383,-1.8920972347259521,-0.44951847195625305,0.4886070787906647,-2.2861127853393555, 0.429070383310318
100,1916397034,0.1270856,-0.7413351,0.009810463,-0.6589199,9.688216209411621,-1.9258973598480225,-0.42354467511177063,0.46779677271842957,-2.257554769515991, 0.330653578042984
101,1916413701,0.1269799,-0.7413665,0.009948949,-0.65890294,9.677945137023926,-1.9138062000274658,-0.40890517830848694,0.4487665295600891,-2.1883363723754883, 0.3201523423194885
102,1916430368,0.12682626,-0.7414015,0.010122947,-0.65889037,9.663119316101074,-1.909814715385437,-0.39202409982681274,0.1903856098651886,-2.202218532562256, 0.26663461327552795
103,1916447035,0.1266772,-0.74144274,0.010306033,-0.6588698,9.663799285888672,-1.9188218116760254,-0.3943498432636261,0.17592723667621613,-2.2899162769317627, 0.34132125973701477
104,1916463702,0.12655373,-0.74149215,0.010454327,-0.65883553,9.677877426147461,-1.9008413553237915,-0.3942706286907196,0.4756086468696594,-2.4573464393615723, 0.29078736901283264
105,1916480369,0.12644243,-0.7415302,0.0105946055,-0.658812,9.688671112060547,-1.88673734664917,-0.3857383131980896,0.5484383702278137,-2.376307964324951, 0.30345287919044495
106,1916497036,0.12632598,-0.74159324,0.010723741,-0.6587611,9.70064926147461,-1.8837779760360718,-0.3958042860031128,0.4797578752040863,-2.6493518352508545, 0.25692740082740784
107,1916513703,0.12618601,-0.7416353,0.010878783,-0.65873814,9.703998565673828,-1.9019476175308228,-0.40530645847320557,0.42606088519096375,-2.4455134868621826, 0.2473098337650299
108,1916530370,0.12602173,-0.7416638,0.011060898,-0.65873444,9.684657096862793,-1.9168968200683594,-0.40622958540916443,0.2323904186487198,-2.292823314666748, 0.25896361470222473
109,1916547037,0.12588048,-0.7416746,0.011215383,-0.6587467,9.684954643249512,-1.8923187255859375,-0.4127015173435211,0.31979382038116455,-2.144730567932129, 0.22989320755004883
110,1916563704,0.12569322,-0.74168414,0.011381997,-0.6587689,9.67716121673584,-1.8681353330612183,-0.4076330363750458,0.04181913286447525,-2.0998189449310303, 0.07770252227783203
111,1916580371,0.1254807,-0.74168825,0.0115727605,-0.6588014,9.699841499328613,-1.862343668937683,-0.42379602789878845,-0.3058284521102905,-1.9983795881271362, 0.09533687680959702
112,1916597038,0.12519564,-0.7416738,0.011815975,-0.65886766,9.69588565826416,-1.8210862874984741,-0.43147754669189453,-0.7253644466400146,-1.7492449283599854, -0.004827993921935558
113,1916613705,0.124904916,-0.74166834,0.012080769,-0.658924,9.702820777893066,-1.8680311441421509,-0.41110309958457947,-1.0159660577774048,-1.8103183507919312, 0.11206195503473282
114,1916630372,0.12462245,-0.741649,0.012306029,-0.65899533,9.691296577453613,-1.9057343006134033,-0.39212653040885925,-0.6843841075897217,-1.7481050491333008, -0.06862922012805939
115,1916647039,0.12428443,-0.74161726,0.012564884,-0.65908986,9.700257301330566,-1.870321273803711,-0.3663921654224396,-1.0259807109832764,-1.581737756729126, -0.17397427558898926
116,1916663706,0.12393771,-0.741582,0.012867281,-0.6591891,9.710131645202637,-1.8886371850967407,-0.35833194851875305,-1.4231568574905396,-1.4967933893203735, 0.026054518297314644
117,1916680373,0.12358776,-0.74153984,0.013194553,-0.6592957,9.702554702758789,-1.8810067176818848,-0.37716299295425415,-1.4928746223449707,-1.4440823793411255, 0.13033662736415863
118,1916697040,0.123233125,-0.74150276,0.013557073,-0.6593964,9.709843635559082,-1.9031111001968384,-0.3305937647819519,-1.706510305404663,-1.485779881477356, 0.2994316816329956
119,1916713707,0.12287634,-0.74145514,0.01391563,-0.659509,9.667407035827637,-1.9298880100250244,-0.3581981360912323,-1.6372150182724,-1.4196606874465942, 0.25705549120903015
120,1916730374,0.12254738,-0.7413964,0.014276041,-0.65962857,9.67731761932373,-1.9347963333129883,-0.3372884690761566,-1.5496578216552734,-1.3490592241287231, 0.393250972032547
121,1916747041,0.12225503,-0.74133736,0.0145878885,-0.6597424,9.675172805786133,-1.9099524021148682,-0.33503276109695435,-1.0667176246643066,-1.4645724296569824, 0.30834487080574036
122,1916763708,0.121924646,-0.74128336,0.014905021,-0.65985703,9.688958168029785,-1.8926916122436523,-0.33581113815307617,-1.1805918216705322,-1.5239299535751343, 0.1518256813287735
123,1916780375,0.12163317,-0.7412083,0.0151522,-0.6599895,9.696178436279297,-1.9029929637908936,-0.3367019593715668,-0.734661877155304,-1.4079686403274536, -0.0290191899985075
124,1916797042,0.12138965,-0.7411212,0.015340666,-0.66012776,9.68543815612793,-1.9297446012496948,-0.3159457743167877,-0.32082465291023254,-1.3820868730545044, -0.10065791010856628
125,1916813709,0.12114997,-0.7410304,0.015542893,-0.660269,9.684211730957031,-1.9171422719955444,-0.291154146194458,-0.13410809636116028,-1.4129374027252197, -0.037522606551647186
126,1916830376,0.120937,-0.7409532,0.015761344,-0.66038954,9.6898832321167,-1.9082484245300293,-0.2855921983718872,-0.13307079672813416,-1.5882821083068848, 0.1884518414735794
127,1916847043,0.12074176,-0.7408878,0.01598392,-0.66049325,9.701924324035645,-1.8815580606460571,-0.262667715549469,-0.1566728800535202,-1.7374632358551025, 0.31304484605789185
128,1916863710,0.12054461,-0.7408389,0.016217122,-0.6605784,9.714674949645996,-1.8670809268951416,-0.2848998010158539,-0.21743901073932648,-1.9305442571640015, 0.37455374002456665
129,1916880377,0.120312214,-0.7408074,0.016470421,-0.6606498,9.70885181427002,-1.8785514831542969,-0.281314879655838,-0.4865773022174835,-2.091264009475708, 0.329398512840271
130,1916897044,0.120096855,-0.74078345,0.01671074,-0.6607098,9.703033447265625,-1.9040906429290771,-0.2991327941417694,-0.39001742005348206,-2.2158827781677246, 0.3572779595851898
131,1916913711,0.119895734,-0.7407527,0.016926283,-0.6607754,9.68819522857666,-1.9033690690994263,-0.3047245144844055,-0.11022426187992096,-2.2229902744293213, 0.2850757837295532
132,1916930378,0.11973116,-0.740716,0.017142447,-0.6608408,9.674689292907715,-1.905502200126648,-0.2943280041217804,0.11199792474508286,-2.233504295349121, 0.4537610113620758
133,1916947045,0.11955244,-0.74068743,0.017343782,-0.6608999,9.704658508300781,-1.8724193572998047,-0.2874649465084076,0.05974802002310753,-2.3314855098724365, 0.3242887854576111
134,1916963712,0.119451486,-0.7406631,0.017489722,-0.6609416,9.688495635986328,-1.904780626296997,-0.24453702569007874,0.8601192235946655,-2.554456949234009, 0.3980918228626251
135,1916980379,0.119403705,-0.7406402,0.017581226,-0.66097337,9.694066047668457,-1.892094373703003,-0.27734553813934326,1.223525047302246,-2.6601860523223877, 0.3881412446498871
136,1916997046,0.11928528,-0.74062485,0.01771273,-0.6610085,9.700491905212402,-1.898910403251648,-0.31203532218933105,0.7975859045982361,-2.687438488006592, 0.25838732719421387
137,1917013713,0.119167134,-0.74060357,0.017839516,-0.6610502,9.706119537353516,-1.8732072114944458,-0.31700217723846436,0.6668330430984497,-2.622663736343384, 0.24979424476623535
138,1917030380,0.11903291,-0.740583,0.018002605,-0.6610931,9.702171325683594,-1.8933404684066772,-0.27426016330718994,0.6164336204528809,-2.6519389152526855, 0.3455536961555481
139,1917047047,0.11891001,-0.74055475,0.01818965,-0.66114163,9.716635704040527,-1.8717858791351318,-0.28461211919784546,0.599266767501831,-2.6021223068237305, 0.5157949328422546
140,1917063714,0.118799835,-0.7405448,0.018361265,-0.6611679,9.714323997497559,-1.8593614101409912,-0.27057144045829773,0.5119401812553406,-2.796381711959839, 0.5360289216041565
141,1917080381,0.118699595,-0.74052334,0.018524352,-0.66120535,9.710518836975098,-1.8857382535934448,-0.2944464087486267,0.6118170022964478,-2.72189998626709, 0.5356447696685791
142,1917097048,0.11864201,-0.74048686,0.018649347,-0.6612531,9.681966781616211,-1.908202886581421,-0.2744537591934204,0.8388351798057556,-2.6261215209960938, 0.5506794452667236
143,1917113715,0.11856182,-0.74044776,0.01879465,-0.66130716,9.677594184875488,-1.8875905275344849,-0.2874009609222412,0.9316170811653137,-2.648545026779175, 0.5191758275032043
144,1917130382,0.1184738,-0.74040186,0.018958287,-0.6613697,9.668169975280762,-1.8879176378250122,-0.2886936068534851,0.7517519593238831,-2.569427728652954, 0.5806719064712524
145,1917147049,0.1183936,-0.74035674,0.019083783,-0.66143095,9.706459999084473,-1.8887690305709839,-0.27385807037353516,0.8848354816436768,-2.618680953979492, 0.43430817127227783
146,1917163716,0.11828635,-0.7403173,0.01926793,-0.66148883,9.68814754486084,-1.8686918020248413,-0.2612694501876831,0.6647200584411621,-2.6742351055145264, 0.596936047077179
147,1917180383,0.11819773,-0.7402782,0.01945143,-0.6615432,9.668731689453125,-1.8856191635131836,-0.26888418197631836,0.6066816449165344,-2.6896023750305176, 0.7013334035873413
148,1917197050,0.118052006,-0.7402493,0.019682113,-0.6615947,9.695664405822754,-1.8937468528747559,-0.26972731947898865,0.4387391209602356,-2.800184965133667, 0.651708722114563
149,1917213717,0.11795259,-0.7402142,0.019863985,-0.6616462,9.719473838806152,-1.872861623764038,-0.257475346326828,0.6723269820213318,-2.7949345111846924, 0.6405031085014343
150,1917230384,0.11785322,-0.7401717,0.020024857,-0.66170657,9.68629264831543,-1.8788834810256958,-0.25977349281311035,0.7936286330223083,-2.760331869125366, 0.5307911038398743
151,1917247051,0.11774502,-0.74013966,0.020190138,-0.6617567,9.682241439819336,-1.8934605121612549,-0.28672656416893005,0.7460403442382812,-2.885347604751587, 0.521365761756897
152,1917263718,0.11762685,-0.74012274,0.020377574,-0.66179085,9.67566204071045,-1.89986252784729,-0.2503814995288849,0.5056651830673218,-3.021824598312378, 0.6100112795829773
153,1917280385,0.11751048,-0.74010885,0.020579342,-0.6618207,9.687442779541016,-1.8998279571533203,-0.23087908327579498,0.444386750459671,-3.0694386959075928, 0.6968383193016052
154,1917297052,0.117366254,-0.74010086,0.020807767,-0.66184807,9.695719718933105,-1.8996374607086182,-0.2480033040046692,0.4020233154296875,-3.155266761779785, 0.6873359680175781
155,1917313719,0.117247045,-0.7400847,0.020992689,-0.6618813,9.71319580078125,-1.901931881904602,-0.24828746914863586,0.5986007452011108,-3.1219446659088135, 0.5922104120254517
156,1917330386,0.11714394,-0.7400577,0.021172553,-0.66192436,9.686761856079102,-1.8832728862762451,-0.27849894762039185,0.6980932950973511,-3.0496530532836914, 0.6381083726882935
157,1917347053,0.117032714,-0.74004376,0.021361988,-0.6619533,9.692233085632324,-1.886104941368103,-0.26560890674591064,0.6343561410903931,-3.1991922855377197, 0.6599047183990479
158,1917363720,0.11692394,-0.74002177,0.021549249,-0.66199106,9.712822914123535,-1.870263934135437,-0.2547745406627655,0.7865980267524719,-3.1662161350250244, 0.6456897258758545
159,1917380387,0.116811424,-0.7399967,0.021753639,-0.6620324,9.705033302307129,-1.8573147058486938,-0.2625862956047058,0.5500775575637817,-3.1128649711608887, 0.7322478294372559
160,1917397054,0.1166993,-0.73997676,0.021941327,-0.6620682,9.684914588928223,-1.9068607091903687,-0.2826550006866455,0.6478028297424316,-3.2040205001831055, 0.6561397314071655
161,1917413721,0.11660692,-0.7399554,0.02211551,-0.66210246,9.683823585510254,-1.9090685844421387,-0.27549779415130615,0.8029773831367493,-3.2370100021362305, 0.6820086240768433
162,1917430388,0.11661867,-0.7399516,0.022188928,-0.6621023,9.66672134399414,-1.9251748323440552,-0.2806803584098816,1.7386990785598755,-3.601274013519287, 0.674222469329834
163,1917447055,0.116644695,-0.7399503,0.022288114,-0.66209584,9.672042846679688,-1.8897991180419922,-0.27407923340797424,1.8046514987945557,-3.669518232345581, 0.865651547908783
164,1917463722,0.11662392,-0.739957,0.02240749,-0.66208804,9.684614181518555,-1.9277958869934082,-0.2613338530063629,1.4246617555618286,-3.6989738941192627, 0.7634057998657227
165,1917480389,0.11662628,-0.73994386,0.022478158,-0.66209984,9.669931411743164,-1.90536367893219,-0.2993030846118927,1.783252477645874,-3.571730136871338, 0.6099857687950134
166,1917497056,0.1166151,-0.73992854,0.0225679,-0.66211593,9.669061660766602,-1.9199111461639404,-0.27164095640182495,1.5197488069534302,-3.5169825553894043, 0.6562550067901611
167,1917513723,0.11681658,-0.7398636,0.022387825,-0.6621591,9.62721061706543,-1.9438656568527222,-0.3146231174468994,3.762230396270752,-3.397435188293457, 0.25172802805900574
168,1917530390,0.11709555,-0.73989296,0.022181759,-0.6620839,9.526386260986328,-1.963625431060791,-0.3172174394130707,4.2271647453308105,-4.486691951751709, 0.5503849387168884
169,1917547057,0.11716692,-0.74005425,0.02213941,-0.6618925,9.527996063232422,-1.9635933637619019,-0.31814053654670715,2.370551347732544,-5.543331146240234, 0.5035648941993713
170,1917563724,0.11713777,-0.740334,0.022177497,-0.6615835,9.595809936523438,-1.9690639972686768,-0.2505788505077362,1.4661670923233032,-6.6325883865356445, 0.5207894444465637
171,1917580391,0.117761694,-0.7403475,0.021637188,-0.66147524,9.672521591186523,-1.9556884765625,-0.22581879794597626,7.592035293579102,-4.968417167663574, 0.4332197308540344
172,1917597058,0.11848643,-0.74041426,0.021081442,-0.6612893,9.658729553222656,-1.916158676147461,-0.17270402610301971,8.117696762084961,-5.653557300567627, 0.8725672960281372
173,1917613725,0.11922345,-0.7406843,0.02049483,-0.6608727,9.680798530578613,-1.8810640573501587,-0.21562017500400543,8.125357627868652,-7.802643299102783, 0.9353698492050171
174,1917630392,0.12030296,-0.7409435,0.01955424,-0.66041476,9.730926513671875,-2.034310817718506,-0.2304263859987259,11.388483047485352,-8.304640769958496, 0.742595911026001
175,1917647059,0.12188161,-0.74109,0.018106174,-0.6600022,9.56920337677002,-1.9505599737167358,-0.38824665546417236,16.20405387878418,-8.04187297821045, 0.41850563883781433
176,1917663726,0.12302637,-0.74141353,0.017112054,-0.6594528,9.56086540222168,-1.9097493886947632,-0.39098766446113586,11.72616195678711,-9.108036041259766, 0.8664845824241638
177,1917680393,0.123802856,-0.74185413,0.016550347,-0.6588259,9.657552719116211,-1.848190188407898,-0.3086701035499573,7.971284866333008,-9.676264762878418, 1.439363956451416
178,1917697060,0.12457724,-0.7423367,0.016086966,-0.6581475,9.755569458007812,-1.8718109130859375,-0.3246304392814636,7.527889728546143,-10.073031425476074, 1.9736322164535522
179,1917713727,0.1267926,-0.7423474,0.014449377,-0.65775025,9.73521900177002,-2.0526018142700195,-0.2720274031162262,19.943418502807617,-7.539994239807129, 2.3978326320648193
180,1917730394,0.12917584,-0.7423263,0.012718148,-0.65734595,9.658567428588867,-1.8958450555801392,-0.40066608786582947,21.712547302246094,-7.6473002433776855, 2.6495301723480225
181,1917747061,0.1312961,-0.74244547,0.011292452,-0.656817,9.79501724243164,-1.7524911165237427,-0.14205606281757355,18.251449584960938,-8.505220413208008, 3.1986396312713623
182,1917763728,0.13314997,-0.742632,0.010338025,-0.65624857,9.884870529174805,-1.6478893756866455,-0.21012811362743378,14.806788444519043,-8.614521980285645, 4.445133686065674
183,1917780395,0.134875,-0.74293244,0.009660362,-0.6555662,9.789523124694824,-1.7921687364578247,-0.33467864990234375,12.708784103393555,-9.454002380371094, 5.411258220672607
184,1917797062,0.13664481,-0.7435092,0.009033697,-0.6545538,9.551554679870605,-2.1402716636657715,-0.3907626271247864,12.359862327575684,-12.341543197631836, 6.188784122467041
185,1917813729,0.13847856,-0.74411803,0.008400987,-0.6534841,9.524099349975586,-2.1892876625061035,-0.38479918241500854,12.451957702636719,-12.750506401062012, 6.52076530456543
186,1917830396,0.14055346,-0.74460024,0.007610189,-0.65250075,9.619077682495117,-2.28534197807312,-0.03315252810716629,14.100110054016113,-11.822991371154785, 6.76399564743042
187,1917847063,0.14260404,-0.7449387,0.0069520273,-0.65167636,9.775578498840332,-2.0552804470062256,-0.15870043635368347,13.615385055541992,-10.28796672821045, 7.173503398895264
188,1917863730,0.14467192,-0.7452116,0.006392764,-0.65091395,9.780762672424316,-2.049783945083618,-0.3172703683376312,11.588907241821289,-9.209529876708984, 7.906245231628418
189,1917880397,0.14618893,-0.7456217,0.0063594454,-0.65010506,9.750310897827148,-1.9408857822418213,-0.6383728384971619,6.81464147567749,-9.655073165893555, 8.12680721282959
190,1917897064,0.14736645,-0.7462446,0.0065441937,-0.649122,9.57267951965332,-2.174288034439087,-0.6555794477462769,4.001814365386963,-11.292173385620117, 7.895895004272461
191,1917913731,0.1483423,-0.74699247,0.0067774616,-0.64803636,9.579143524169922,-2.2002391815185547,-0.5709205865859985,2.8067634105682373,-12.361939430236816, 7.322221755981445
192,1917930398,0.14938089,-0.74767685,0.006738404,-0.6470081,9.816563606262207,-2.1405460834503174,-0.41046643257141113,3.8181068897247314,-11.926446914672852, 6.2200422286987305
193,1917947065,0.15169868,-0.74770415,0.0054583615,-0.6464491,9.81644344329834,-2.08156681060791,-0.6292341947555542,14.561748504638672,-7.443351745605469, 5.341450214385986
194,1917963732,0.15481178,-0.7472585,0.0034261064,-0.64624035,9.731623649597168,-2.3172569274902344,-0.6608526110649109,22.86046028137207,-4.439406394958496, 4.638065814971924
195,1917980399,0.15788913,-0.7467055,0.0013687819,-0.64614266,9.5745267868042,-2.1552960872650146,-0.7125465869903564,24.7978572845459,-3.8778223991394043, 4.016855239868164
196,1917997066,0.16056769,-0.7463638,-0.00045657833,-0.6458785,9.515040397644043,-2.1413042545318604,-0.6854515671730042,20.305044174194336,-5.1197943687438965, 3.768857479095459
197,1918013733,0.16305877,-0.74600476,-0.00215384,-0.64566576,9.541221618652344,-2.2651968002319336,-0.6089308261871338,19.63703727722168,-4.835044860839844, 3.4558820724487305
198,1918030400,0.16554792,-0.7456592,-0.0039370693,-0.64542305,9.450148582458496,-2.1263887882232666,-0.6064507365226746,18.332075119018555,-4.731311798095703, 3.2384159564971924
199,1918047067,0.16812456,-0.7452603,-0.0057643894,-0.64520395,9.578640937805176,-2.2921829223632812,-0.4594234824180603,21.521793365478516,-5.0377197265625, 3.1049110889434814
200,1918063734,0.17127141,-0.7446591,-0.008138456,-0.64504474,9.584217071533203,-2.1863925457000732,-0.5274070501327515,25.765010833740234,-4.11497163772583, 2.9153406620025635
201,1918080401,0.17496024,-0.7436365,-0.010989723,-0.6451922,9.537550926208496,-2.1555898189544678,-0.8347193598747253,30.07005500793457,-0.9360705018043518, 2.624676465988159
202,1918097068,0.17818287,-0.74266374,-0.013318343,-0.6453868,9.374999046325684,-2.071621894836426,-0.8598136305809021,26.350942611694336,-0.5731368660926819, 3.0782508850097656
203,1918113735,0.18099126,-0.74179953,-0.015192274,-0.6455579,9.439133644104004,-2.3117449283599854,-0.7718995213508606,22.72462272644043,-0.7947251200675964, 3.5529422760009766
204,1918130402,0.18377791,-0.7412593,-0.016916478,-0.64534813,9.339152336120605,-2.1513547897338867,-0.3445090055465698,20.79500389099121,-3.7707080841064453, 4.815227508544922
205,1918147069,0.1862212,-0.741197,-0.018162772,-0.6446854,9.39293384552002,-2.3639955520629883,-0.18375201523303986,16.8961124420166,-7.777434825897217, 6.316030025482178
206,1918163736,0.18824671,-0.74153364,-0.018969854,-0.64368576,9.47871208190918,-2.2315382957458496,-0.18012318015098572,12.267607688903809,-10.7407865524292, 7.1958513259887695
207,1918180403,0.19001208,-0.7421586,-0.019459102,-0.642431,9.54371166229248,-2.281325578689575,-0.0952884703874588,8.794520378112793,-12.840774536132812, 8.085906982421875
208,1918197070,0.19164115,-0.7429922,-0.019751478,-0.640973,9.666852951049805,-2.2952184677124023,-0.05082947760820389,6.614326477050781,-14.484125137329102, 8.83180046081543
209,1918213737,0.19322824,-0.7439069,-0.020077698,-0.63942355,9.677691459655762,-2.365065336227417,-0.21247829496860504,5.476635932922363,-15.11122989654541, 8.725739479064941
210,1918230404,0.194388,-0.744904,-0.020139677,-0.63790745,9.7053804397583,-2.5279440879821777,-0.20521245896816254,2.742002487182617,-15.222077369689941, 8.099787712097168
211,1918247071,0.19515741,-0.74591446,-0.020224895,-0.6364876,9.773414611816406,-2.6007204055786133,-0.33987337350845337,0.073719821870327,-14.687898635864258, 6.231287479400635
212,1918263738,0.19555746,-0.7468801,-0.020420901,-0.6352248,9.798694610595703,-2.6916496753692627,-0.4432193338871002,-1.5100107192993164,-13.842598915100098, 3.8592286109924316
213,1918280405,0.1957154,-0.7476999,-0.020836275,-0.63419753,9.798839569091797,-2.6434555053710938,-0.48119837045669556,-2.394455909729004,-12.13000202178955, 1.430079460144043
214,1918297072,0.19531702,-0.7484502,-0.021024717,-0.6334286,9.837949752807617,-2.4997880458831787,-0.5339296460151672,-4.061343669891357,-10.87775707244873, -0.444815993309021
215,1918313739,0.19472475,-0.7491552,-0.021245223,-0.6327698,9.6934814453125,-2.5020458698272705,-0.4784713387489319,-5.611924648284912,-9.994913101196289, -1.5137497186660767
216,1918330406,0.1940101,-0.74983823,-0.02163089,-0.6321669,9.554910659790039,-2.7471609115600586,-0.5963848233222961,-5.342710018157959,-9.91190242767334, -2.993536949157715
217,1918347073,0.19336107,-0.75050354,-0.022423647,-0.6315482,9.459757804870605,-2.7917027473449707,-0.5816149711608887,-3.0807859897613525,-10.4965238571167, -4.816597938537598
218,1918363740,0.19288816,-0.75113416,-0.02364388,-0.6308986,9.509392738342285,-2.5553085803985596,-0.27042049169540405,-0.21216291189193726,-11.074553489685059, -6.243777275085449
219,1918380407,0.19243199,-0.7518978,-0.02504512,-0.6300733,9.478225708007812,-2.424917221069336,-0.5159890651702881,0.7304298877716064,-12.884912490844727, -6.882981777191162
220,1918397074,0.19202375,-0.75284654,-0.026551515,-0.6290025,9.39579963684082,-2.544829845428467,-0.3443388044834137,0.8805590271949768,-15.010272979736328, -6.810308456420898
221,1918413741,0.19135918,-0.7540374,-0.027941877,-0.62771696,9.395340919494629,-2.3183348178863525,-0.3336779773235321,-1.2786003351211548,-17.076967239379883, -6.985296249389648
222,1918430408,0.19035847,-0.7554954,-0.028963625,-0.6262203,9.539108276367188,-2.205622911453247,-0.41723930835723877,-5.0605645179748535,-18.89668083190918, -6.168046951293945
223,1918447075,0.18912178,-0.75720227,-0.029616427,-0.62450033,9.645841598510742,-1.9796042442321777,-0.573239803314209,-7.701368808746338,-20.837682723999023, -4.977900981903076
224,1918463742,0.18798845,-0.75915015,-0.0304131,-0.6224361,9.476621627807617,-2.337327003479004,-0.7219792008399963,-7.067686557769775,-23.780969619750977, -4.7183308601379395
225,1918480409,0.18697125,-0.76127744,-0.03147651,-0.6200869,9.357806205749512,-2.4828743934631348,-0.9344339966773987,-6.013314247131348,-26.23943328857422, -5.114165306091309
226,1918497076,0.18576805,-0.76359844,-0.03247071,-0.61753815,9.404191970825195,-2.4172027111053467,-0.9801356792449951,-6.332259178161621,-28.36263656616211, -5.434749126434326
227,1918513743,0.18435957,-0.7661447,-0.033557754,-0.61474204,9.431084632873535,-2.462287187576294,-0.9121677875518799,-7.9868364334106445,-30.60437774658203, -6.295930862426758
228,1918530410,0.18263598,-0.7689112,-0.034586668,-0.6117381,9.461349487304688,-2.391815185546875,-1.016439437866211,-9.454032897949219,-32.813026428222656, -7.125956058502197
229,1918547077,0.17998888,-0.77211064,-0.035222955,-0.6084475,9.51311206817627,-2.1940078735351562,-1.3190271854400635,-16.6361083984375,-35.85017395019531, -8.43652629852295
230,1918563744,0.17638223,-0.77565116,-0.035310294,-0.6049859,9.772443771362305,-2.197810649871826,-1.3279614448547363,-22.656238555908203,-38.16936111450195, -9.590399742126465
231,1918580411,0.17244464,-0.7793026,-0.035306532,-0.6014181,9.949859619140625,-1.8986022472381592,-1.3567687273025513,-24.957632064819336,-39.16545486450195, -10.324675559997559
232,1918597078,0.168156,-0.7830323,-0.035222452,-0.5977822,10.068772315979004,-1.9675673246383667,-1.4434611797332764,-27.222665786743164,-39.864601135253906, -11.247798919677734
233,1918613745,0.16349652,-0.7869308,-0.035148263,-0.5939474,10.157926559448242,-2.0539145469665527,-1.260056734085083,-29.315963745117188,-41.75110626220703, -12.558156967163086
234,1918630412,0.15817747,-0.7910989,-0.034730833,-0.5898613,10.146377563476562,-1.9761351346969604,-1.3525892496109009,-34.516456604003906,-44.022647857666016, -13.060182571411133
235,1918647079,0.15247574,-0.79539055,-0.034045383,-0.58561593,10.371636390686035,-1.8733638525009155,-1.598705768585205,-37.7731819152832,-45.22700881958008, -12.965723991394043
236,1918663746,0.14688425,-0.79964525,-0.033428025,-0.58127046,10.723241806030273,-1.9222314357757568,-1.5438686609268188,-36.824161529541016,-45.7067756652832, -12.808945655822754
237,1918680413,0.14133456,-0.80393827,-0.033050735,-0.5767285,11.699187278747559,-2.141413927078247,-0.8981389999389648,-35.62123489379883,-47.2205696105957, -13.767130851745605
238,1918697080,0.1355388,-0.8087149,-0.032953344,-0.5714227,12.320625305175781,-1.805823564529419,-0.7425516843795776,-36.16973114013672,-53.782711029052734, -15.455124855041504
239,1918713747,0.12950839,-0.8141764,-0.033326533,-0.56500787,12.786738395690918,-1.6922576427459717,-1.1686657667160034,-36.010581970214844,-63.24843215942383, -17.807056427001953
240,1918730414,0.1243671,-0.8199477,-0.034855068,-0.5576771,13.659053802490234,-2.1137704849243164,-0.787396252155304,-26.602867126464844,-70.51577758789062, -19.92873191833496
241,1918747081,0.120376594,-0.8258785,-0.03800436,-0.5495361,13.826855659484863,-1.883744478225708,-0.26719316840171814,-13.842069625854492,-76.95341491699219, -23.925310134887695
242,1918763748,0.11693189,-0.8321142,-0.042096138,-0.5405005,13.515204429626465,-1.8911640644073486,0.6449986100196838,-7.197724342346191,-84.00370788574219, -26.38482666015625
243,1918780415,0.1136513,-0.8386061,-0.046309005,-0.5307342,13.636326789855957,-2.2944462299346924,1.1358139514923096,-5.8055524826049805,-89.40901184082031, -25.800973892211914
244,1918797082,0.10929559,-0.84539825,-0.050267477,-0.52041286,13.120450973510742,-1.451786756515503,1.2975069284439087,-13.003093719482422,-94.10150909423828, -27.745553970336914
245,1918813749,0.10253599,-0.8528411,-0.053392973,-0.5092131,12.703594207763672,-1.600936770439148,2.30989408493042,-30.13690948486328,-102.00252532958984, -30.62403106689453
246,1918830416,0.09379519,-0.8606179,-0.056255434,-0.49736774,12.518303871154785,-1.51982843875885,2.7108845710754395,-42.672550201416016,-107.80400085449219, -35.47620391845703
247,1918847083,0.08103492,-0.8685107,-0.057990503,-0.485551,11.605690956115723,-1.3732000589370728,2.3970890045166016,-70.39080047607422,-109.1847152709961, -42.5911750793457
248,1918863750,0.06515354,-0.8760984,-0.058898162,-0.47406524,10.569679260253906,-2.624601125717163,-0.8116730451583862,-91.73279571533203,-107.27556610107422, -48.48545837402344
249,1918880417,0.049489327,-0.8838101,-0.060554683,-0.46126348,11.799111366271973,-4.563094615936279,-4.517608642578125,-87.49979400634766,-116.01639556884766, -51.82768249511719
250,1918897084,0.038173422,-0.8909244,-0.06346532,-0.44807246,11.490894317626953,-5.515285968780518,-2.6059532165527344,-56.773338317871094,-115.16293334960938, -46.002567291259766
251,1918913751,0.029123506,-0.89714736,-0.06550704,-0.4358756,9.824216842651367,-3.940683603286743,-1.3306248188018799,-45.86281204223633,-105.2416763305664, -34.588951110839844
252,1918930418,0.026439637,-0.9022228,-0.06751433,-0.42513165,10.015442848205566,-6.738620758056641,-2.794130325317383,-7.2045674324035645,-90.11125946044922, -16.260488510131836
253,1918947085,0.035368852,-0.9051793,-0.071178526,-0.4175322,8.62533950805664,-6.297703266143799,2.5058393478393555,68.41755676269531,-59.43927764892578, 5.683475017547607
254,1918963752,0.050263327,-0.90582836,-0.07550619,-0.41382092,6.888213634490967,-3.626458168029785,4.347183704376221,105.914794921875,-26.12894058227539, 16.539730072021484
255,1918980419,0.06743493,-0.90424097,-0.08012368,-0.41398185,6.623622417449951,-2.5665602684020996,3.5486440658569336,119.55914306640625,5.149616241455078, 18.78429412841797
256,1918997086,0.084769666,-0.90038294,-0.084454484,-0.41832095,6.732234001159668,-1.9892942905426025,2.8353042602539062,118.41492462158203,37.56964874267578, 17.960386276245117
257,1919013753,0.102065764,-0.89423126,-0.08847017,-0.42673895,6.8897385597229,-1.4886929988861084,2.093080759048462,116.16616821289062,69.36788177490234, 16.224742889404297
258,1919030420,0.11809183,-0.88599205,-0.09196302,-0.4388794,7.1122660636901855,-0.5415372252464294,1.3120509386062622,105.97299194335938,97.79610443115234, 11.969741821289062
259,1919047087,0.13121693,-0.87612766,-0.09429622,-0.4541923,7.27297830581665,0.08039925247430801,1.0445340871810913,84.09498596191406,120.98696899414062, 6.81757926940918
260,1919063754,0.1417644,-0.864576,-0.0956487,-0.4725068,7.603218078613281,-0.20352202653884888,0.7305427193641663,65.08087158203125,143.42417907714844, 0.9983742833137512
261,1919080421,0.15074249,-0.8511235,-0.096391216,-0.49353266,8.076752662658691,-0.44095274806022644,0.14919927716255188,53.842872619628906,165.17108154296875, -4.2823615074157715
262,1919097088,0.15823017,-0.83574986,-0.09629382,-0.5169265,8.870498657226562,-0.7980179786682129,-0.6785920858383179,42.69814682006836,185.3489227294922, -8.097094535827637
263,1919113755,0.16472456,-0.8187102,-0.095453456,-0.541727,9.771543502807617,-1.1415199041366577,-1.5949634313583374,35.239376068115234,199.45330810546875, -9.96504020690918
264,1919130422,0.1707201,-0.80026966,-0.09381857,-0.56711686,10.7236328125,-1.3594318628311157,-2.214931011199951,30.691499710083008,208.60435485839844, -8.931385040283203
265,1919147089,0.17717667,-0.78023726,-0.09218647,-0.5927393,11.52871322631836,-1.3263686895370483,-2.734686851501465,34.9981803894043,216.56637573242188, -8.449259757995605
266,1919163756,0.18353821,-0.7591989,-0.09050968,-0.6178501,12.064062118530273,-0.9945148825645447,-3.378474473953247,35.91084289550781,218.21539306640625, -8.603049278259277
267,1919180423,0.1899367,-0.7374556,-0.088960566,-0.64200425,12.723284721374512,-1.3489394187927246,-3.4805026054382324,38.205841064453125,216.48037719726562, -8.32007884979248
268,1919197090,0.1976478,-0.7144448,-0.088763654,-0.66530085,12.494812965393066,-1.6667121648788452,-3.5348355770111084,53.090450286865234,217.2305908203125, -9.0146484375
269,1919213757,0.20619911,-0.6903994,-0.089715384,-0.6875914,12.76492691040039,-1.5731884241104126,-3.3713698387145996,64.57007598876953,216.47872924804688, -10.056512832641602
270,1919230424,0.21437272,-0.66578597,-0.090877056,-0.70888287,13.116707801818848,-1.5017797946929932,-3.4549143314361572,65.27063751220703,214.40109252929688, -11.747634887695312
271,1919247091,0.22172858,-0.64094466,-0.092086546,-0.7290723,12.976953506469727,-1.1826937198638916,-3.6348259449005127,62.860050201416016,210.3961181640625, -14.452996253967285
272,1919263758,0.22768785,-0.61671686,-0.093249835,-0.7477454,12.861515045166016,-0.9004419445991516,-3.7765121459960938,56.56753921508789,200.3170166015625, -18.536958694458008
273,1919280425,0.23309042,-0.593584,-0.09528778,-0.76436067,12.479279518127441,-1.6491771936416626,-4.535998344421387,58.37156295776367,184.70066833496094, -21.173559188842773
274,1919297092,0.23894976,-0.57183844,-0.099429406,-0.7784714,12.260531425476074,-2.105921506881714,-5.318662643432617,70.77738952636719,164.5626220703125, -22.447589874267578
275,1919313759,0.24452513,-0.55285853,-0.10401702,-0.7897693,12.056673049926758,-2.3256473541259766,-6.534829616546631,69.49034118652344,138.19076538085938, -19.232967376708984
276,1919330426,0.248231,-0.53909063,-0.10615891,-0.79780513,11.547670364379883,-1.7620389461517334,-8.619646072387695,42.72932434082031,100.65729522705078, -10.912203788757324
277,1919347093,0.24888839,-0.53360045,-0.10354136,-0.80162627,10.215662002563477,-2.3165206909179688,-10.62647533416748,-5.675137519836426,45.90592575073242, 3.213399887084961
278,1919363760,0.24848466,-0.5357316,-0.099684305,-0.8008185,9.075858116149902,-3.398569107055664,-10.449676513671875,-26.09195327758789,-11.363933563232422, 15.218230247497559
279,1919380427,0.2486687,-0.54258907,-0.09761979,-0.79638654,8.500075340270996,-3.069528341293335,-9.351248741149902,-19.58879280090332,-53.11295700073242, 21.231441497802734
280,1919397094,0.25067803,-0.55143744,-0.09957834,-0.7894059,7.846441268920898,-3.2352712154388428,-9.07315444946289,7.603573322296143,-78.96453857421875, 21.872953414916992
281,1919413761,0.25547326,-0.55992335,-0.10643878,-0.7809547,8.732135772705078,-2.623553991317749,-5.518009185791016,46.44518280029297,-88.94812774658203, 20.653854370117188
282,1919430428,0.2635534,-0.56572306,-0.11468482,-0.7728807,10.650339126586914,-4.066305160522461,8.10134506225586,70.9986801147461,-73.01588439941406, 30.29785919189453
283,1919447095,0.27476773,-0.5665391,-0.122409075,-0.76717156,11.3683500289917,-0.12956871092319489,13.704794883728027,87.5853500366211,-34.03879165649414, 40.718505859375
284,1919463762,0.2841218,-0.5697965,-0.13009265,-0.76005435,17.00807762145996,7.105724811553955,0.49022626876831055,76.66687774658203,-54.07162857055664, 35.7940673828125
285,1919480429,0.2879849,-0.5814395,-0.13271114,-0.74925333,17.346839904785156,4.111760139465332,-2.5819904804229736,15.56796646118164,-107.30054473876953, 41.766788482666016
286,1919497096,0.2907853,-0.5955769,-0.12982331,-0.7374807,12.071430206298828,-3.733700752258301,2.4152872562408447,-21.10109519958496,-114.03108978271484, 62.582313537597656
287,1919513763,0.3006342,-0.60532415,-0.1333337,-0.7248613,7.744746685028076,-6.6122260093688965,-1.0080111026763916,49.75923538208008,-101.75914764404297, 69.85594177246094
288,1919530430,0.308086,-0.61452496,-0.13693789,-0.71322525,7.502893924713135,-5.239066123962402,-1.7503647804260254,40.50204849243164,-97.32722473144531, 54.9057731628418
289,1919547097,0.3157146,-0.62161446,-0.14242367,-0.7025921,10.661450386047363,-1.9028308391571045,0.7247390151023865,54.020870208740234,-86.5456771850586, 43.65821075439453
290,1919563764,0.316735,-0.63188094,-0.14185083,-0.693025,11.640572547912598,0.2678443491458893,1.4441474676132202,-11.431496620178223,-90.67202758789062, 38.427001953125
291,1919580431,0.31646797,-0.64258766,-0.1402196,-0.68356985,11.103361129760742,-1.4585922956466675,-0.3798903822898865,-23.141983032226562,-91.25823974609375, 37.10572814941406
292,1919597098,0.31677234,-0.6518187,-0.13960016,-0.674759,10.518062591552734,-1.736606240272522,0.28806936740875244,-13.270706176757812,-83.13262176513672, 32.505619049072266
293,1919613765,0.31605527,-0.6603888,-0.13815922,-0.667014,9.882311820983887,-2.6456117630004883,-0.1670583337545395,-21.243257522583008,-74.4957275390625, 28.497478485107422
294,1919630432,0.31579188,-0.6673157,-0.13765746,-0.6603149,9.961485862731934,-2.958055257797241,0.31403082609176636,-12.299410820007324,-63.83194351196289, 22.47454071044922
295,1919647099,0.3142974,-0.6739609,-0.136605,-0.6544716,9.87134075164795,-2.2750563621520996,0.6497840285301208,-20.64913558959961,-58.614662170410156, 17.281099319458008
296,1919663766,0.31198195,-0.6804334,-0.1347981,-0.6492359,10.125116348266602,-2.1429553031921387,0.15639401972293854,-28.04974365234375,-54.183349609375, 15.608015060424805
297,1919680433,0.30994844,-0.6861404,-0.13338739,-0.64447725,10.221668243408203,-2.205683946609497,-0.03925960510969162,-23.766300201416016,-49.140995025634766, 13.28361701965332
298,1919697100,0.3076902,-0.6915434,-0.1319867,-0.6400579,9.75184154510498,-2.372089385986328,-0.05361136794090271,-24.448015213012695,-46.43439483642578, 11.240765571594238
299,1919713767,0.30543715,-0.6965788,-0.13080435,-0.63590616,9.414124488830566,-2.7611212730407715,-0.07484988123178482,-22.930959701538086,-44.017879486083984, 9.326647758483887
300,1919730434,0.30359152,-0.7011541,-0.13027376,-0.63185763,9.349059104919434,-2.816439151763916,-0.012455236166715622,-17.26041603088379,-42.526817321777344, 7.351624011993408
301,1919747101,0.30225864,-0.7053632,-0.13041542,-0.62776935,9.329371452331543,-2.513714551925659,-0.06789150089025497,-11.071586608886719,-42.08527755737305, 6.089710235595703
302,1919763768,0.30108967,-0.709514,-0.13086472,-0.6235457,9.316814422607422,-2.532212257385254,-0.15130974352359772,-8.709685325622559,-42.995849609375, 5.532618522644043
303,1919780435,0.30004105,-0.7137404,-0.13160394,-0.6190561,9.293255805969238,-2.5919179916381836,-0.2045697718858719,-6.8002729415893555,-45.12067413330078, 5.251941680908203
304,1919797102,0.29909116,-0.71798605,-0.13253886,-0.6143893,9.471500396728516,-2.4234039783477783,-0.3663468658924103,-5.365172386169434,-46.39695739746094, 5.09342622756958
305,1919813769,0.29844448,-0.7221604,-0.13370396,-0.6095397,9.663724899291992,-2.194200277328491,-0.4733678102493286,-2.5851361751556396,-47.20445251464844, 5.548606872558594
306,1919830436,0.29764715,-0.72656393,-0.13461214,-0.60447556,9.760042190551758,-2.144108772277832,-0.6291210055351257,-4.685396671295166,-48.85084915161133, 6.846146106719971
307,1919847103,0.29697663,-0.7310083,-0.13550249,-0.59922534,9.733445167541504,-2.2825489044189453,-0.6878427267074585,-4.0391845703125,-49.803192138671875, 7.883410453796387
308,1919863770,0.29611373,-0.73567367,-0.13622722,-0.59375334,9.591526985168457,-2.401338815689087,-0.838154137134552,-5.933944225311279,-51.676673889160156, 8.583610534667969
309,1919880437,0.29517275,-0.7404206,-0.13695125,-0.58812815,9.515878677368164,-2.5457310676574707,-1.102182149887085,-6.355997085571289,-52.86342239379883, 8.657493591308594
310,1919897104,0.29424432,-0.74518096,-0.13772163,-0.58237326,9.591086387634277,-2.5802111625671387,-1.252002239227295,-6.011427402496338,-53.664493560791016, 8.747872352600098
311,1919913771,0.29328528,-0.7499349,-0.13862123,-0.5765115,9.672751426696777,-2.5815072059631348,-1.3640903234481812,-5.536846160888672,-54.481021881103516, 8.173426628112793
312,1919930438,0.29213512,-0.75476533,-0.13949561,-0.5705501,9.769153594970703,-2.5497653484344482,-1.4127339124679565,-6.682837963104248,-55.43366622924805, 7.8197922706604
313,1919947105,0.29080582,-0.75961,-0.14024298,-0.5645851,10.015039443969727,-2.531317949295044,-1.549535870552063,-8.135900497436523,-55.429508209228516, 7.7975850105285645
314,1919963772,0.28922346,-0.76450217,-0.14059097,-0.5586777,10.296924591064453,-2.408266067504883,-1.4830503463745117,-11.160231590270996,-54.762779235839844, 8.8336181640625
315,1919980439,0.2872281,-0.7695681,-0.14038604,-0.552772,10.658659934997559,-1.9161535501480103,-1.5380276441574097,-15.8029146194458,-54.72843933105469, 10.320868492126465
316,1919997106,0.28458256,-0.775072,-0.13946807,-0.54664886,10.902024269104004,-2.0588011741638184,-1.6431770324707031,-22.60847282409668,-56.76909255981445, 12.480515480041504
317,1920013773,0.28153512,-0.7808635,-0.13825625,-0.540255,11.028166770935059,-2.3660776615142822,-1.5242221355438232,-26.15894317626953,-59.111305236816406, 13.347615242004395
318,1920030440,0.2783675,-0.7868205,-0.13709755,-0.53350693,11.263341903686523,-2.399834156036377,-1.4574038982391357,-26.590776443481445,-61.8541259765625, 13.462444305419922
319,1920047107,0.27475795,-0.79306626,-0.13576649,-0.5264234,11.580222129821777,-2.6184473037719727,-1.2571866512298584,-29.852554321289062,-64.8262939453125, 13.692309379577637
320,1920063774,0.270096,-0.79982996,-0.13396208,-0.5190129,12.066365242004395,-2.5181190967559814,-0.8800135254859924,-37.9798698425293,-68.5849609375, 13.568611145019531
321,1920080441,0.26354724,-0.80747145,-0.13125427,-0.51118004,12.653196334838867,-2.4962875843048096,-0.6488737463951111,-52.82408142089844,-74.11869049072266, 13.40035629272461
322,1920097108,0.25528416,-0.81577885,-0.12806343,-0.5029261,14.075848579406738,-2.2612686157226562,0.007518008351325989,-64.87055969238281,-79.48928833007812, 11.426182746887207
323,1920113775,0.24562804,-0.8247042,-0.12517604,-0.49382293,15.531447410583496,-1.9230042695999146,1.4815471172332764,-71.97635650634766,-88.17916870117188, 6.949678421020508
324,1920130442,0.23435801,-0.8344084,-0.12230995,-0.48361078,16.41162109375,-1.164957046508789,2.674103021621704,-81.4244613647461,-98.58065032958984, 3.902569055557251
325,1920147109,0.22139423,-0.8445844,-0.11971784,-0.47257742,18.45258331298828,0.9033244848251343,4.965457916259766,-90.30786895751953,-106.78081512451172, -1.567643642425537
326,1920163776,0.20547365,-0.8556193,-0.11661462,-0.4605402,18.064960479736328,1.6877267360687256,6.595711708068848,-109.62590026855469,-117.13378143310547, -5.949153900146484
327,1920180443,0.18751627,-0.8668285,-0.1132147,-0.44791585,15.846023559570312,0.37320515513420105,6.181962966918945,-122.32698059082031,-122.43897247314453, -9.663965225219727
328,1920197110,0.16754843,-0.877723,-0.11003064,-0.43522754,11.367899894714355,-3.354194402694702,-0.5948590040206909,-133.1938934326172,-123.77029418945312, -17.30181121826172
329,1920213777,0.14721857,-0.88838214,-0.10939269,-0.42087677,12.52629566192627,-4.283585071563721,-5.694799423217773,-126.2360610961914,-136.32952880859375, -32.03717803955078
330,1920230444,0.13107479,-0.8972468,-0.11157746,-0.40659365,12.546195983886719,-4.559473514556885,0.031022220849990845,-90.72660064697266,-130.42843627929688, -38.60826110839844
331,1920247111,0.11708345,-0.90469354,-0.11309766,-0.39373893,10.259772300720215,-5.760219097137451,2.4620633125305176,-79.13379669189453,-115.432373046875, -30.888233184814453
332,1920263778,0.10891057,-0.9096192,-0.11470509,-0.38415435,7.323532581329346,-4.88979434967041,0.6078430414199829,-43.23734664916992,-83.84358978271484, -20.299448013305664
333,1920280445,0.10421381,-0.9131856,-0.114796676,-0.37689987,10.045875549316406,-6.818808078765869,-2.758673667907715,-26.338193893432617,-61.817283630371094, -4.477145671844482
334,1920297112,0.10991785,-0.9132299,-0.11563142,-0.37491164,7.950440883636475,-4.87419319152832,4.857597351074219,39.228939056396484,-11.959477424621582, 11.233418464660645
335,1920313779,0.11889437,-0.91085255,-0.11614217,-0.377787,5.008697032928467,-1.317450761795044,5.666270732879639,56.879478454589844,27.6278133392334, 16.093730926513672
336,1920330446,0.1268933,-0.90642774,-0.11608026,-0.38576213,4.54563045501709,-0.640631377696991,3.3457846641540527,46.86319351196289,64.54313659667969, 11.342581748962402
337,1920347113,0.13503991,-0.8997724,-0.11610166,-0.39836442,4.870452404022217,-1.368644118309021,2.049070119857788,46.255950927734375,99.32907104492188, 5.404207706451416
338,1920363780,0.1445513,-0.89041424,-0.11664618,-0.4155251,5.285839080810547,-1.4297157526016235,1.7848215103149414,55.000938415527344,135.53182983398438, -0.48181116580963135
339,1920380447,0.15429612,-0.8786138,-0.117179394,-0.43646228,5.846891403198242,-0.9870949387550354,1.01398766040802,55.79553985595703,165.82406616210938, -5.45640230178833
340,1920397114,0.16283755,-0.86475664,-0.11684485,-0.46046403,6.7872514724731445,-0.4056958556175232,0.07383763045072556,45.63621520996094,190.45977783203125, -8.731245994567871
341,1920413781,0.16965313,-0.84897083,-0.11550498,-0.4869547,7.374520778656006,-0.3852691948413849,-0.4969092309474945,32.35564041137695,211.10621643066406, -12.550698280334473
342,1920430448,0.1751541,-0.83076125,-0.11354018,-0.51600945,8.502028465270996,-0.22421428561210632,-0.9853460788726807,23.386701583862305,233.8818817138672, -18.219192504882812
343,1920447115,0.17806739,-0.81067723,-0.1099367,-0.54681677,9.9631929397583,-0.004710940644145012,-1.7225627899169922,3.6845226287841797,250.50636291503906, -21.61259651184082
344,1920463782,0.17768109,-0.7895242,-0.103235826,-0.5782937,11.323564529418945,-0.2816678285598755,-2.782686948776245,-25.547176361083984,259.56622314453125, -18.380552291870117
345,1920480449,0.17630357,-0.76726556,-0.09458832,-0.6093223,12.12856388092041,-1.0948752164840698,-3.6615943908691406,-36.99195861816406,263.220947265625, -11.993040084838867
346,1920497116,0.17579146,-0.7436724,-0.08562698,-0.63930947,13.19664192199707,-1.4095159769058228,-4.470778465270996,-31.437387466430664,264.2904357910156, -6.323729038238525
347,1920513783,0.17710711,-0.71901673,-0.07711802,-0.66760844,13.876387596130371,-1.9447654485702515,-5.1223368644714355,-17.814163208007812,260.89715576171875, 0.808563768863678
348,1920530450,0.18219315,-0.6927137,-0.07116604,-0.6941823,14.24360179901123,-2.246483087539673,-5.2381157875061035,15.50146770477295,258.8707275390625, 6.698765754699707
349,1920547117,0.1894022,-0.665186,-0.06773135,-0.7190739,15.463898658752441,-1.364700198173523,-5.960937023162842,39.99870681762695,254.64939880371094, 6.349076747894287
350,1920563784,0.19795972,-0.6376284,-0.067475304,-0.7414104,14.500882148742676,-2.0003702640533447,-7.117542743682861,63.127811431884766,239.66453552246094, 1.8012895584106445
351,1920580451,0.2089581,-0.6102156,-0.07287321,-0.7606991,13.618133544921875,-2.2213337421417236,-7.346156597137451,103.8887939453125,219.08177185058594, -6.323383808135986
352,1920597118,0.22088164,-0.58418185,-0.0823496,-0.7766346,13.196911811828613,-1.7849129438400269,-7.2834577560424805,128.8154296875,192.48472595214844, -13.085540771484375
353,1920613785,0.2312749,-0.561725,-0.09187755,-0.78900915,13.265665054321289,-2.1485631465911865,-8.86715316772461,119.5335693359375,158.20997619628906, -14.026955604553223
354,1920630452,0.238411,-0.5465276,-0.097983524,-0.7967854,12.335033416748047,-2.7127232551574707,-12.72557544708252,79.76128387451172,104.5350112915039, -6.58157205581665
355,1920647119,0.24147037,-0.542012,-0.0980166,-0.7989417,10.484220504760742,-2.7118217945098877,-14.349236488342285,17.460067749023438,32.22139358520508, 10.302037239074707
356,1920663786,0.24288331,-0.54573834,-0.09602429,-0.79621404,9.541504859924316,-2.9509358406066895,-12.533597946166992,-10.172224044799805,-28.881704330444336, 22.460227966308594
357,1920680453,0.24482155,-0.55337864,-0.095516734,-0.79038674,9.419456481933594,-3.1701836585998535,-11.59264087677002,-4.542938709259033,-63.975807189941406, 27.515947341918945
358,1920697120,0.24911724,-0.5636136,-0.10010348,-0.78119123,8.736992835998535,-2.575951099395752,-10.382264137268066,29.97412109375,-97.83818817138672, 28.304643630981445
359,1920713787,0.25795114,-0.57086825,-0.108405985,-0.77189314,12.032266616821289,-3.1455066204071045,8.466792106628418,72.7110824584961,-85.40352630615234, 36.38945388793945
360,1920730454,0.27259618,-0.57330054,-0.11948089,-0.7633758,14.049059867858887,1.124298334121704,8.501371383666992,118.20556640625,-57.3914794921875, 51.34923553466797
361,1920747121,0.28057024,-0.58195347,-0.12539262,-0.75291926,19.495344161987305,6.489319324493408,-3.8766109943389893,54.73131561279297,-93.5411605834961, 45.44449996948242
362,1920763788,0.28678802,-0.59551096,-0.12389836,-0.740114,16.32110595703125,-1.8956729173660278,-3.9610304832458496,1.9240199327468872,-115.5138931274414, 74.80567932128906
363,1920780455,0.29253313,-0.6085707,-0.121923804,-0.7274619,10.007230758666992,1.6919786930084229,2.302417516708374,-1.5864356756210327,-111.7759017944336, 73.64408874511719
364,1920797122,0.29399997,-0.62117857,-0.11534013,-0.7172155,7.529983043670654,-7.4208855628967285,-2.414666175842285,-43.64969253540039,-93.79081726074219, 66.33685302734375
365,1920813789,0.3011012,-0.62760675,-0.116257206,-0.70847183,8.30690860748291,-6.737972259521484,0.7410954833030701,28.719877243041992,-67.58554077148438, 54.10411071777344
366,1920830456,0.30653894,-0.63294965,-0.11748096,-0.70114696,9.684459686279297,-2.7605879306793213,1.6712825298309326,24.152341842651367,-58.15816116333008, 40.83541488647461
367,1920847123,0.31019798,-0.63889253,-0.11785217,-0.6940494,11.048626899719238,-1.8665622472763062,1.5610450506210327,10.851773262023926,-59.72319030761719, 35.97146987915039
368,1920863790,0.31229123,-0.64557046,-0.11715228,-0.6870143,10.639891624450684,-1.3349034786224365,0.9462077617645264,-2.7587029933929443,-61.9597282409668, 33.673179626464844
369,1920880457,0.31408733,-0.65160155,-0.11670685,-0.68054706,10.967602729797363,-0.5101208686828613,0.9943707585334778,-1.9457740783691406,-57.184234619140625, 29.410181045532227
370,1920897124,0.31353885,-0.6580343,-0.113362044,-0.67515445,10.56490707397461,-1.1658527851104736,0.6556165218353271,-27.74967384338379,-49.88481140136719, 29.44852066040039
371,1920913791,0.31287315,-0.6631411,-0.110123806,-0.6709897,10.433746337890625,-2.862473964691162,0.179855614900589,-25.885536193847656,-38.508663177490234, 24.75550079345703
372,1920930458,0.3125677,-0.66701365,-0.10802453,-0.6676265,10.239850997924805,-2.817819595336914,0.8296365737915039,-16.94138526916504,-31.34760856628418, 18.567895889282227
373,1920947125,0.31118754,-0.6706766,-0.1053774,-0.6650195,10.474409103393555,-1.648085594177246,0.8821815252304077,-24.49934196472168,-26.55229949951172, 14.368151664733887
374,1920963792,0.30733404,-0.6753257,-0.10046185,-0.66286385,10.374073028564453,-1.4430354833602905,0.6822390556335449,-48.71693801879883,-25.93275260925293, 13.281147003173828
375,1920980459,0.30229846,-0.68044806,-0.09484449,-0.66076535,10.250261306762695,-1.9579519033432007,0.5095823407173157,-58.44621658325195,-27.171537399291992, 11.373047828674316
376,1920997126,0.2975315,-0.68553317,-0.09004855,-0.6583392,9.98326301574707,-2.433166265487671,0.5614300966262817,-53.170562744140625,-30.08009910583496, 9.417448043823242
377,1921013793,0.29279932,-0.6909913,-0.08595882,-0.6552945,9.453454971313477,-2.6495442390441895,0.5596590638160706,-50.19331359863281,-36.1220703125, 7.748055458068848
378,1921030460,0.2886147,-0.6965556,-0.0827724,-0.6516599,8.916451454162598,-3.405691385269165,0.6322981119155884,-43.391719818115234,-40.91261291503906, 7.175867557525635
379,1921047127,0.2857699,-0.7017902,-0.08130776,-0.6474682,8.660613059997559,-4.160964488983154,0.5765584111213684,-28.293392181396484,-44.77272033691406, 5.845933437347412
380,1921063794,0.28390428,-0.70676076,-0.08071966,-0.64294,8.428519248962402,-4.19008731842041,1.004143476486206,-18.965259552001953,-46.4107551574707, 6.477451801300049
381,1921080461,0.2828726,-0.71170825,-0.08074943,-0.6379138,8.33063793182373,-4.5948076248168945,0.8414203524589539,-11.866064071655273,-49.489013671875, 8.109381675720215
382,1921097128,0.28234014,-0.7167722,-0.08119905,-0.6323991,8.237519264221191,-4.401734352111816,0.3211298882961273,-7.5439910888671875,-52.9463996887207, 9.245134353637695
383,1921113795,0.28253728,-0.7217602,-0.08250138,-0.6264411,8.371073722839355,-3.8475866317749023,-0.0012667402625083923,0.1490740031003952,-56.06163787841797, 9.020977973937988
384,1921130462,0.28346872,-0.7268577,-0.0843673,-0.6198433,8.509116172790527,-3.773545265197754,-0.21856962144374847,6.36492395401001,-60.39768981933594, 10.684319496154785
385,1921147129,0.28575754,-0.73169166,-0.08745496,-0.61263496,8.491819381713867,-3.9600372314453125,-0.4379613399505615,19.220149993896484,-63.929630279541016, 11.393755912780762
386,1921163796,0.28903824,-0.7362928,-0.09159567,-0.6049299,8.79502010345459,-3.380307912826538,-0.7374398112297058,29.3952693939209,-66.92821502685547, 11.102365493774414
387,1921180463,0.29178464,-0.7412206,-0.09561414,-0.5969187,9.523313522338867,-1.9152230024337769,-1.0338950157165527,25.725183486938477,-69.9387435913086, 10.310169219970703
388,1921197130,0.29332882,-0.7466914,-0.09879099,-0.5887705,10.432158470153809,-1.266187071800232,-1.4176987409591675,15.14336109161377,-71.97459411621094, 10.306859016418457
389,1921213797,0.2940491,-0.752582,-0.10112774,-0.5804557,10.787016868591309,-1.3307074308395386,-1.692996621131897,6.780564308166504,-73.39984130859375, 11.922018051147461
390,1921230464,0.29442626,-0.7585527,-0.10293657,-0.57211477,10.836543083190918,-1.8958534002304077,-1.553736686706543,2.7557430267333984,-73.03189086914062, 13.409131050109863
391,1921247131,0.29438508,-0.7645458,-0.10424145,-0.5638625,10.793858528137207,-2.3035717010498047,-1.2501165866851807,-1.5159035921096802,-71.94061279296875, 14.239811897277832
392,1921263798,0.293126,-0.77095824,-0.10469911,-0.5556426,10.802748680114746,-2.421703815460205,-1.1781840324401855,-12.075115203857422,-72.56578063964844, 14.215950012207031
393,1921280465,0.29044127,-0.77782845,-0.10429721,-0.5474935,11.013266563415527,-2.608185052871704,-1.1158100366592407,-23.89097785949707,-73.2454833984375, 13.521055221557617
394,1921297132,0.2867562,-0.78500384,-0.10338857,-0.5393058,11.377222061157227,-2.7471673488616943,-1.180416464805603,-31.732410430908203,-74.32022857666016, 12.76974868774414
395,1921313799,0.28204456,-0.7923787,-0.102051266,-0.5311992,11.888434410095215,-2.545928478240967,-1.025874137878418,-39.31605529785156,-74.52265930175781, 11.26662826538086
396,1921330466,0.2760211,-0.79998416,-0.09984257,-0.5233252,12.509166717529297,-2.4485552310943604,-0.5980849266052246,-50.2593879699707,-73.34800720214844, 10.9436616897583
397,1921347133,0.2680563,-0.80809784,-0.0966027,-0.51555,13.052253723144531,-1.8135433197021484,-0.2352931797504425,-65.68389892578125,-74.03421783447266, 9.803058624267578
398,1921363800,0.2578364,-0.817067,-0.09256288,-0.50730103,13.927136421203613,-1.006028652191162,0.706939697265625,-82.31558227539062,-79.7544937133789, 7.710990905761719
399,1921380467,0.24522218,-0.8270705,-0.08866342,-0.49795526,15.736666679382324,-0.19235950708389282,2.1635241508483887,-96.4182357788086,-91.34033203125, 1.1951438188552856
400,1921397134,0.23143815,-0.8378408,-0.08595344,-0.48689985,17.04994773864746,-0.0011772885918617249,4.169498443603516,-99.2533950805664,-106.46735382080078, -6.197175025939941
401,1921413801,0.21647008,-0.8490397,-0.08403596,-0.47456342,18.330232620239258,0.6975712776184082,7.073890686035156,-103.35487365722656,-117.3240737915039, -12.407980918884277
402,1921430468,0.19923344,-0.8606914,-0.081234165,-0.46142998,17.827451705932617,-0.5398198366165161,8.420270919799805,-119.70771026611328,-123.55706787109375, -13.172749519348145
403,1921447135,0.18365619,-0.8719615,-0.07862896,-0.44695777,14.312349319458008,-4.863930702209473,2.598062515258789,-108.00657653808594,-129.72589111328125, -7.438011169433594
404,1921463802,0.1693811,-0.88280016,-0.07867014,-0.43102804,12.937216758728027,-2.3140969276428223,-3.2387356758117676,-90.75074005126953,-139.83706665039062, -17.7170467376709
405,1921480469,0.15384722,-0.8937071,-0.07921383,-0.41393766,14.304632186889648,-4.680520057678223,-1.6818448305130005,-96.34953308105469,-148.3732147216797, -23.119319915771484
406,1921497136,0.14058895,-0.9025822,-0.08165994,-0.3986377,11.473211288452148,-4.062113285064697,3.2752838134765625,-75.78253173828125,-132.3978729248047, -31.35512351989746
407,1921513803,0.12842964,-0.9099051,-0.08353687,-0.38548708,9.064528465270996,-4.751126766204834,2.5156922340393066,-70.2442398071289,-113.69313049316406, -27.780139923095703
408,1921530470,0.11553707,-0.91600674,-0.084622584,-0.3747292,8.667906761169434,-3.415468454360962,-3.047366142272949,-77.24410247802734,-95.24991607666016, -27.617637634277344
409,1921547137,0.10646674,-0.9195726,-0.08355336,-0.36887658,12.33582592010498,-9.194626808166504,-0.3728810250759125,-59.569400787353516,-53.891639709472656, -9.590089797973633
410,1921563804,0.110730775,-0.91908324,-0.0861595,-0.36824068,6.591463565826416,-3.088651418685913,5.711134433746338,33.98114776611328,-5.698389053344727, -5.195353031158447
411,1921580471,0.11565722,-0.9165846,-0.087805055,-0.3725409,3.8838272094726562,-0.7136659622192383,5.389743804931641,34.31993103027344,31.659006118774414, -2.3991472721099854
412,1921597138,0.11954098,-0.9122696,-0.088201396,-0.38169998,3.917288303375244,-1.8936655521392822,3.2364962100982666,23.055150985717773,67.26792907714844, -2.1539382934570312
413,1921613805,0.12708478,-0.9052313,-0.08962642,-0.39544058,4.729860305786133,-3.072208881378174,2.247011184692383,48.162986755371094,104.51455688476562, -4.420778751373291
414,1921630472,0.13856938,-0.89496845,-0.09292621,-0.4137571,5.33832311630249,-2.1597981452941895,1.709120750427246,77.77310180664062,142.54635620117188, -11.363173484802246
415,1921647139,0.14972532,-0.88222003,-0.096522704,-0.43583658,5.869694709777832,-0.4136980175971985,1.153043508529663,76.55656433105469,172.27401733398438, -19.296321868896484
416,1921663806,0.15784699,-0.86762285,-0.0986129,-0.46107537,7.027749538421631,0.021045910194516182,0.41969406604766846,53.44639205932617,196.5090789794922, -23.721080780029297
417,1921680473,0.16264065,-0.8512797,-0.0988475,-0.48897848,7.835700988769531,0.4086975157260895,-0.09314371645450592,27.804325103759766,217.6925506591797, -27.26975440979004
418,1921697140,0.16441019,-0.8330931,-0.09708771,-0.51913327,8.96638298034668,-0.31669357419013977,-0.9736272096633911,3.9353065490722656,237.2460174560547, -29.529489517211914
419,1921713807,0.16486746,-0.8127398,-0.093937114,-0.55086195,10.403538703918457,-1.4237326383590698,-2.436976909637451,-7.14009428024292,254.7013702392578, -29.475948333740234
420,1921730474,0.16515237,-0.79066795,-0.0895265,-0.58271277,11.788233757019043,-1.8233221769332886,-3.682136297225952,-10.999003410339355,263.22894287109375, -24.347768783569336
421,1921747141,0.16549325,-0.76713485,-0.08394697,-0.6140595,12.511514663696289,-2.3351471424102783,-4.578639507293701,-13.408446311950684,267.7384033203125, -18.106637954711914
422,1921763808,0.16733125,-0.7422167,-0.07892985,-0.6441156,13.562295913696289,-2.11663818359375,-5.5047125816345215,-0.7978830337524414,267.0455627441406, -14.098503112792969
423,1921780475,0.16986693,-0.7167609,-0.074235834,-0.67222625,14.178726196289062,-1.4825096130371094,-5.670258522033691,5.87813663482666,259.56158447265625, -10.718968391418457
424,1921797142,0.17356482,-0.6908987,-0.07084479,-0.698223,14.140731811523438,-2.4738171100616455,-5.777551651000977,19.201353073120117,250.1552734375, -9.506793975830078
425,1921813809,0.18036543,-0.66432756,-0.07103684,-0.72186637,14.406991004943848,-3.253223180770874,-6.4366278648376465,53.157562255859375,239.68833923339844, -9.172603607177734
426,1921830476,0.19035776,-0.6376292,-0.075602576,-0.7426152,13.743062973022461,-3.7262027263641357,-7.224435329437256,91.0302963256836,223.31875610351562, -9.787545204162598
427,1921847143,0.20306113,-0.6113217,-0.0841006,-0.76024944,13.34377384185791,-3.389636516571045,-7.386751174926758,124.12967681884766,204.0263214111328, -8.911221504211426
428,1921863810,0.21656911,-0.58648986,-0.09425988,-0.7747532,12.851763725280762,-2.857731580734253,-7.332449436187744,135.96578979492188,181.39547729492188, -6.467983245849609
429,1921880477,0.22939762,-0.5643754,-0.10391637,-0.7861669,12.87796401977539,-2.9675450325012207,-8.44048023223877,128.52061462402344,154.86012268066406, -1.6997220516204834
430,1921897144,0.23996122,-0.54730093,-0.11057412,-0.7941372,12.224714279174805,-3.207853317260742,-11.426023483276367,98.03707885742188,117.46812438964844, 6.714649677276611
431,1921913811,0.24579585,-0.5389421,-0.110628076,-0.79805213,11.884572982788086,-2.593269109725952,-14.730831146240234,32.90816116333008,62.045501708984375, 19.046680450439453
432,1921930478,0.24750842,-0.5412388,-0.107244745,-0.7964288,9.376723289489746,-2.220292806625366,-17.0499210357666,-14.996013641357422,-14.11461353302002, 26.622093200683594
433,1921947145,0.24811696,-0.55194324,-0.10547102,-0.78909606,9.563834190368652,-4.350571155548096,-17.692663192749023,-20.36214256286621,-84.79676818847656, 30.499267578125
434,1921963812,0.25290176,-0.56337446,-0.110665,-0.7787191,13.77031135559082,-3.4947383403778076,0.7141034603118896,34.290931701660156,-108.99596405029297, 32.41046905517578
435,1921980479,0.26604247,-0.5676748,-0.123216964,-0.76927537,12.62505054473877,2.4610185623168945,11.835801124572754,117.75680541992188,-73.63204193115234, 41.57429885864258
436,1921997146,0.2735677,-0.57712346,-0.1283688,-0.7586901,19.01631736755371,3.5407297611236572,-3.127081871032715,48.220420837402344,-96.62903594970703, 47.22602462768555
437,1922013813,0.28463373,-0.58871275,-0.131263,-0.7450981,16.34833526611328,-4.975212574005127,-4.969689846038818,49.13176345825195,-112.30699157714844, 82.24626159667969
438,1922030480,0.295744,-0.5995943,-0.13444622,-0.7314003,10.946100234985352,4.399579048156738,3.405582904815674,52.30008316040039,-109.57981872558594, 80.83939361572266
439,1922047147,0.29886305,-0.6123332,-0.12882471,-0.72050905,6.910365104675293,-6.343316555023193,-0.4066285490989685,-31.306982040405273,-96.86373138427734, 73.00556945800781
440,1922063814,0.30585888,-0.6205134,-0.1284626,-0.710571,7.795332908630371,-5.455295562744141,0.07026013731956482,19.612529754638672,-77.64756774902344, 64.02894592285156
441,1922080481,0.31032407,-0.6283512,-0.12768807,-0.7018331,10.302191734313965,-4.175804138183594,1.7436879873275757,6.4691972732543945,-72.23432159423828, 50.56382369995117
442,1922097148,0.31445777,-0.63583916,-0.12843592,-0.69305795,11.076735496520996,-1.2209619283676147,1.1619962453842163,13.16344928741455,-74.26908874511719, 42.1439323425293
443,1922113815,0.3165284,-0.6438876,-0.1276974,-0.6847715,11.558135032653809,-0.5427201390266418,0.8796274662017822,-4.585193634033203,-73.42771911621094, 38.261104583740234
444,1922130482,0.31781432,-0.6512905,-0.12633455,-0.677388,11.20199966430664,-0.1776011735200882,0.30696016550064087,-10.389383316040039,-65.73438262939453, 34.81988525390625
445,1922147149,0.317923,-0.65821236,-0.12364438,-0.6711137,10.738456726074219,-1.6292301416397095,0.2534547746181488,-21.75461196899414,-56.662269592285156, 32.46531677246094
446,1922163816,0.31757283,-0.66422224,-0.12074349,-0.66586584,9.921529769897461,-2.8561785221099854,0.7249529957771301,-23.684673309326172,-47.748329162597656, 28.295412063598633
447,1922180483,0.3159368,-0.670035,-0.117050104,-0.6614654,9.872344017028809,-2.5752322673797607,0.7903554439544678,-33.459251403808594,-42.331153869628906, 24.01670265197754
448,1922197150,0.31387144,-0.6756055,-0.11341279,-0.6574035,10.317538261413574,-2.61160945892334,0.9486657381057739,-34.93210983276367,-40.15287399291992, 20.881563186645508
449,1922213817,0.31178486,-0.68100595,-0.11020163,-0.6533581,10.340754508972168,-2.4323058128356934,1.1430718898773193,-32.75658416748047,-40.262786865234375, 18.64481544494629
450,1922230484,0.30907506,-0.6866266,-0.10661642,-0.64934546,9.850686073303223,-2.869224786758423,0.6672953367233276,-37.854515075683594,-40.79131317138672, 17.7023983001709
451,1922247151,0.30606097,-0.6923937,-0.103332184,-0.6451669,9.549999237060547,-2.833987236022949,0.5918943285942078,-38.14306640625,-43.109214782714844, 15.387412071228027
452,1922263818,0.30291617,-0.69862765,-0.10092129,-0.6402938,9.655403137207031,-2.7444968223571777,0.1857975721359253,-35.384517669677734,-50.43587875366211, 12.44708251953125
453,1922280485,0.30027694,-0.7050492,-0.099816814,-0.6346465,9.601277351379395,-2.8486242294311523,0.21614733338356018,-27.063640594482422,-57.36602783203125, 10.144319534301758
454,1922297152,0.29806048,-0.71149427,-0.0997784,-0.6284744,9.298079490661621,-2.8563692569732666,0.04301935434341431,-20.056148529052734,-61.93948745727539, 7.922946929931641
455,1922313819,0.2959956,-0.7181856,-0.100251764,-0.62172806,8.818490028381348,-2.9967501163482666,-0.23777985572814941,-17.219377517700195,-66.7747573852539, 7.420873641967773
456,1922330486,0.29411575,-0.7249443,-0.101033874,-0.61460876,8.685567855834961,-3.1799240112304688,-0.4626402258872986,-14.87041187286377,-69.41988372802734, 7.491509437561035
457,1922347153,0.29263985,-0.731425,-0.102102496,-0.6074165,8.751447677612305,-3.2953994274139404,-0.8377983570098877,-11.039497375488281,-68.92034912109375, 7.721012592315674
458,1922363820,0.29162902,-0.73772824,-0.1036802,-0.5999668,8.53774356842041,-3.122514486312866,-1.1343122720718384,-6.040836811065674,-70.18360900878906, 7.492673397064209
459,1922380487,0.29064077,-0.7439316,-0.10536206,-0.59244645,8.538874626159668,-3.037123441696167,-1.284071922302246,-5.251362323760986,-70.33097839355469, 7.125124454498291
460,1922397154,0.28964216,-0.7499697,-0.10695465,-0.58499056,8.671595573425293,-2.848623275756836,-1.3982583284378052,-5.384867191314697,-69.1668930053711, 7.288557052612305
461,1922413821,0.28858095,-0.7557933,-0.10823127,-0.5777402,8.86927318572998,-2.7488560676574707,-1.4281083345413208,-6.707817077636719,-66.66987609863281, 8.099447250366211
462,1922430488,0.28734076,-0.7613949,-0.10900903,-0.57081556,9.337735176086426,-2.462462902069092,-1.356615662574768,-9.423487663269043,-63.24925994873047, 9.170961380004883
463,1922447155,0.2858016,-0.7669925,-0.10916176,-0.56402457,9.614143371582031,-2.3553342819213867,-1.406172752380371,-13.538437843322754,-61.53644561767578, 11.008796691894531
464,1922463822,0.28422096,-0.77256346,-0.10908728,-0.55719334,10.043111801147461,-2.258634090423584,-1.4369428157806396,-14.558647155761719,-61.24427032470703, 12.113310813903809
465,1922480489,0.28261292,-0.7782753,-0.1088619,-0.55006075,10.31665325164795,-2.1958603858947754,-1.360506534576416,-15.331549644470215,-63.12550354003906, 13.513717651367188
466,1922497156,0.28092417,-0.78417736,-0.108632274,-0.54253715,10.764935493469238,-2.3970797061920166,-1.3275343179702759,-15.861278533935547,-66.00712585449219, 14.14466667175293
467,1922513823,0.2792678,-0.79016197,-0.10857775,-0.5346631,11.230713844299316,-2.494638442993164,-1.2147507667541504,-14.934137344360352,-68.53864288330078, 14.07005786895752
468,1922530490,0.2772853,-0.79641855,-0.10848881,-0.52636576,11.48633861541748,-2.2657463550567627,-1.260802149772644,-17.041032791137695,-72.03839874267578, 14.084390640258789
469,1922547157,0.27460575,-0.8030588,-0.10840246,-0.51762646,11.804771423339844,-2.2813267707824707,-1.2012850046157837,-21.256258010864258,-76.39613342285156, 12.690245628356934
470,1922563824,0.2710653,-0.8099815,-0.10852688,-0.5086014,12.469091415405273,-2.325251579284668,-0.753470778465271,-25.582483291625977,-80.04719543457031, 9.226457595825195
471,1922580491,0.26628453,-0.8171163,-0.10852195,-0.49963638,13.52682113647461,-2.164626121520996,-0.19683973491191864,-33.38858413696289,-81.17289733886719, 5.671350479125977
472,1922597158,0.25932524,-0.82473445,-0.10770396,-0.49088037,14.727779388427734,-1.3813203573226929,1.054726481437683,-49.4683723449707,-81.84078216552734, 2.752333164215088
473,1922613825,0.25008774,-0.833089,-0.106325805,-0.4817822,16.78364372253418,-0.9974700808525085,3.0359904766082764,-65.34678649902344,-87.01690673828125, -0.578819990158081
474,1922630492,0.23791854,-0.84245795,-0.10415669,-0.4720287,18.138343811035156,0.3750256299972534,5.535762786865234,-86.03839874267578,-95.00304412841797, -3.858238935470581
475,1922647159,0.22218156,-0.8525278,-0.100588545,-0.46229178,18.535921096801758,2.2020819187164307,8.6585054397583,-112.41898345947266,-97.56681823730469, -6.8189544677734375
476,1922663826,0.20298804,-0.86319053,-0.095995344,-0.4521977,17.744773864746094,1.3434540033340454,8.382454872131348,-136.61163330078125,-102.52029418945312, -10.79805850982666
477,1922680493,0.18433993,-0.8735989,-0.09232937,-0.4408166,12.951720237731934,-1.1870458126068115,2.4971227645874023,-129.29603576660156,-110.44577026367188, -12.952337265014648
478,1922697160,0.1626209,-0.885403,-0.09004538,-0.4260377,12.48256778717041,-2.867530107498169,-5.812770843505859,-143.17257690429688,-138.8675994873047, -25.381959915161133
479,1922713827,0.14753209,-0.89503956,-0.09243592,-0.41060224,15.235307693481445,-4.299440860748291,-1.7309396266937256,-86.26656341552734,-137.6385955810547, -35.04878616333008
480,1922730494,0.13147098,-0.90377593,-0.09497007,-0.3960877,11.80947208404541,-5.658860683441162,2.224593162536621,-91.5246353149414,-130.25018310546875, -40.21017837524414
481,1922747161,0.12433135,-0.90924543,-0.09942183,-0.38461673,8.629493713378906,-6.569253444671631,0.6437647938728333,-29.921037673950195,-98.41004180908203, -32.74877166748047
482,1922763828,0.11729776,-0.9133194,-0.10351454,-0.37599686,10.210865020751953,-3.032978057861328,-2.9464111328125,-30.996334075927734,-76.54989624023438, -33.65384292602539
483,1922780495,0.11647896,-0.9140264,-0.106785685,-0.37361133,10.359538078308105,-4.939566612243652,4.312575340270996,4.176760196685791,-23.63152503967285, -19.862539291381836
484,1922797162,0.11632888,-0.9127538,-0.10859075,-0.37623963,5.536099433898926,-0.23923072218894958,5.018417835235596,2.4825851917266846,14.552268028259277, -14.41969108581543
485,1922813829,0.11401012,-0.9104757,-0.10747756,-0.38273287,5.08158540725708,-2.5590624809265137,2.488981008529663,-20.76222801208496,42.07862091064453, -5.558050632476807
486,1922830496,0.1170446,-0.90541625,-0.10722141,-0.39373314,5.0420050621032715,-3.954868793487549,1.6992560625076294,13.834919929504395,80.87316131591797, -2.4398341178894043
487,1922847163,0.12521082,-0.8970948,-0.108750835,-0.40953216,5.124068737030029,-3.0686848163604736,1.6826047897338867,49.67791748046875,121.91201782226562, -5.947530269622803
488,1922863830,0.1363032,-0.88587785,-0.11152387,-0.4291904,5.52821159362793,-1.7728379964828491,1.2537344694137573,70.82151794433594,154.9774932861328, -10.872657775878906
489,1922880497,0.14674823,-0.8725368,-0.113955386,-0.45183945,6.219432830810547,-0.5840594172477722,0.6302646398544312,65.55896759033203,179.27919006347656, -15.128662109375
490,1922897164,0.15456772,-0.85756946,-0.11477915,-0.47697943,7.022305011749268,-0.26179924607276917,0.20487360656261444,44.505271911621094,198.83303833007812, -17.420852661132812
491,1922913831,0.15959023,-0.84086543,-0.113718614,-0.50452393,7.930073261260986,-0.3273475468158722,-0.2835644483566284,21.782588958740234,218.4984893798828, -19.40358543395996
492,1922930498,0.16213733,-0.8221725,-0.110993244,-0.5342512,9.226946830749512,-0.451223760843277,-1.0675727128982544,2.172541618347168,237.91029357910156, -22.317291259765625
493,1922947165,0.16205236,-0.8019085,-0.10603602,-0.5651887,10.535316467285156,-0.6038559079170227,-2.1751046180725098,-20.0760498046875,251.00921630859375, -21.924577713012695
494,1922963832,0.16006902,-0.780304,-0.09873898,-0.5964515,11.085318565368652,-1.358027696609497,-3.2697739601135254,-38.378292083740234,259.2503662109375, -17.753646850585938
495,1922980499,0.15817982,-0.75721467,-0.09033003,-0.6272525,11.939006805419922,-2.057295322418213,-4.5557355880737305,-40.47651672363281,264.179931640625, -11.923759460449219
496,1922997166,0.15718624,-0.7332659,-0.081483096,-0.6564865,13.206977844238281,-1.9775755405426025,-5.243189811706543,-35.786014556884766,260.8063659667969, -4.635315418243408
497,1923013833,0.15727428,-0.7086048,-0.07267832,-0.68400437,13.376076698303223,-2.2807412147521973,-5.225744724273682,-28.400522232055664,255.99049377441406, 1.4699171781539917
498,1923030500,0.15920873,-0.6832597,-0.06478691,-0.7096559,13.7297945022583,-2.649083137512207,-5.415923118591309,-13.416082382202148,250.12103271484375, 7.362545967102051
499,1923047167,0.16580209,-0.6576281,-0.06058886,-0.7323688,13.746358871459961,-3.3053340911865234,-6.224329471588135,5.830989360809326,238.49932861328125, 12.9066801071167
500,1923063834,0.17099407,-0.6324675,-0.05622621,-0.7533821,13.225616455078125,-4.092309951782227,-6.849006652832031,43.622840881347656,222.68814086914062, 16.161876678466797
501,1923080501,0.18251485,-0.60721123,-0.059037104,-0.77103674,13.154651641845703,-3.267538070678711,-6.908047676086426,87.2867202758789,205.4872283935547, 17.112621307373047
502,1923097168,0.19506747,-0.58354574,-0.064503945,-0.7856605,12.734888076782227,-2.2432339191436768,-7.435970783233643,104.93496704101562,181.59776306152344, 15.941454887390137
503,1923113835,0.20715469,-0.56269944,-0.07104568,-0.79712546,12.268583297729492,-1.5828267335891724,-8.727254867553711,106.51683044433594,152.16380310058594, 14.608970642089844
504,1923130502,0.21710825,-0.5474373,-0.07671284,-0.8045444,11.487364768981934,-1.4533339738845825,-12.261829376220703,87.50196075439453,106.23827362060547, 14.793964385986328
505,1923147169,0.22348826,-0.54163474,-0.07869659,-0.8065307,10.548809051513672,-2.6659462451934814,-15.066947937011719,42.447059631347656,37.241519927978516, 21.994583129882812
506,1923163836,0.22924846,-0.5444554,-0.08099878,-0.8027783,10.541349411010742,-3.867276430130005,-13.968941688537598,31.792993545532227,-32.5822639465332, 30.844697952270508
507,1923180503,0.23776877,-0.55205244,-0.08782412,-0.7943495,9.4537992477417,-3.9901390075683594,-15.285526275634766,62.20383071899414,-81.87591552734375, 39.15272903442383
508,1923197170,0.24818972,-0.56215835,-0.096654974,-0.7829672,12.039873123168945,-2.5508742332458496,-4.6021318435668945,78.09534454345703,-108.75475311279297, 48.230064392089844
509,1923213837,0.26693568,-0.5642018,-0.11297068,-0.7730844,14.24632453918457,3.0953869819641113,15.522082328796387,163.35874938964844,-66.73617553710938, 56.173362731933594
510,1923230504,0.27738196,-0.5717117,-0.12327573,-0.76223886,18.58167266845703,14.327372550964355,1.8493609428405762,89.88440704345703,-95.0761489868164, 41.416446685791016
511,1923247171,0.28389636,-0.58822167,-0.119803555,-0.7476935,19.53119468688965,-13.501337051391602,-8.15265941619873,-11.842506408691406,-133.82899475097656, 89.81423950195312
512,1923263838,0.30523267,-0.59650767,-0.13390428,-0.7301243,11.067498207092285,6.649533271789551,3.1514182090759277,157.0750732421875,-125.76188659667969, 93.95404052734375
513,1923280505,0.30789262,-0.61281,-0.12857322,-0.71633464,6.282192707061768,-5.348927021026611,0.05392971634864807,-37.4075927734375,-126.93988800048828, 79.40576171875
514,1923297172,0.31638342,-0.6232236,-0.1312885,-0.70303434,7.251741886138916,-6.83390474319458,-0.6920955777168274,38.83821487426758,-107.76094818115234, 67.93159484863281
515,1923313839,0.32092273,-0.6339484,-0.13377178,-0.6908135,11.26388931274414,-2.509813070297241,-0.2908952832221985,19.14985466003418,-107.7038803100586, 47.69794845581055
516,1923330506,0.32499102,-0.6443141,-0.13785909,-0.6784064,13.315790176391602,-0.3267645537853241,0.20435979962348938,25.67792320251465,-110.78462219238281, 38.545196533203125
517,1923347173,0.32661936,-0.6549897,-0.14003557,-0.66685724,11.327521324157715,-0.39954084157943726,-0.22879275679588318,4.452330112457275,-106.48114013671875, 34.0318717956543
518,1923363840,0.32640085,-0.66517633,-0.13981105,-0.65685296,10.58096981048584,-0.7540371417999268,-0.7536791563034058,-15.264506340026855,-93.67334747314453, 32.459110260009766
519,1923380507,0.32525992,-0.67423826,-0.13865511,-0.6483699,9.999640464782715,-2.8610658645629883,-0.567251443862915,-22.627416610717773,-80.43997955322266, 28.07958221435547
520,1923397174,0.3240387,-0.6816581,-0.13792098,-0.6413417,10.018607139587402,-3.1464099884033203,-0.0005677640438079834,-18.832731246948242,-67.40342712402344, 20.948118209838867
521,1923413841,0.32236615,-0.6883362,-0.1370646,-0.63520616,10.070541381835938,-2.506547451019287,0.3918408155441284,-20.684093475341797,-60.120208740234375, 16.837181091308594
522,1923430508,0.32049426,-0.6945662,-0.13634378,-0.6295011,10.551178932189941,-2.156078815460205,0.28008517622947693,-20.453514099121094,-56.637229919433594, 13.954914093017578
523,1923447175,0.31825215,-0.700441,-0.13532327,-0.6243281,10.572846412658691,-1.8424875736236572,0.24070492386817932,-23.24178123474121,-52.265289306640625, 12.289844512939453
524,1923463842,0.31525856,-0.7064289,-0.13316403,-0.6195464,10.017728805541992,-2.359104633331299,0.3250054717063904,-32.36406326293945,-49.09644317626953, 13.812141418457031
525,1923480509,0.31236562,-0.7120644,-0.13112044,-0.61497945,9.55992603302002,-2.7743635177612305,-0.279013991355896,-30.8216552734375,-46.73295593261719, 12.90069580078125
526,1923497176,0.31008825,-0.71722513,-0.13002321,-0.61035025,9.331681251525879,-2.703300714492798,-0.46168631315231323,-22.734769821166992,-46.52674102783203, 10.579421043395996
527,1923513843,0.30835447,-0.72212684,-0.12975842,-0.6054858,9.565526962280273,-2.2181766033172607,-0.6924338340759277,-15.803348541259766,-47.905399322509766, 9.027427673339844
528,1923530510,0.30722,-0.7267591,-0.13009347,-0.6004274,9.292922973632812,-2.437298536300659,-0.6859262585639954,-9.58992862701416,-48.5001335144043, 8.722169876098633
529,1923547177,0.30640388,-0.7312956,-0.13060014,-0.5952036,9.258965492248535,-2.370631456375122,-0.7191417217254639,-6.945303916931152,-49.02488708496094, 9.446527481079102
530,1923563844,0.3055217,-0.7360486,-0.13094904,-0.589696,9.216822624206543,-2.4165725708007812,-0.8084032535552979,-8.128693580627441,-51.08284378051758, 10.765860557556152
531,1923580511,0.30482578,-0.74077207,-0.13141732,-0.5840099,9.259984016418457,-2.5982820987701416,-0.9243504405021667,-6.48344612121582,-51.966793060302734, 11.269655227661133
532,1923597178,0.3043408,-0.7454299,-0.1320464,-0.5781652,9.274726867675781,-2.3537344932556152,-1.0350191593170166,-4.486430644989014,-52.67503356933594, 11.572251319885254
533,1923613845,0.30386713,-0.7502155,-0.13263914,-0.57205635,9.221796035766602,-2.2581911087036133,-1.3036335706710815,-4.605420112609863,-54.46745681762695, 12.476731300354004
534,1923630512,0.30349654,-0.75508475,-0.13326813,-0.5656649,9.207783699035645,-2.490508556365967,-1.460836410522461,-3.850966215133667,-56.2506217956543, 13.367432594299316
535,1923647179,0.3033301,-0.7598912,-0.13396908,-0.5591141,9.419591903686523,-2.5079550743103027,-1.5191023349761963,-2.2371296882629395,-56.811988830566406, 14.06651782989502
536,1923663846,0.30303094,-0.7648158,-0.1343671,-0.55242616,9.564958572387695,-2.3518612384796143,-1.547767162322998,-4.217414379119873,-57.488338470458984, 15.537888526916504
537,1923680513,0.30236045,-0.7699256,-0.1342863,-0.54567415,9.841928482055664,-2.462921142578125,-1.527256727218628,-8.319189071655273,-57.88997268676758, 16.956579208374023
538,1923697180,0.30116916,-0.77527905,-0.13363135,-0.5388715,10.167771339416504,-2.4907679557800293,-1.519266963005066,-13.691972732543945,-58.37797546386719, 18.379425048828125
539,1923713847,0.29938748,-0.7808609,-0.13250482,-0.5320393,10.533342361450195,-2.6123390197753906,-1.4292106628417969,-19.035268783569336,-58.96829605102539, 18.985673904418945
540,1923730514,0.29698315,-0.7867907,-0.13090476,-0.5250003,10.882813453674316,-2.718308210372925,-1.3363796472549438,-24.642248153686523,-60.967308044433594, 20.002117156982422
541,1923747181,0.29386365,-0.79312736,-0.12902288,-0.51763535,11.180486679077148,-2.716881275177002,-1.1942925453186035,-30.071151733398438,-64.2939682006836, 19.98578643798828
542,1923763848,0.29031244,-0.7997566,-0.127273,-0.5098138,11.695944786071777,-2.7118682861328125,-0.9819244742393494,-32.14839172363281,-68.50355529785156, 18.923446655273438
543,1923780515,0.2861554,-0.8066672,-0.12570807,-0.50159806,12.537328720092773,-2.529238700866699,-0.5665110349655151,-35.05485153198242,-72.5934066772461, 16.82764434814453
544,1923797182,0.28060412,-0.8140803,-0.12377692,-0.4931672,13.721076011657715,-2.4620847702026367,0.3236674666404724,-44.861656188964844,-76.04729461669922, 14.92501163482666
545,1923813849,0.27258015,-0.82241595,-0.12078032,-0.4845043,15.467375755310059,-2.1430835723876953,1.9560997486114502,-63.909568786621094,-80.5825424194336, 13.758455276489258
546,1923830516,0.2625102,-0.8316681,-0.11766052,-0.47494513,17.317981719970703,-1.3682018518447876,3.67449688911438,-76.88175201416016,-90.25778198242188, 10.108255386352539
547,1923847183,0.24996203,-0.8417787,-0.114237145,-0.46462646,18.72393798828125,0.5167566537857056,5.781375408172607,-92.99700164794922,-98.97294616699219, 5.8533759117126465
548,1923863850,0.23418652,-0.85233754,-0.109835275,-0.4545481,19.29984474182129,2.3455519676208496,9.079645156860352,-115.78034210205078,-100.01010131835938, 1.1965702772140503
549,1923880517,0.21437816,-0.8633531,-0.10424324,-0.4447438,17.06260108947754,1.4182449579238892,8.089509010314941,-144.09584045410156,-101.144287109375, -4.473811149597168
550,1923897184,0.19353658,-0.87376475,-0.0993022,-0.43499193,12.134722709655762,1.2557156085968018,2.9519834518432617,-147.3974609375,-100.84754943847656, -11.981820106506348
551,1923913851,0.16624404,-0.8864804,-0.093502596,-0.42163125,11.711146354675293,-4.079261779785156,-7.620471477508545,-189.3285369873047,-132.78411865234375, -19.747516632080078
552,1923930518,0.14565986,-0.8962553,-0.09309888,-0.40846312,13.678629875183105,-2.9862310886383057,-1.1750025749206543,-129.5321807861328,-124.92349243164062, -35.3487548828125
553,1923947185,0.12465309,-0.9054328,-0.091924146,-0.3952255,11.813033103942871,-7.232092380523682,-0.2789469063282013,-133.66229248046875,-123.23771667480469, -32.13100814819336
554,1923963852,0.117073715,-0.9105943,-0.09432251,-0.38498738,8.042579650878906,-7.0370025634765625,-0.0828581303358078,-38.845481872558594,-88.27587890625, -23.053646087646484
555,1923980519,0.11248362,-0.9143109,-0.097221375,-0.37673774,9.348414421081543,-3.876342535018921,-2.672123908996582,-18.975629806518555,-70.49539947509766, -20.86081314086914
556,1923997186,0.11698345,-0.91455597,-0.09997389,-0.37404224,9.023943901062012,-3.956263780593872,4.8755669593811035,36.73939895629883,-20.419992446899414, -3.0251986980438232
557,1924013853,0.12112849,-0.91321987,-0.101368725,-0.37560865,5.128442287445068,-1.004487156867981,4.376748561859131,29.322303771972656,11.215475082397461, 0.07663986086845398
558,1924030520,0.12478396,-0.91042536,-0.10118261,-0.38120452,5.01777458190918,-2.7980358600616455,2.037498712539673,20.55708885192871,41.214744567871094, 4.372696876525879
559,1924047187,0.13221781,-0.90490556,-0.101748675,-0.3915507,5.155490398406982,-3.3158886432647705,1.666698694229126,45.191131591796875,80.05560302734375, 3.5874791145324707
560,1924063854,0.1417181,-0.89667684,-0.10300476,-0.40654254,5.4207377433776855,-2.5811569690704346,1.6005728244781494,59.092071533203125,117.0550308227539, -1.267149806022644
561,1924080521,0.15167904,-0.88604784,-0.10446019,-0.42544228,5.546555519104004,-1.6251592636108398,1.0051534175872803,62.04444885253906,147.97511291503906, -6.718950271606445
562,1924097188,0.15998131,-0.8734987,-0.10534938,-0.4475578,6.08839750289917,-0.8934546113014221,0.5167363286018372,49.965362548828125,172.5741424560547, -12.84967041015625
563,1924113855,0.16568135,-0.8593375,-0.10483091,-0.472334,6.900827407836914,-0.4069570004940033,0.11020250618457794,29.851669311523438,193.16876220703125, -16.497661590576172
564,1924130522,0.16897947,-0.8434238,-0.10285346,-0.49950355,7.933613300323486,-0.21143664419651031,-0.43748560547828674,11.191465377807617,212.92919921875, -19.66486930847168
565,1924147189,0.16958694,-0.8255954,-0.09915552,-0.5289621,9.153267860412598,-0.446942001581192,-1.091208577156067,-9.709077835083008,232.87510681152344, -22.946937561035156
566,1924163856,0.16784802,-0.80606115,-0.09311794,-0.55984056,10.390284538269043,-0.768498957157135,-1.9597575664520264,-30.516212463378906,248.27464294433594, -21.029340744018555
567,1924180523,0.16433983,-0.7851902,-0.08460708,-0.591025,11.411094665527344,-1.389702320098877,-3.1780447959899902,-48.49423599243164,256.85101318359375, -15.358729362487793
568,1924197190,0.16161095,-0.7630248,-0.07535392,-0.6212867,12.177488327026367,-2.34877610206604,-4.328939914703369,-45.29407501220703,258.44732666015625, -7.919180870056152
569,1924213857,0.16140796,-0.73953533,-0.06716093,-0.65001875,12.934974670410156,-2.1654744148254395,-4.947293281555176,-25.237546920776367,256.2525939941406, -1.7058974504470825
570,1924230524,0.16307193,-0.71503127,-0.05966689,-0.67718387,13.582045555114746,-1.7103646993637085,-5.466136455535889,-10.762163162231445,252.9686279296875, 4.336039066314697
571,1924247191,0.16683719,-0.689774,-0.053396303,-0.7025142,13.667936325073242,-2.1045072078704834,-5.790761470794678,6.892358779907227,247.02142333984375, 9.847228050231934
572,1924263858,0.17399727,-0.66368854,-0.050443232,-0.72573966,13.811136245727539,-2.8129332065582275,-6.129231929779053,40.749446868896484,238.57376098632812, 12.618575096130371
573,1924280525,0.18483087,-0.6367671,-0.052415513,-0.7467383,13.380640983581543,-2.542710304260254,-6.612473964691162,83.90606689453125,228.07107543945312, 10.849170684814453
574,1924297192,0.197924,-0.61013544,-0.05947133,-0.76486874,12.696988105773926,-1.8953125476837158,-7.15834379196167,120.58480834960938,208.4984588623047, 3.949165105819702
575,1924313859,0.21141472,-0.5850072,-0.069890305,-0.7798628,12.52762508392334,-1.2084966897964478,-7.438516616821289,139.20675659179688,183.1454620361328, -3.168971300125122
576,1924330526,0.22343455,-0.5629109,-0.08105998,-0.7916046,12.292320251464844,-0.6341958045959473,-8.005325317382812,134.4803924560547,152.13978576660156, -7.875067234039307
577,1924347193,0.23267387,-0.5459264,-0.08984797,-0.79984677,12.23327922821045,-2.573026657104492,-11.16011905670166,104.86756896972656,113.01850891113281, -5.546652793884277
578,1924363860,0.23907787,-0.5374953,-0.094594024,-0.80311424,11.055420875549316,-2.694779396057129,-14.001666069030762,61.4120979309082,52.19858169555664, 7.264754772186279
579,1924380527,0.24233279,-0.5391741,-0.09509154,-0.80095166,9.952352523803711,-3.42915415763855,-13.713098526000977,13.263702392578125,-18.552837371826172, 21.061717987060547
580,1924397194,0.24591565,-0.5466838,-0.096832946,-0.794535,10.270471572875977,-4.469413757324219,-12.47925090789795,14.436177253723145,-68.10267639160156, 29.133127212524414
581,1924413861,0.25188446,-0.5572124,-0.10348108,-0.78444916,9.987146377563477,-2.5867624282836914,-8.686467170715332,47.590545654296875,-104.92847442626953, 31.899173736572266
582,1924430528,0.26253477,-0.56351864,-0.11248546,-0.7751576,12.498713493347168,-2.1924736499786377,13.548186302185059,85.01168060302734,-79.74544525146484, 43.71488952636719
583,1924447195,0.27796263,-0.5660384,-0.12572466,-0.76585287,13.924236297607422,5.102264404296875,6.430684566497803,132.9315948486328,-63.69340515136719, 49.8423957824707
584,1924463862,0.28377396,-0.57798004,-0.12866236,-0.75422657,20.457042694091797,2.8485143184661865,-3.3763275146484375,25.23304557800293,-111.00701141357422, 51.94080352783203
585,1924480529,0.29721627,-0.5909618,-0.13200052,-0.7382429,15.476068496704102,-4.5693583488464355,-2.1296138763427734,59.47562026977539,-127.66231536865234, 99.39967346191406
586,1924497196,0.3083141,-0.60409796,-0.13553013,-0.7222463,7.689323902130127,2.208285093307495,2.284571647644043,50.65448760986328,-130.96768188476562, 86.84794616699219
587,1924513863,0.31511334,-0.61750066,-0.13488463,-0.7079568,6.886116027832031,-9.262236595153809,-2.0902113914489746,9.90542221069336,-120.38245391845703, 79.49856567382812
588,1924530530,0.32366845,-0.6267059,-0.14033069,-0.69482803,8.373108863830566,-3.1264922618865967,0.4444776177406311,55.05757522583008,-106.57259368896484, 55.67542266845703
589,1924547197,0.327132,-0.6375361,-0.14291684,-0.6827205,11.857705116271973,-1.9979134798049927,0.3489851653575897,14.863299369812012,-108.49561309814453, 42.946136474609375
590,1924563864,0.32899097,-0.64875793,-0.14521399,-0.6706648,12.29908275604248,-0.9842738509178162,-0.5617947578430176,5.538239002227783,-111.0388412475586, 36.952823638916016
591,1924580531,0.33100998,-0.6582799,-0.14789478,-0.6597176,11.07518196105957,-1.176953911781311,-0.3446442186832428,10.766833305358887,-98.96157836914062, 31.793437957763672
592,1924597198,0.33135375,-0.6669448,-0.14830276,-0.6506885,10.716416358947754,-0.7775821089744568,-0.24023744463920593,-7.12678861618042,-82.92890930175781, 29.25971031188965
593,1924613865,0.33026215,-0.6749612,-0.14672565,-0.64329296,10.236651420593262,-2.2050013542175293,-0.8671577572822571,-22.779640197753906,-69.48807525634766, 27.580852508544922
594,1924630532,0.32995594,-0.68123823,-0.14621575,-0.63691807,10.287297248840332,-2.843787670135498,-0.08324749022722244,-11.490918159484863,-58.693748474121094, 22.03701400756836
595,1924647199,0.32964972,-0.6864429,-0.14640477,-0.6314213,10.069994926452637,-2.497109889984131,0.04103519767522812,-6.880448818206787,-51.48598861694336, 15.693787574768066
596,1924663866,0.32753187,-0.6919729,-0.14508067,-0.626776,9.702055931091309,-1.9261494874954224,0.3596870005130768,-23.599891662597656,-47.29018783569336, 13.372897148132324
597,1924680533,0.324266,-0.69767976,-0.14242153,-0.62274444,9.955159187316895,-1.6816637516021729,-0.18749035894870758,-35.83152389526367,-43.29286193847656, 13.58489990234375
598,1924697200,0.3217067,-0.70270693,-0.14021727,-0.6189079,9.982295036315918,-2.138794183731079,0.035619258880615234,-29.171491622924805,-39.786502838134766, 13.345088005065918
599,1924713867,0.3199701,-0.7070949,-0.13892578,-0.6150901,9.467015266418457,-2.664090394973755,0.24772046506404877,-19.919288635253906,-38.22242736816406, 11.789909362792969
600,1924730534,0.31834912,-0.7114902,-0.1381137,-0.6110322,9.074180603027344,-2.871767520904541,0.3089289665222168,-17.12482452392578,-40.38776397705078, 10.485562324523926
601,1924747201,0.31675857,-0.716011,-0.13795117,-0.60659844,8.982025146484375,-3.120180368423462,-0.037883155047893524,-14.171361923217773,-44.17169952392578, 8.376819610595703
602,1924763868,0.31564334,-0.7204454,-0.13831796,-0.6018272,9.239692687988281,-2.3593695163726807,0.047254085540771484,-9.123061180114746,-46.194950103759766, 8.402359008789062
603,1924780535,0.31457558,-0.72517353,-0.13853906,-0.5966344,9.741215705871582,-1.9835554361343384,-0.3588223457336426,-9.73616886138916,-49.16032791137695, 10.519098281860352
604,1924797202,0.3140291,-0.7297632,-0.13901284,-0.5911911,9.79794692993164,-2.066133975982666,-0.6915798783302307,-5.565986156463623,-49.91291046142578, 11.817482948303223
605,1924813869,0.31365204,-0.7343826,-0.13951391,-0.585526,9.621623039245605,-2.243908166885376,-0.819538950920105,-4.4582414627075195,-51.06373977661133, 12.886457443237305
606,1924830536,0.31322604,-0.7390692,-0.13988583,-0.5797399,9.46983814239502,-2.491389513015747,-0.8586985468864441,-5.258494853973389,-51.729034423828125, 13.674124717712402
607,1924847203,0.3128145,-0.7437899,-0.1403439,-0.5737834,9.465539932250977,-2.6907176971435547,-1.0614739656448364,-4.7565717697143555,-52.92012023925781, 13.697810173034668
608,1924863870,0.31243137,-0.7484975,-0.14092328,-0.5676961,9.632250785827637,-2.656114339828491,-1.2000199556350708,-3.979078769683838,-53.78812789916992, 13.46021556854248
609,1924880537,0.31193206,-0.75321454,-0.1415005,-0.56155497,9.760669708251953,-2.5550990104675293,-1.2635564804077148,-4.559571743011475,-54.225887298583984, 13.145306587219238
610,1924897204,0.31106326,-0.75813854,-0.14155315,-0.5553633,9.865821838378906,-2.362664222717285,-1.4204515218734741,-8.89545726776123,-54.538455963134766, 14.750617980957031
611,1924913871,0.30980307,-0.76325023,-0.14090753,-0.5491961,10.037127494812012,-2.387127637863159,-1.3675278425216675,-14.029589653015137,-54.0322265625, 17.03616714477539
612,1924930538,0.3079461,-0.768646,-0.13948463,-0.54304415,10.34506607055664,-2.484492540359497,-1.3292856216430664,-20.718320846557617,-53.96685791015625, 19.113168716430664
613,1924947205,0.30544582,-0.7743607,-0.13751824,-0.53680295,10.701391220092773,-2.2661421298980713,-1.3029292821884155,-26.740238189697266,-55.1181755065918, 20.088619232177734
614,1924963872,0.3026234,-0.78038,-0.13534428,-0.5301963,11.050848960876465,-2.4774575233459473,-1.444681167602539,-29.519453048706055,-58.0810661315918, 21.07481575012207
615,1924980539,0.2997242,-0.786554,-0.13329083,-0.52319396,11.30636978149414,-2.6251819133758545,-1.2628693580627441,-29.4493408203125,-61.117122650146484, 21.129207611083984
616,1924997206,0.29642937,-0.7929731,-0.13128404,-0.5158373,11.670212745666504,-2.681028366088867,-1.0200228691101074,-31.606523513793945,-64.40380096435547, 20.421884536743164
617,1925013873,0.29209098,-0.7999024,-0.1288408,-0.5081726,12.319839477539062,-2.97882080078125,-0.7736049890518188,-39.61119079589844,-67.9840316772461, 20.202720642089844
618,1925030540,0.28574073,-0.8076483,-0.12539926,-0.5003315,13.03671932220459,-2.4536798000335693,-0.4181007146835327,-55.65689468383789,-71.6282730102539, 19.75404167175293
619,1925047207,0.27707574,-0.8163361,-0.12091202,-0.49214306,14.084702491760254,-2.0304300785064697,-0.11972478032112122,-73.67283630371094,-76.79340362548828, 19.11625862121582
620,1925063874,0.2668083,-0.8256093,-0.11654453,-0.483322,15.78266429901123,-2.0613484382629395,1.4268043041229248,-82.85930633544922,-83.95132446289062, 14.74140453338623
621,1925080541,0.25598407,-0.8352634,-0.11271494,-0.47339517,17.105167388916016,-1.766971230506897,3.5825552940368652,-84.05867004394531,-93.02188110351562, 12.201619148254395
622,1925097208,0.24403898,-0.8453183,-0.108845875,-0.4626385,19.006837844848633,-0.959488570690155,6.5310378074646,-90.71273040771484,-100.02022552490234, 10.588315963745117
623,1925113875,0.2294359,-0.85577,-0.10384273,-0.45192224,19.727645874023438,0.8423281311988831,10.039921760559082,-110.49711608886719,-101.30840301513672, 8.998065948486328
624,1925130542,0.20834632,-0.8673766,-0.09533136,-0.44177103,16.315711975097656,0.15337981283664703,8.273341178894043,-161.82957458496094,-100.89730072021484, 9.46654987335205
625,1925147209,0.18393463,-0.8785842,-0.0860999,-0.43225545,11.8680419921875,-0.05842776596546173,2.6902036666870117,-183.7055206298828,-97.23082733154297, 2.5065650939941406
626,1925163876,0.15301745,-0.89135915,-0.07647451,-0.4197815,10.841794967651367,-3.5475759506225586,-8.657612800598145,-224.42666625976562,-123.22814178466797, -9.807950019836426
627,1925180543,0.12620735,-0.90142417,-0.07167531,-0.4078837,12.29092025756836,-3.013212203979492,-1.1927073001861572,-182.7423553466797,-114.76560974121094, -29.63072395324707
628,1925197210,0.09819655,-0.9105124,-0.06562827,-0.39625472,10.40405559539795,-5.518676280975342,0.6003669500350952,-192.9799346923828,-109.9387435913086, -26.036977767944336
629,1925213877,0.08227748,-0.91618073,-0.062378954,-0.3872366,8.189491271972656,-6.4542155265808105,-0.4352703094482422,-108.54480743408203,-80.7662124633789, -13.987458229064941
630,1925230544,0.076185316,-0.91979,-0.061053794,-0.3800723,7.664891719818115,-7.538473129272461,-3.5125815868377686,-41.19858932495117,-60.51403045654297, -1.9418379068374634
631,1925247211,0.08893029,-0.9194382,-0.06390226,-0.3776789,8.244624137878418,-6.666134357452393,2.486297369003296,88.84330749511719,-14.274852752685547, 16.683317184448242
632,1925263878,0.10534805,-0.9165939,-0.06774006,-0.37969595,4.733002185821533,-1.5004968643188477,4.575908660888672,114.15208435058594,21.021751403808594, 16.16619300842285
633,1925280545,0.11913223,-0.91218185,-0.07020678,-0.38575006,4.006328582763672,-1.409379005432129,3.0997958183288574,93.2081069946289,50.271156311035156, 14.30713176727295
634,1925297212,0.13195258,-0.9057964,-0.07186347,-0.3961783,3.793590545654297,-2.148847818374634,2.0184075832366943,84.50300598144531,83.10982513427734, 12.31789779663086
635,1925313879,0.1460681,-0.8966415,-0.07503617,-0.4111786,3.9561076164245605,-1.3432834148406982,1.3571125268936157,96.93597412109375,118.37950134277344, 0.900648832321167
636,1925330546,0.15976825,-0.88501096,-0.07940914,-0.43002835,4.839951515197754,-0.933861255645752,1.1343797445297241,98.26378631591797,147.6847686767578, -12.79738998413086
637,1925347213,0.17123997,-0.8714387,-0.08352481,-0.45199046,5.983402252197266,-0.8378479480743408,0.8283122777938843,84.37686157226562,171.4195098876953, -22.280254364013672
638,1925363880,0.17969353,-0.85632706,-0.08634357,-0.47640237,6.734053134918213,-0.7728586792945862,0.3021978437900543,62.66828536987305,190.66087341308594, -27.641407012939453
639,1925380547,0.18501122,-0.8396705,-0.08780686,-0.5030054,7.449741840362549,-1.0443081855773926,-0.40989673137664795,40.37586975097656,208.42379760742188, -33.54773712158203
640,1925397214,0.1881301,-0.8212367,-0.08813253,-0.53142273,8.700714111328125,-1.6884437799453735,-1.2801742553710938,24.921649932861328,225.1622772216797, -37.96879959106445
641,1925413881,0.18948111,-0.8013,-0.08638645,-0.56085,10.316672325134277,-1.9299135208129883,-2.1721057891845703,8.709897994995117,237.96893310546875, -34.960506439208984
642,1925430548,0.18906108,-0.7803085,-0.08208042,-0.5904555,11.248945236206055,-2.114260196685791,-3.0487217903137207,-9.65577507019043,245.318603515625, -28.559253692626953
643,1925447215,0.18880995,-0.75813556,-0.076435864,-0.6194667,12.067112922668457,-2.5356509685516357,-3.436042070388794,-12.298213958740234,248.79188537597656, -20.609865188598633
644,1925463882,0.19098718,-0.7339216,-0.07173778,-0.64787114,13.441059112548828,-2.388695478439331,-3.5349369049072266,7.380293369293213,254.41824340820312, -15.508392333984375
645,1925480549,0.19428591,-0.7083699,-0.06721565,-0.67523885,14.224630355834961,-1.3939616680145264,-3.853456974029541,16.119478225708008,255.5254669189453, -10.711674690246582
646,1925497216,0.19777402,-0.6820172,-0.06233899,-0.70132154,14.929254531860352,-1.599705696105957,-4.133448600769043,17.061079025268555,253.62591552734375, -6.754761695861816
647,1925513883,0.20239754,-0.65494823,-0.058880642,-0.7256797,14.987055778503418,-2.0740840435028076,-4.434670448303223,30.959257125854492,247.6422882080078, -5.886566638946533
648,1925530550,0.20823336,-0.6277717,-0.057909414,-0.74778885,14.964789390563965,-3.0472655296325684,-4.8465399742126465,49.93193054199219,235.18458557128906, -7.942594051361084
649,1925547217,0.21579075,-0.60122633,-0.060090743,-0.7670402,14.754644393920898,-3.983248472213745,-5.773552417755127,73.82566833496094,215.90191650390625, -8.359484672546387
650,1925563884,0.22558503,-0.57675934,-0.06480409,-0.78247076,13.809164047241211,-5.048616886138916,-7.811036586761475,94.9599609375,186.45591735839844, -0.5089259743690491
651,1925580551,0.23720443,-0.5568777,-0.07047355,-0.79287755,13.244884490966797,-4.809646129608154,-12.376026153564453,102.50279235839844,141.3669891357422, 15.327844619750977
652,1925597218,0.24591218,-0.5473969,-0.07158757,-0.7967178,11.308311462402344,-0.6238082647323608,-15.454543113708496,52.79975509643555,65.77334594726562, 32.62257385253906
653,1925613885,0.2501254,-0.54918545,-0.06886433,-0.794412,10.120854377746582,-1.7399436235427856,-14.754524230957031,-1.1241225004196167,-14.545757293701172, 38.39826965332031
654,1925630552,0.25547248,-0.5555454,-0.07133056,-0.78804535,8.945602416992188,-1.8317387104034424,-15.160439491271973,25.615341186523438,-62.990970611572266, 34.145687103271484
655,1925647219,0.2604417,-0.56737113,-0.07478831,-0.77760345,8.681711196899414,-4.044363021850586,-13.5631103515625,22.004730224609375,-109.8707504272461, 38.147212982177734
656,1925663886,0.27082542,-0.57507145,-0.08126033,-0.767687,13.55859375,-4.1948137283325195,9.72435474395752,66.42494201660156,-88.17662811279297, 52.23151397705078
657,1925680553,0.29042053,-0.57693994,-0.09748819,-0.75716084,16.713716506958008,5.407156467437744,4.768572807312012,165.54904174804688,-72.92491912841797, 60.11444091796875
658,1925697220,0.30073503,-0.5891801,-0.10114853,-0.74309784,22.88990020751953,-0.046651773154735565,-9.14920711517334,44.93142318725586,-122.08847045898438, 75.75509643554688
659,1925713887,0.31060714,-0.60236806,-0.105708696,-0.7276688,13.964971542358398,10.00959587097168,4.665262699127197,46.787723541259766,-134.44577026367188, 73.38085174560547
660,1925730554,0.30907536,-0.61925673,-0.09544109,-0.71546113,8.158382415771484,-4.840879440307617,-3.316987991333008,-84.90618133544922,-116.28763580322266, 73.71265411376953
661,1925747221,0.31150752,-0.629719,-0.091281824,-0.705751,8.075990676879883,-6.333910942077637,-0.1603018045425415,-25.912384033203125,-84.37623596191406, 57.64005661010742
662,1925763888,0.3125288,-0.63779634,-0.088115506,-0.6984105,9.690849304199219,-5.62686824798584,0.7156057953834534,-23.559162139892578,-65.55903625488281, 39.862789154052734
663,1925780555,0.31393486,-0.6444417,-0.08630914,-0.6918746,11.357806205749512,-1.8358149528503418,0.5180384516716003,-12.74365234375,-57.85836410522461, 33.108211517333984
664,1925797222,0.31480938,-0.6507686,-0.08471189,-0.68572533,11.286539077758789,-1.540715217590332,1.3449358940124512,-13.642722129821777,-55.408119201660156, 28.646438598632812
665,1925813889,0.3136975,-0.6577732,-0.081490055,-0.6799176,10.802016258239746,-1.2974761724472046,1.8707044124603271,-31.856409072875977,-54.7419548034668, 26.229185104370117
666,1925830556,0.31164283,-0.6650541,-0.07710084,-0.6742682,9.700810432434082,-3.0913379192352295,1.0844632387161255,-42.26586151123047,-53.36320877075195, 26.94287109375
667,1925847223,0.31116092,-0.67080396,-0.07540523,-0.6689658,9.61491870880127,-4.381892681121826,0.8458347320556641,-19.497547149658203,-49.64021301269531, 20.36023712158203
668,1925863890,0.31047967,-0.6759647,-0.074392684,-0.66418374,9.216535568237305,-3.8556723594665527,1.1075280904769897,-16.284809112548828,-46.119140625, 14.85521411895752
669,1925880557,0.30898017,-0.6810198,-0.07293036,-0.6598671,8.99785327911377,-3.9834654331207275,1.0054521560668945,-22.15700912475586,-42.95814895629883, 12.148598670959473
670,1925897224,0.30728522,-0.6856645,-0.07159093,-0.65598387,9.445771217346191,-3.329763174057007,0.8301461338996887,-21.87028694152832,-39.45263671875, 9.546123504638672
671,1925913891,0.30521676,-0.69027627,-0.07016347,-0.65225667,9.63350772857666,-2.6161820888519287,0.5824121236801147,-24.041975021362305,-38.59108352661133, 7.92909049987793
672,1925930558,0.30323043,-0.6946959,-0.069035836,-0.648601,9.656929016113281,-2.6332154273986816,0.499575138092041,-21.943880081176758,-38.00246810913086, 6.640194416046143
673,1925947225,0.30144134,-0.6989278,-0.06833386,-0.6449525,9.535710334777832,-2.5504202842712402,0.4765952229499817,-18.72176170349121,-37.94828796386719, 5.390873908996582
674,1925963892,0.29963997,-0.7031991,-0.06784395,-0.64118975,9.259812355041504,-2.7132928371429443,0.3920040428638458,-17.875131607055664,-39.139060974121094, 4.580611705780029
675,1925980559,0.29795933,-0.7074658,-0.06787463,-0.63726413,9.29957103729248,-2.8744053840637207,0.4383002817630768,-14.91787052154541,-40.94577407836914, 2.933781623840332
676,1925997226,0.29607397,-0.7120251,-0.06781068,-0.6330578,9.276275634765625,-2.88586688041687,0.3736328184604645,-16.805864334106445,-43.51883316040039, 3.2097506523132324
677,1926013893,0.29412475,-0.7167957,-0.0678398,-0.62856394,9.238868713378906,-2.863839626312256,0.08455603569746017,-17.016860961914062,-46.09126281738281, 3.161306381225586
678,1926030560,0.29254165,-0.7215979,-0.068177424,-0.6237529,9.07373046875,-3.107764959335327,-0.049499690532684326,-13.802627563476562,-48.26533508300781, 3.8807876110076904
679,1926047227,0.29166704,-0.72632426,-0.06910713,-0.6185531,9.0308837890625,-3.2005198001861572,-0.16159580647945404,-7.419825077056885,-50.75090026855469, 4.725056171417236
680,1926063894,0.29146206,-0.7309679,-0.07043387,-0.613005,9.195260047912598,-3.288268804550171,-0.046703040599823,-2.0607285499572754,-52.63597869873047, 6.243176460266113
681,1926080561,0.2917591,-0.73562944,-0.07184018,-0.60709566,8.97133731842041,-3.5215771198272705,-0.3040141761302948,0.9255954623222351,-54.46673583984375, 8.68680191040039
