PacketCounter,SampleTimeFine,Quat_W,Quat_X,Quat_Y,Quat_Z,Acc_X,Acc_Y,Acc_Z,Gyr_X,Gyr_Y,Gyr_Z 
1,141085040,-0.011028831,-0.7409847,-0.073122054,-0.6674379,-0.8186815977096558,-0.7368120551109314,0.7054842710494995,-0.48517242074012756,2.925595283508301, -0.7440255880355835
2,141101707,-0.011058251,-0.7409239,-0.07272897,-0.6675479,9.680240631103516,1.0787843465805054,-1.0822649002075195,-1.188109278678894,-0.1679937243461609, -3.7419135570526123
3,141118374,-0.011184287,-0.74095166,-0.07268995,-0.66751915,9.67280387878418,1.1147007942199707,-1.0699853897094727,-0.7139539122581482,0.14975105226039886, -4.064197540283203
4,141135041,-0.011860054,-0.7409667,-0.07256451,-0.66750443,9.716423988342285,1.1288723945617676,-1.0002930164337158,-0.14194558560848236,0.3732987344264984, -4.257586479187012
5,141151708,-0.0125740925,-0.7407717,-0.07256647,-0.66770744,9.733205795288086,1.12761652469635,-1.0137598514556885,0.16066205501556396,0.6056826710700989, -4.23219108581543
6,141168375,-0.012932429,-0.7405438,-0.072962284,-0.66791034,9.72969913482666,1.1527068614959717,-1.0076406002044678,0.3464565873146057,0.358661025762558, -4.116652011871338
7,141185042,-0.013589726,-0.740322,-0.07305445,-0.668133,9.721577644348145,1.178420901298523,-1.0021687746047974,0.5597463846206665,0.668907642364502, -4.018017768859863
8,141201709,-0.014199383,-0.74007696,-0.07328702,-0.6683664,9.705965995788574,1.2473385334014893,-0.9965433478355408,0.4824216067790985,0.8816210627555847, -4.152586936950684
9,141218376,-0.014856466,-0.7397716,-0.07354039,-0.6686623,9.684146881103516,1.2304258346557617,-0.9859543442726135,0.5079702734947205,1.6272709369659424, -3.951681137084961
10,141235043,-0.015560619,-0.73945373,-0.07384072,-0.6689646,9.67169189453125,1.243309736251831,-0.9692878723144531,0.4655301570892334,1.822824239730835, -4.320287227630615
11,141251710,-0.016234001,-0.73910993,-0.07423167,-0.6692852,9.746854782104492,1.2772347927093506,-0.9102442860603333,1.2389696836471558,2.160719633102417, -4.650626182556152
12,141268377,-0.017106293,-0.7387748,-0.074465744,-0.66960734,9.738884925842285,1.1828324794769287,-0.8078835606575012,1.3018742799758911,2.064300537109375, -4.91959810256958
13,141285044,-0.017976193,-0.7385339,-0.07476368,-0.66981715,9.812835693359375,1.0612359046936035,-0.8087930083274841,0.7753925919532776,0.5595799684524536, -5.490940570831299
14,141301711,-0.01864694,-0.7376061,-0.07526959,-0.67076385,10.192217826843262,1.117856740951538,-0.625277578830719,1.3888683319091797,7.2771525382995605, -6.499300956726074
15,141318378,-0.019839872,-0.7356181,-0.07526764,-0.67290956,9.981500625610352,1.2273133993148804,-0.6144416332244873,-3.790748119354248,17.34941864013672, -7.242806911468506
16,141335045,-0.021889204,-0.7338349,-0.07416653,-0.6749123,9.458151817321777,1.2398362159729004,-0.6137426495552063,-12.939324378967285,14.846506118774414, -5.5988545417785645
17,141351712,-0.024131276,-0.73272526,-0.072711654,-0.67619866,9.79443073272705,1.3725205659866333,-0.6976410746574402,-14.480025291442871,8.110556602478027, -4.411189556121826
18,141368379,-0.02626827,-0.73186564,-0.07149051,-0.67717934,9.790926933288574,1.4854741096496582,-0.6830540895462036,-12.563203811645508,5.777454376220703, -4.820236682891846
19,141385046,-0.028296964,-0.7315634,-0.0705266,-0.6775251,9.759086608886719,1.2830249071121216,-0.5684375166893005,-9.907559394836426,0.4010886549949646, -5.179965496063232
20,141401713,-0.030025143,-0.73174536,-0.070160024,-0.6772924,9.739238739013672,1.213044285774231,-0.6146877408027649,-5.1688103675842285,-4.414784908294678, -6.7424163818359375
21,141418380,-0.03137824,-0.7322357,-0.070580564,-0.67665696,9.839510917663574,1.2730629444122314,-0.6473554968833923,-0.11838196218013763,-7.49326753616333, -8.99378776550293
22,141435047,-0.032470483,-0.73290163,-0.07163207,-0.67577356,9.942869186401367,1.259304404258728,-0.4308726191520691,3.897186040878296,-9.20396900177002, -10.990544319152832
23,141451714,-0.034247108,-0.7331761,-0.07228131,-0.6753189,10.408028602600098,1.2988133430480957,-0.019971095025539398,-2.028104305267334,-5.823678016662598, -12.341729164123535
24,141468381,-0.036403473,-0.7316095,-0.07310944,-0.6768141,11.097981452941895,1.5237691402435303,0.41270339488983154,-4.6839680671691895,11.854414939880371, -15.588860511779785
25,141485048,-0.03996225,-0.72914976,-0.072526775,-0.6793258,10.248411178588867,1.2409567832946777,0.02405349537730217,-18.46334457397461,19.34547996520996, -15.285116195678711
26,141501715,-0.043379758,-0.7285846,-0.07261133,-0.6797135,10.173529624938965,1.1885759830474854,-0.24782249331474304,-13.065816879272461,-0.09101487696170807, -17.795747756958008
27,141518382,-0.046571422,-0.7296679,-0.07338725,-0.6782552,10.871957778930664,1.0551732778549194,0.3086492717266083,-6.85809850692749,-16.535614013671875, -20.192153930664062
28,141535049,-0.049007647,-0.73191845,-0.075810924,-0.6753861,11.16810417175293,1.380388617515564,0.7378602623939514,4.833429336547852,-28.60894203186035, -25.12317657470703
29,141551716,-0.051453397,-0.7353363,-0.07948495,-0.67105526,11.611642837524414,1.917965054512024,0.8853365182876587,11.504039764404297,-41.57984161376953, -31.505279541015625
30,141568383,-0.054562185,-0.73971695,-0.083888106,-0.6654358,11.641311645507812,1.4205161333084106,0.5532391667366028,10.012804985046387,-53.752593994140625, -37.84809875488281
31,141585050,-0.058148608,-0.7451179,-0.08881874,-0.6584294,11.855363845825195,0.9514151811599731,0.2921863794326782,11.260970115661621,-65.94955444335938, -42.90227508544922
32,141601717,-0.062481396,-0.7509733,-0.09282847,-0.65078276,11.155078887939453,-0.5497972369194031,-0.19363147020339966,3.8640084266662598,-72.3984375, -42.07870101928711
33,141618384,-0.067370266,-0.75688136,-0.09590536,-0.64295727,10.7539644241333,-0.22013399004936218,-1.2694625854492188,-3.2014894485473633,-74.36863708496094, -40.94261932373047
34,141635051,-0.073693365,-0.7623355,-0.09646833,-0.63569486,10.7989501953125,-0.19648897647857666,-1.396625280380249,-22.605491638183594,-71.1553726196289, -35.08504104614258
35,141651718,-0.0786918,-0.76684254,-0.09524345,-0.62983245,9.93520736694336,-1.1757285594940186,1.2888628244400024,-25.13831901550293,-59.38413619995117, -20.600996017456055
36,141668385,-0.082353026,-0.7702058,-0.0923122,-0.6256834,8.751236915588379,-1.7732360363006592,2.766225576400757,-27.27516746520996,-46.1823616027832, -6.60640287399292
37,141685052,-0.08404523,-0.7719303,-0.08766416,-0.6239995,8.586886405944824,-2.529161214828491,3.4912898540496826,-26.699451446533203,-26.900279998779297, 10.360400199890137
38,141701719,-0.08083027,-0.7717258,-0.08306945,-0.62530416,8.326664924621582,-2.204200267791748,3.994774103164673,-3.3243348598480225,-0.9812514781951904, 30.664875030517578
39,141718386,-0.07477209,-0.76902044,-0.07792454,-0.6300353,8.312752723693848,-1.7953057289123535,4.617768287658691,6.128367900848389,28.0483341217041, 45.591331481933594
40,141735053,-0.06747011,-0.7637807,-0.07187309,-0.63790387,8.48338508605957,-1.113595962524414,4.610272407531738,5.941525936126709,54.57179641723633, 55.6190071105957
41,141751720,-0.06002785,-0.7561225,-0.064611875,-0.64846045,8.925864219665527,-0.1899721324443817,4.1284871101379395,-0.9052998423576355,77.75460815429688, 62.52580642700195
42,141768387,-0.05135907,-0.7465139,-0.057413653,-0.66089576,9.485136032104492,0.3577829897403717,3.5330426692962646,-3.4572672843933105,94.74618530273438, 68.86127471923828
43,141785054,-0.042384405,-0.7357251,-0.049596384,-0.67413086,10.018001556396484,0.7041478157043457,2.8415443897247314,-0.812263548374176,104.50044250488281, 72.88667297363281
44,141801721,-0.03326541,-0.724156,-0.04119085,-0.68760073,10.530366897583008,1.004531741142273,2.07792592048645,3.8063061237335205,109.93787384033203, 76.20731353759766
45,141818388,-0.023753215,-0.71205014,-0.0326953,-0.70096475,10.824389457702637,1.2548151016235352,1.3420732021331787,9.839461326599121,112.53270721435547, 78.86344146728516
46,141835055,-0.013674371,-0.6995593,-0.02452508,-0.71402264,11.069245338439941,1.4377714395523071,0.502840518951416,13.368297576904297,113.22209930419922, 80.790283203125
47,141851722,-0.003270489,-0.6868726,-0.016652128,-0.7265797,11.547076225280762,1.6842329502105713,-0.1970931887626648,8.83542537689209,112.0157699584961, 81.54037475585938
48,141868389,0.0069427383,-0.67463315,-0.008836992,-0.7380677,11.44213581085205,2.350323438644409,-1.1108273267745972,8.223787307739258,105.56777954101562, 81.0683364868164
49,141885056,0.01619007,-0.66273165,-0.00008951294,-0.748682,11.747387886047363,2.645805835723877,-1.9055757522583008,-1.11054265499115,100.85751342773438, 81.39643859863281
50,141901723,0.025294542,-0.6514572,0.008257548,-0.7582188,11.060004234313965,3.246530055999756,-2.8778233528137207,0.07186667621135712,93.90653991699219, 79.82482147216797
51,141918390,0.03547228,-0.6420289,0.014599212,-0.7657205,10.342178344726562,3.851710796356201,-3.6279146671295166,14.727740287780762,76.11663818359375, 77.65422058105469
52,141935057,0.04589662,-0.6354401,0.01917012,-0.77054656,10.292662620544434,3.065037250518799,-6.596514701843262,24.012250900268555,50.31251907348633, 72.55045318603516
53,141951724,0.05456725,-0.63409185,0.019885363,-0.7710738,9.931227684020996,3.1070165634155273,-14.149487495422363,34.49745178222656,4.655287742614746, 47.92314147949219
54,141968391,0.06585668,-0.63055956,0.010915199,-0.7732647,11.885735511779785,4.0782904624938965,-12.624353408813477,98.44651794433594,22.55440902709961, 20.03675079345703
55,141985058,0.07227818,-0.6331811,0.00003284294,-0.77062166,8.032018661499023,6.645007610321045,-11.469657897949219,84.43509674072266,-28.98695182800293, -11.548468589782715
56,142001725,0.07716874,-0.630772,-0.007984075,-0.7720804,14.473748207092285,-1.2729411125183105,5.44478702545166,65.03119659423828,19.063749313354492, -8.113199234008789
57,142018392,0.09036128,-0.63227075,-0.024013571,-0.76908517,3.370539665222168,-2.7228150367736816,4.563681602478027,141.70960998535156,-25.36121940612793, 3.591022253036499
58,142035059,0.09341018,-0.63675755,-0.03954803,-0.76436275,10.779765129089355,1.0311850309371948,0.042396411299705505,93.4420166015625,-50.79011535644531, -46.89087677001953
59,142051726,0.09988294,-0.6404473,-0.051649638,-0.75972575,11.781890869140625,2.339087724685669,-0.2635757029056549,90.83578491210938,-42.8837890625, -13.996756553649902
60,142068393,0.10340421,-0.64544713,-0.057751153,-0.75456643,10.351119041442871,3.229311943054199,1.3976157903671265,45.7361946105957,-48.7103271484375, -1.8403270244598389
61,142085060,0.10331504,-0.6512822,-0.060867824,-0.7493014,10.114465713500977,0.9529640078544617,1.2964837551116943,13.620868682861328,-52.91206359863281, -6.465775966644287
62,142101727,0.10449618,-0.65644926,-0.06517786,-0.74424934,10.579424858093262,-0.29407989978790283,0.675345778465271,25.84740447998047,-48.93323516845703, -5.593361854553223
63,142118394,0.10820478,-0.6600604,-0.07214342,-0.7398699,10.974533081054688,0.14188650250434875,0.5055163502693176,51.68662643432617,-38.72029495239258, -5.922192096710205
64,142135061,0.11273291,-0.66290075,-0.07985364,-0.7358516,10.337571144104004,1.2936071157455444,1.0093023777008057,59.602500915527344,-33.29539489746094, -5.833465099334717
65,142151728,0.11661336,-0.6657984,-0.08623768,-0.7318996,10.181788444519043,1.1373919248580933,1.0067481994628906,49.8577880859375,-32.69044876098633, -2.9873108863830566
66,142168395,0.11951301,-0.6689122,-0.09067505,-0.72804624,10.393969535827637,1.2190966606140137,0.9226168990135193,35.34635543823242,-32.4405632019043, 1.1160248517990112
67,142185062,0.1211863,-0.67217,-0.0931014,-0.724454,9.99202823638916,0.8248571157455444,0.8278528451919556,19.368741989135742,-31.169435501098633, 4.197281837463379
68,142201729,0.12093705,-0.67551917,-0.09362446,-0.7213062,9.8003511428833,0.3794881999492645,0.8148529529571533,0.6583700180053711,-29.32036590576172, 3.15972638130188
69,142218396,0.11955995,-0.67810947,-0.09263165,-0.71923035,9.756338119506836,0.6474419236183167,0.2755274176597595,-12.140621185302734,-20.16331672668457, 3.2365612983703613
70,142235063,0.11741716,-0.6799087,-0.08938075,-0.7182955,9.61274528503418,0.5825108885765076,0.38424432277679443,-26.94253158569336,-9.630379676818848, 8.588855743408203
71,142251730,0.11424006,-0.68102807,-0.08447288,-0.7183416,9.658717155456543,1.0847489833831787,0.4117375314235687,-40.00731658935547,-1.0757527351379395, 10.069828033447266
72,142268397,0.1098673,-0.6806868,-0.07796528,-0.7200807,9.714241027832031,2.12685227394104,-0.08280390501022339,-53.34614944458008,14.525917053222656, 9.596556663513184
73,142285064,0.10478759,-0.68018997,-0.06973866,-0.722148,9.473540306091309,0.5254834890365601,0.4871494174003601,-65.23711395263672,17.69837188720703, 14.05309772491455
74,142301731,0.101860255,-0.6805938,-0.06327383,-0.7227816,9.065129280090332,-2.6645359992980957,0.29706162214279175,-46.38628005981445,6.177228927612305, 18.019439697265625
75,142318398,0.10016671,-0.6813165,-0.059850387,-0.72262895,9.485457420349121,-2.7977895736694336,0.17171701788902283,-25.358854293823242,-0.7406059503555298, 10.307607650756836
76,142335065,0.098919,-0.6818917,-0.058363646,-0.7223798,9.298852920532227,-1.001347541809082,0.15719997882843018,-13.487744331359863,-1.636870265007019, 3.153597593307495
77,142351732,0.09820078,-0.68228334,-0.05782364,-0.72215134,9.781228065490723,-0.8794764876365662,0.7572192549705505,-6.180780410766602,-1.0829306840896606, 1.1516942977905273
78,142368399,0.09932492,-0.68287194,-0.059447862,-0.72130895,10.243961334228516,-0.9950002431869507,0.9639133810997009,13.32119369506836,-5.742026329040527, 0.54573655128479
79,142385066,0.099845365,-0.6837916,-0.061347656,-0.7202059,10.758940696716309,0.21830391883850098,1.111328363418579,11.737022399902344,-9.126440048217773, -3.5319814682006836
80,142401733,0.09969891,-0.684562,-0.062081452,-0.719431,10.28825569152832,0.44743844866752625,0.7563092112541199,2.788999080657959,-6.42363977432251, -1.6147911548614502
81,142418400,0.09944118,-0.6851269,-0.062251132,-0.71891415,9.600931167602539,0.25441843271255493,0.37296590209007263,-0.49704018235206604,-3.919307231903076, 0.2734220325946808
82,142435067,0.098916195,-0.6853695,-0.061826542,-0.71879184,9.583270072937012,0.3040972054004669,0.4388881027698517,-4.642634391784668,-0.2096911519765854, 1.3707853555679321
83,142451734,0.0986801,-0.68560904,-0.0609161,-0.71867365,10.384140968322754,-0.5353441834449768,0.9406675100326538,-5.683279514312744,0.2385375052690506, 5.115555286407471
84,142468401,0.098770335,-0.6863892,-0.060667064,-0.71793735,10.285922050476074,-0.3936505913734436,0.8914791941642761,-0.9838991165161133,-5.7378339767456055, 4.210824012756348
85,142485068,0.09844808,-0.68746,-0.06017617,-0.7169979,10.199324607849121,-0.1632607877254486,0.5843988656997681,-4.233063697814941,-8.211382865905762, 3.5456759929656982
86,142501735,0.098903425,-0.68852574,-0.060155936,-0.7159132,9.798637390136719,-0.47933337092399597,0.4206281304359436,1.829829454421997,-8.914079666137695, 5.244067192077637
87,142518402,0.10038711,-0.69001806,-0.061552376,-0.7141491,9.465313911437988,-0.6741766333580017,0.38572609424591064,13.668600082397461,-14.794720649719238, 4.199099063873291
88,142535069,0.102700524,-0.6926288,-0.06441835,-0.71103346,9.782499313354492,-0.9015229344367981,0.6474940776824951,24.63129234313965,-27.382577896118164, 2.64847469329834
89,142551736,0.10556094,-0.69570076,-0.06796641,-0.707275,10.03577709197998,-1.146004319190979,0.5740054249763489,30.54108238220215,-32.98176574707031, 2.6542954444885254
90,142568403,0.10895125,-0.6982679,-0.07277146,-0.70374435,10.036694526672363,-0.4998741149902344,0.3550800085067749,39.45864486694336,-30.142963409423828, -1.2805308103561401
91,142585070,0.11281556,-0.6999135,-0.078574084,-0.70087075,10.043085098266602,0.10448049753904343,0.44391289353370667,46.929115295410156,-23.065101623535156, -4.770719051361084
92,142601737,0.115645364,-0.70089364,-0.08287493,-0.69893205,9.816461563110352,0.09187904000282288,0.588983952999115,34.72782897949219,-14.793037414550781, -3.6014204025268555
93,142618404,0.117211916,-0.70208323,-0.085674986,-0.6971373,9.737566947937012,0.17008648812770844,0.5058446526527405,21.18099021911621,-14.692131996154785, -2.421840190887451
94,142635071,0.11793655,-0.70338726,-0.08737962,-0.695487,9.779281616210938,0.2720107436180115,0.37243106961250305,11.691323280334473,-14.214887619018555, -1.1964218616485596
95,142651738,0.11808742,-0.70463616,-0.08823861,-0.69408745,9.845242500305176,0.32800018787384033,0.24898137152194977,4.769874572753906,-12.450210571289062, -0.054414208978414536
96,142668405,0.118140005,-0.70571744,-0.088593915,-0.6929338,9.789464950561523,0.28614020347595215,0.03353678807616234,1.8800177574157715,-10.155503273010254, 1.6532171964645386
97,142685072,0.11797465,-0.70662963,-0.088484176,-0.69204557,9.683481216430664,0.25595220923423767,-0.028973892331123352,-1.4144614934921265,-7.847168445587158, 2.587299108505249
98,142701739,0.11753312,-0.7075059,-0.08773533,-0.6913205,9.702790260314941,-0.10199876129627228,0.16394415497779846,-5.864452362060547,-6.5616559982299805, 4.256659507751465
99,142718406,0.11683078,-0.7085029,-0.08648355,-0.69057596,9.882911682128906,-0.44459348917007446,0.19160258769989014,-9.607943534851074,-7.026873588562012, 5.5564799308776855
100,142735073,0.11609201,-0.7095074,-0.085243925,-0.68982285,9.973627090454102,-0.43085139989852905,0.11393843591213226,-9.728489875793457,-7.183700084686279, 5.314682960510254
101,142751740,0.11484475,-0.7101389,-0.08339897,-0.6896072,10.308809280395508,-0.18938347697257996,0.6515608429908752,-15.097291946411133,-2.6514291763305664, 5.190988063812256
102,142768407,0.111293964,-0.70831144,-0.07792367,-0.6927024,10.805826187133789,-0.3594169616699219,0.8386788368225098,-43.52161407470703,26.62456703186035, 7.975966453552246
103,142785074,0.107702605,-0.7029592,-0.071394295,-0.69939363,10.167304992675781,0.1221839189529419,0.17476055026054382,-47.98954391479492,61.598812103271484, 8.27343463897705
104,142801741,0.10566762,-0.69917816,-0.06758814,-0.7038582,9.187043190002441,0.35213372111320496,-0.482008159160614,-27.463090896606445,41.98505401611328, 5.049492835998535
105,142818408,0.10440076,-0.6968576,-0.06528765,-0.7065604,9.38256549835205,0.6867226958274841,-0.04588566720485687,-16.738107681274414,25.73232650756836, 3.535351514816284
106,142835075,0.102680564,-0.6954194,-0.06266415,-0.70846444,9.54060173034668,0.974958598613739,0.3422718346118927,-20.76479721069336,17.648561477661133, 3.922307014465332
107,142851742,0.099619366,-0.6944997,-0.058212444,-0.7101815,9.795767784118652,0.5720999240875244,0.640749454498291,-36.373985290527344,14.90975284576416, 6.58134126663208
108,142868409,0.09565867,-0.6939331,-0.05271393,-0.7117074,9.832685470581055,-0.02798728458583355,0.7082614898681641,-45.9542350769043,12.57347297668457, 7.524912357330322
109,142885076,0.091464974,-0.69382286,-0.04702553,-0.7127642,10.018967628479004,-1.156766414642334,1.2357501983642578,-48.13056182861328,8.08450698852539, 7.785219669342041
110,142901743,0.08824402,-0.69455427,-0.04240425,-0.71274775,10.011004447937012,-2.2268903255462646,1.1336462497711182,-38.44648742675781,-1.6069750785827637, 8.345271110534668
111,142918410,0.08687114,-0.69576377,-0.04057851,-0.71184254,9.916338920593262,-2.001173257827759,0.5764791369438171,-15.950557708740234,-9.423334121704102, 4.590268611907959
112,142935077,0.08697317,-0.6967702,-0.040792167,-0.7108326,9.546391487121582,-1.622336506843567,0.5641356110572815,1.2410959005355835,-9.758979797363281, 1.9390548467636108
113,142951744,0.08802543,-0.69781065,-0.042572107,-0.70957696,9.390670776367188,-0.9124266505241394,0.6319904923439026,13.501256942749023,-11.792190551757812, -0.8550041913986206
114,142968411,0.08913977,-0.6993138,-0.044915922,-0.7078112,9.676085472106934,-0.35797491669654846,0.6766631603240967,16.42233657836914,-16.845720291137695, -2.852491617202759
115,142985078,0.08920856,-0.7007019,-0.045731373,-0.70637625,10.288658142089844,-0.2154359370470047,1.0900932550430298,3.9287030696868896,-14.1129789352417, -0.8282256722450256
116,143001745,0.08820095,-0.70120203,-0.0448548,-0.70606256,10.125144004821777,-0.12542091310024261,0.8497626185417175,-9.282737731933594,-3.7679498195648193, 1.14267897605896
117,143018412,0.08603977,-0.70034325,-0.04197995,-0.70735735,10.376228332519531,-0.20670853555202484,0.9093689918518066,-24.221220016479492,11.382035255432129, 3.8012475967407227
118,143035079,0.08427294,-0.69917417,-0.039545987,-0.7088653,9.607163429260254,-0.08517253398895264,0.46370503306388855,-20.062841415405273,13.709385871887207, 3.394848585128784
119,143051746,0.08297249,-0.6984487,-0.037931442,-0.70982116,9.698615074157715,-0.2093021273612976,0.5306492447853088,-13.939327239990234,8.52037239074707, 2.1900863647460938
120,143068413,0.08177671,-0.6982152,-0.03663329,-0.7102578,9.657683372497559,-0.41647544503211975,0.7650975584983826,-12.041189193725586,3.4470677375793457, 1.6188706159591675
121,143085080,0.08079408,-0.69843423,-0.035689432,-0.7102032,9.666241645812988,-0.5688047409057617,0.7474089860916138,-9.420852661132812,-1.3063374757766724, 1.3472347259521484
122,143101747,0.07978484,-0.69902277,-0.034990434,-0.70977277,9.722229957580566,-0.5067309737205505,0.7158551216125488,-8.46683120727539,-5.094866752624512, 0.32846373319625854
123,143118414,0.07895789,-0.699978,-0.0346273,-0.70894104,9.72264289855957,-0.6051926612854004,0.6676068902015686,-6.05594539642334,-8.987781524658203, -0.09495911747217178
124,143135081,0.078692056,-0.70151037,-0.034991894,-0.7074367,9.696828842163086,-0.8224867582321167,0.6755717992782593,0.040781859308481216,-15.330212593078613, -0.37330546975135803
125,143151748,0.07936303,-0.70345825,-0.036580335,-0.7053438,9.700026512145996,-0.903827428817749,0.6109825372695923,10.43291187286377,-20.65709114074707, -1.3289045095443726
126,143168415,0.08065596,-0.7054255,-0.03914439,-0.7030913,9.793508529663086,-0.7271610498428345,0.651312530040741,18.206396102905273,-21.924072265625, -2.9717090129852295
127,143185082,0.082299925,-0.70722264,-0.042040892,-0.70092475,9.907045364379883,-0.5655078887939453,0.6664704084396362,21.59157943725586,-20.80701446533203, -2.999755620956421
128,143201749,0.08375886,-0.70889324,-0.044608623,-0.6989027,9.89844036102295,-0.5723345279693604,0.7192031741142273,19.1407470703125,-19.397624969482422, -2.4192025661468506
129,143218416,0.08497377,-0.71057993,-0.04655865,-0.69691324,9.803166389465332,-0.8739516735076904,0.674458384513855,14.966317176818848,-19.078388214111328, -0.6045249700546265
130,143235083,0.08634456,-0.7122601,-0.048524592,-0.6948925,9.888039588928223,-1.1296203136444092,0.5387733578681946,15.819661140441895,-19.203022003173828, 0.05006653442978859
131,143251750,0.08800888,-0.7135182,-0.050950594,-0.69321746,9.854205131530762,-0.8764567375183105,0.5100300312042236,19.591461181640625,-15.706023216247559, -1.1931061744689941
132,143268417,0.08984165,-0.7145335,-0.053495858,-0.6917434,9.860301971435547,-0.7274965643882751,0.4726482331752777,21.06277084350586,-13.613704681396484, -1.2107661962509155
133,143285084,0.09161446,-0.71548873,-0.056004982,-0.69032335,9.856317520141602,-0.6332865953445435,0.3849319517612457,20.61371421813965,-13.098785400390625, -1.392335057258606
134,143301751,0.09335847,-0.7162897,-0.058541283,-0.68904746,9.878312110900879,-0.2714681327342987,0.38381537795066833,20.642908096313477,-11.719318389892578, -1.8249083757400513
135,143318418,0.09467381,-0.7169837,-0.060691316,-0.6879593,9.92745590209961,0.01929367147386074,0.4277269244194031,16.695680618286133,-10.24842357635498, -2.105379581451416
136,143335085,0.095532335,-0.71774954,-0.06216982,-0.6869093,9.919200897216797,-0.10525574535131454,0.40651440620422363,11.206148147583008,-10.195219993591309, -0.9209693670272827
137,143351752,0.0964325,-0.71860063,-0.06320495,-0.6857981,9.920479774475098,-0.44430938363075256,0.3514220714569092,9.288064002990723,-10.632763862609863, 1.5601540803909302
138,143368419,0.09745521,-0.7193461,-0.06442216,-0.68475807,9.869711875915527,-0.3099217712879181,0.24967318773269653,10.79069709777832,-9.889814376831055, 1.1425002813339233
139,143385086,0.09829187,-0.7200598,-0.06555166,-0.6837805,9.942631721496582,-0.25887659192085266,0.31387051939964294,9.451227188110352,-9.488537788391113, 0.6506847143173218
140,143401753,0.09918351,-0.7207768,-0.06660007,-0.68279433,9.903494834899902,-0.4272543489933014,0.3204523026943207,9.3435640335083,-9.506376266479492, 1.327487826347351
141,143418420,0.09992373,-0.72154534,-0.06760443,-0.6817753,9.848974227905273,-0.34355881810188293,0.2171768844127655,8.365464210510254,-9.9911470413208, 0.8792011141777039
142,143435087,0.10051,-0.72221416,-0.068488576,-0.680892,9.813711166381836,-0.2813633978366852,0.18103519082069397,7.043054103851318,-8.87504768371582, 0.617951512336731
143,143451754,0.10042787,-0.72260505,-0.06855647,-0.6804825,10.007160186767578,-0.24664688110351562,0.3482315242290497,-0.1286269724369049,-5.0065531730651855, 1.0898780822753906
144,143468421,0.09997239,-0.7227848,-0.06820252,-0.68039405,9.764375686645508,-0.13968712091445923,0.08627120405435562,-3.9646286964416504,-2.3567914962768555, 1.1248778104782104
145,143485088,0.09973146,-0.72298723,-0.0679983,-0.68023485,9.843949317932129,-0.05486205592751503,0.1387445479631424,-2.181408405303955,-2.8482348918914795, 1.457074522972107
146,143501755,0.09946753,-0.72335994,-0.06770638,-0.6799063,9.801074981689453,-0.16081351041793823,0.24996383488178253,-2.7442731857299805,-4.471952438354492, 2
147,143518422,0.098877214,-0.72387624,-0.067185156,-0.6794945,9.920965194702148,-0.20932845771312714,0.2463022619485855,-5.500328063964844,-5.593404769897461, 1.7495845556259155
148,143535089,0.09777586,-0.72402465,-0.06604864,-0.6796071,9.928777694702148,-0.1931806355714798,0.1995975822210312,-10.912371635437012,-1.1256529092788696, 1.9047337770462036
149,143551756,0.09653586,-0.7243142,-0.064427905,-0.6796314,9.795592308044434,-0.5361903309822083,0.28233468532562256,-13.923151016235352,-2.0037853717803955, 3.797405481338501
150,143568423,0.09566051,-0.7250582,-0.06281496,-0.6791127,9.849589347839355,-1.0145679712295532,0.1460951268672943,-12.134961128234863,-6.720714569091797, 6.008111000061035
151,143585090,0.09556773,-0.72577846,-0.062421564,-0.6783924,9.801591873168945,-0.9466895461082458,0.08992105722427368,-2.4422097206115723,-8.113362312316895, 3.661816358566284
152,143601757,0.09582607,-0.7264836,-0.06273419,-0.6775716,9.771953582763672,-0.7401891350746155,0.11714135855436325,2.652829647064209,-8.888544082641602, 1.8010022640228271
153,143618424,0.09634816,-0.7271233,-0.0635089,-0.67673874,9.840924263000488,-0.6304720640182495,0.12309759855270386,6.168531894683838,-8.86732292175293, 0.6812403798103333
154,143635091,0.09694671,-0.7277538,-0.064334534,-0.6758972,9.804027557373047,-0.4751034080982208,0.134487122297287,6.796018123626709,-8.90096664428711, 0.7721399068832397
155,143651758,0.09736295,-0.72837687,-0.06485645,-0.675116,9.920831680297852,-0.23728089034557343,0.2462555319070816,4.449343204498291,-8.47761344909668, 1.3987163305282593
156,143668425,0.09660482,-0.7284177,-0.06377291,-0.67528385,10.412642478942871,-0.2261340469121933,0.6142303943634033,-8.919304847717285,-0.5170053243637085, 3.1021409034729004
157,143685092,0.0940031,-0.7260092,-0.059951175,-0.67858684,10.482625007629395,-0.47359615564346313,0.6043161749839783,-30.621910095214844,27.493371963500977, 5.10376501083374
158,143701759,0.09208592,-0.7229474,-0.05710433,-0.6823537,9.555634498596191,-0.12587599456310272,-0.11347943544387817,-22.437692642211914,32.43656921386719, 2.84820556640625
159,143718426,0.09092435,-0.7204075,-0.05570693,-0.68530476,9.503015518188477,-0.17261484265327454,-0.04760740324854851,-11.897911071777344,25.297876358032227, -0.08055215328931808
160,143735093,0.089985155,-0.71903116,-0.054678038,-0.6869551,9.401651382446289,-0.30117884278297424,0.09888578951358795,-9.29358959197998,13.214852333068848, 0.4100276827812195
161,143751760,0.08897843,-0.71868044,-0.053762883,-0.6875253,9.591264724731445,-0.43301495909690857,0.41928526759147644,-9.321016311645508,2.9177167415618896, 0.5841042399406433
162,143768427,0.08816436,-0.71882784,-0.053038493,-0.6875322,9.78222370147705,-0.9888274073600769,0.7517900466918945,-7.567055702209473,-2.3006739616394043, 1.074753999710083
163,143785094,0.08688932,-0.71956486,-0.05233311,-0.68697745,9.752546310424805,-0.653099775314331,0.49911803007125854,-9.911492347717285,-8.097331047058105, -0.6826555728912354
164,143801761,0.0845483,-0.72028947,-0.049924843,-0.68668944,10.392464637756348,-0.5621351003646851,0.7049652338027954,-23.31959342956543,-6.126839637756348, 2.5209288597106934
165,143818428,0.08254855,-0.7202964,-0.047227506,-0.687116,9.758981704711914,-0.555261492729187,0.2933456003665924,-22.82669448852539,1.0299334526062012, 4.8833842277526855
166,143835095,0.08091943,-0.7205576,-0.045418993,-0.6871579,9.652152061462402,-0.34003394842147827,0.2667731046676636,-16.815202713012695,-2.4897620677948, 2.515944719314575
167,143851762,0.07948736,-0.72124636,-0.043978073,-0.6866962,9.760157585144043,-0.30958235263824463,0.4076709747314453,-14.184656143188477,-7.17302131652832, 2.037318706512451
168,143868429,0.07807289,-0.7222326,-0.04251642,-0.6859134,9.801583290100098,-0.3856218755245209,0.40703511238098145,-14.261459350585938,-10.187768936157227, 2.489192008972168
169,143885096,0.07676929,-0.7232015,-0.040929932,-0.6851358,10.043230056762695,-0.6208292245864868,0.6303887963294983,-14.295015335083008,-10.016716003417969, 3.620391368865967
170,143901763,0.07575255,-0.7241392,-0.03961241,-0.6843354,9.769407272338867,-0.7373366355895996,0.4463774859905243,-11.582788467407227,-10.093677520751953, 3.621209144592285
171,143918430,0.07510116,-0.72514385,-0.03860264,-0.68340045,9.78526782989502,-0.8400724530220032,0.3284252882003784,-8.317744255065918,-11.17737865447998, 3.8743398189544678
172,143935097,0.07455583,-0.72629577,-0.037718482,-0.68228525,9.772814750671387,-0.5398883819580078,0.33365675806999207,-7.230380058288574,-12.837260246276855, 3.852722406387329
173,143951764,0.073751055,-0.72760653,-0.036580466,-0.681037,9.779627799987793,-0.4720850884914398,0.3085671663284302,-9.766799926757812,-14.21766471862793, 4.004838466644287
174,143968431,0.07294566,-0.7291061,-0.03538919,-0.67958146,9.778748512268066,-0.7551989555358887,0.36040204763412476,-10.065215110778809,-16.145639419555664, 4.416896820068359
175,143985098,0.07223669,-0.7307569,-0.03429306,-0.67793846,9.790188789367676,-0.8160167932510376,0.4075827896595001,-9.171664237976074,-17.85438346862793, 4.501163005828857
176,144001765,0.07170557,-0.7326104,-0.0333555,-0.6760384,9.754277229309082,-0.8698766827583313,0.1422167271375656,-7.583767414093018,-20.171276092529297, 4.686882495880127
177,144018432,0.071360976,-0.7345036,-0.032711256,-0.6740492,9.872751235961914,-0.6422341465950012,-0.039331287145614624,-5.283819198608398,-20.935625076293945, 4.106292247772217
178,144035099,0.07114453,-0.7361778,-0.031991012,-0.67227757,9.931278228759766,-0.7142853736877441,-0.04582968354225159,-4.9327569007873535,-18.777618408203125, 4.920033931732178
179,144051766,0.07128424,-0.73775333,-0.03152298,-0.6705558,9.777764320373535,-0.7466031312942505,-0.03675936535000801,-1.9304189682006836,-18.13974380493164, 5.233379364013672
180,144068433,0.071370326,-0.7393842,-0.031220669,-0.66876227,9.771724700927734,-0.7051366567611694,-0.008235728368163109,-1.4534969329833984,-18.87689208984375, 4.181707859039307
181,144085100,0.07152384,-0.74113905,-0.031073557,-0.6668072,9.822144508361816,-0.895436704158783,-0.08493843674659729,-0.42658013105392456,-20.35989761352539, 3.801218032836914
182,144101767,0.07160518,-0.74308914,-0.031044595,-0.66462594,9.759765625,-0.8888555765151978,-0.20045825839042664,-0.3038567900657654,-22.509248733520508, 3.0043301582336426
183,144118434,0.07203712,-0.7452135,-0.03136923,-0.6621811,9.696141242980957,-0.7978364825248718,-0.33836299180984497,3.0689783096313477,-24.77519416809082, 2.9519152641296387
184,144135101,0.07259223,-0.7474249,-0.031943645,-0.65959543,9.887044906616211,-0.7568930983543396,-0.18992960453033447,4.822415828704834,-26.008825302124023, 2.313555955886841
185,144151768,0.072964,-0.7492928,-0.03216243,-0.6574209,9.871332168579102,-0.9068149328231812,-0.21453671157360077,2.345531702041626,-22.232118606567383, 3.0242695808410645
186,144168435,0.07322699,-0.7511963,-0.032422602,-0.6552028,9.787928581237793,-1.141129732131958,-0.14922717213630676,1.9599578380584717,-22.696094512939453, 2.3355815410614014
187,144185102,0.07384529,-0.75346947,-0.032881167,-0.65249497,9.629942893981934,-1.7110174894332886,-0.3137196898460388,4.6050286293029785,-26.949033737182617, 3.2147929668426514
188,144201769,0.07560616,-0.7557203,-0.035852347,-0.6495269,9.632024765014648,-1.862290859222412,-0.857306182384491,21.855493545532227,-29.24604034423828, -4.599063396453857
189,144218436,0.07956865,-0.7558895,-0.042465523,-0.6484571,10.017271995544434,-0.9917606115341187,-0.7916083335876465,50.17330551147461,-11.440590858459473, -15.235496520996094
190,144235103,0.08347792,-0.75455445,-0.048142195,-0.64912355,10.57911205291748,-0.7713372707366943,-0.201432466506958,46.042240142822266,4.772613048553467, -11.983804702758789
191,144251770,0.086772874,-0.7525946,-0.0523779,-0.650637,9.847184181213379,-0.7523532509803772,-0.6862438917160034,36.50543212890625,12.530908584594727, -7.9242658615112305
192,144268437,0.08940593,-0.75167006,-0.05557611,-0.6510838,9.703289031982422,-0.6397929191589355,-0.5956162810325623,28.205074310302734,2.7460415363311768, -4.496219635009766
193,144285104,0.09172199,-0.7516178,-0.05807714,-0.6506035,9.6261568069458,-1.230955719947815,-0.5955510139465332,23.264564514160156,-5.65730619430542, -1.3970860242843628
194,144301771,0.09467713,-0.7517771,-0.061386134,-0.6496917,9.763827323913574,-1.2988646030426025,-0.6826085448265076,30.21213722229004,-9.101926803588867, -2.3762521743774414
195,144318438,0.09874597,-0.7513981,-0.065972775,-0.6490748,10.054556846618652,-1.033495545387268,-0.5843647718429565,41.883323669433594,-5.544620990753174, -4.439234256744385
196,144335105,0.10238382,-0.75062317,-0.07046225,-0.6489359,9.813385009765625,-0.7208651304244995,-0.384094774723053,39.290565490722656,-1.4558852910995483, -6.365713119506836
197,144351772,0.104508,-0.7501484,-0.07383234,-0.64877146,9.774696350097656,-0.3965489864349365,-0.36982932686805725,26.244640350341797,-2.8972651958465576, -7.161227226257324
198,144368439,0.10562772,-0.749883,-0.07654021,-0.64858305,9.714668273925781,-0.08716348558664322,-0.4229448139667511,18.066219329833984,-4.020533561706543, -8.092395782470703
199,144385106,0.10610387,-0.74999404,-0.0788062,-0.6481055,9.797585487365723,0.11367103457450867,-0.4602692723274231,12.589313507080078,-7.228012561798096, -8.233223915100098
200,144401773,0.106080644,-0.750351,-0.08086197,-0.64744234,9.894574165344238,0.5788646340370178,-0.4735320806503296,9.014262199401855,-9.419859886169434, -9.067108154296875
201,144418440,0.10563038,-0.75106055,-0.08232907,-0.6465078,9.738969802856445,0.044831160455942154,-0.38285499811172485,3.574735164642334,-12.199670791625977, -7.4053544998168945
202,144435107,0.105063125,-0.75204194,-0.08360883,-0.6452942,9.68740177154541,-0.5290037393569946,-0.4083048701286316,2.480637311935425,-14.822941780090332, -6.624884605407715
203,144451774,0.10493803,-0.7529886,-0.08534994,-0.6439813,9.723254203796387,-0.5446314215660095,-0.7177239656448364,6.977950572967529,-15.290056228637695, -7.012022018432617
204,144468441,0.10524181,-0.7539518,-0.08746038,-0.64251965,9.770017623901367,-0.3667367100715637,-0.7157390117645264,11.078474998474121,-16.165813446044922, -6.934789180755615
205,144485108,0.10582184,-0.7548793,-0.08968589,-0.64102703,9.934803009033203,-0.22279807925224304,-0.6651360988616943,13.471208572387695,-16.11141586303711, -6.361283779144287
206,144501775,0.106149405,-0.75572026,-0.09145086,-0.6397312,9.908021926879883,-0.527190625667572,-0.6132404208183289,9.88196086883545,-14.541394233703613, -5.232782363891602
207,144518442,0.10586426,-0.75656193,-0.09264512,-0.6386109,9.85808277130127,-0.55299973487854,-0.6614645719528198,5.839052677154541,-13.676129341125488, -5.362778663635254
208,144535109,0.10548028,-0.7573418,-0.09392715,-0.63756174,9.842814445495605,-0.3459010124206543,-0.6005533337593079,4.324426174163818,-13.141283988952637, -6.147462844848633
209,144551776,0.10534576,-0.7580932,-0.09557956,-0.63644457,9.8590726852417,-0.3240737020969391,-0.5525001287460327,3.5728909969329834,-13.405888557434082, -6.337072849273682
210,144568443,0.104916,-0.75893694,-0.09686483,-0.6353147,9.856891632080078,-0.3081078827381134,-0.6608827710151672,3.5440003871917725,-13.915750503540039, -6.170898914337158
211,144585110,0.10440467,-0.7598562,-0.09793453,-0.63413495,9.916507720947266,-0.366713285446167,-0.6681293249130249,2.075904607772827,-14.427824974060059, -5.303459167480469
212,144601777,0.10407558,-0.7605029,-0.099021494,-0.63324463,9.945724487304688,-0.3323229253292084,-0.6721397638320923,1.1709941625595093,-11.603954315185547, -4.666098594665527
213,144618444,0.10337764,-0.7611916,-0.09956912,-0.6324448,9.78736400604248,-0.4184151887893677,-0.7738085985183716,-1.6239866018295288,-11.238932609558105, -3.7648379802703857
214,144635111,0.10241848,-0.7619827,-0.099822514,-0.63160795,9.832005500793457,-0.391566663980484,-0.7837429642677307,-3.382286787033081,-11.88650131225586, -3.4386985301971436
215,144651778,0.1014261,-0.7627702,-0.10013821,-0.63076675,9.857430458068848,-0.4956177771091461,-0.7985820174217224,-4.224843502044678,-11.966620445251465, -3.758333444595337
216,144668445,0.10043301,-0.7633044,-0.100574605,-0.63020986,9.94936466217041,-0.5192892551422119,-0.8391312956809998,-3.5405216217041016,-9.489137649536133, -4.817584037780762
217,144685112,0.09946676,-0.76374894,-0.10123046,-0.62971944,9.795310020446777,-0.4022722542285919,-0.8633227348327637,-2.1223459243774414,-8.911109924316406, -6.036646366119385
218,144701779,0.09846619,-0.7642156,-0.10207492,-0.62917376,9.754298210144043,-0.33426618576049805,-0.9024739265441895,-1.3958160877227783,-9.470480918884277, -7.147561073303223
219,144718446,0.097371906,-0.76476276,-0.10294014,-0.6285382,9.77714729309082,-0.3873438835144043,-0.8721582293510437,-1.7349413633346558,-10.389030456542969, -7.565548896789551
220,144735113,0.096280865,-0.7654401,-0.10392111,-0.6277197,9.712936401367188,-0.3093177080154419,-0.8899670839309692,-1.3524540662765503,-12.007768630981445, -7.928225994110107
221,144751780,0.095157966,-0.7662669,-0.10498156,-0.62670493,9.760869026184082,-0.523180365562439,-0.8914523124694824,-1.3777979612350464,-13.780631065368652, -8.212654113769531
222,144768447,0.09395551,-0.7672562,-0.10631138,-0.62545043,9.660845756530762,-0.5495588779449463,-0.983785092830658,-0.4667792320251465,-15.999248504638672, -9.742353439331055
223,144785114,0.09270576,-0.7684482,-0.10800288,-0.6238819,9.727059364318848,-0.3469531834125519,-1.0293325185775757,1.018343448638916,-18.81312370300293, -11.541768074035645
224,144801781,0.091078736,-0.7698349,-0.10985668,-0.62208575,9.767760276794434,-0.14756812155246735,-1.0445363521575928,-0.27102139592170715,-21.251733779907227, -13.734892845153809
225,144818448,0.089076355,-0.7713564,-0.111826584,-0.62013674,9.786195755004883,-0.10287093371152878,-1.0954381227493286,-1.7134813070297241,-23.012239456176758, -15.767577171325684
226,144835115,0.08652268,-0.773123,-0.11393601,-0.6179105,9.781816482543945,-0.03732753545045853,-1.107285499572754,-3.952028274536133,-26.055816650390625, -18.5130558013916
227,144851782,0.083389595,-0.7752348,-0.11621447,-0.6152655,9.866548538208008,0.017737101763486862,-1.1041282415390015,-6.2035932540893555,-30.324872970581055, -21.35875701904297
228,144868449,0.07950927,-0.7776651,-0.11854197,-0.6122607,9.927736282348633,-0.10352680832147598,-1.1730117797851562,-9.839618682861328,-34.23861312866211, -24.338037490844727
229,144885116,0.075037144,-0.78029346,-0.12109075,-0.60897344,10.223397254943848,0.11908791959285736,-1.2323106527328491,-11.943923950195312,-37.212806701660156, -27.718538284301758
230,144901783,0.06986338,-0.78296345,-0.12405042,-0.6055568,10.672709465026855,-0.1504669487476349,-1.2917230129241943,-13.881538391113281,-38.9071044921875, -32.779296875
231,144918450,0.06454282,-0.78583044,-0.12786433,-0.60162777,10.775641441345215,0.8745541572570801,-2.026679515838623,-10.756820678710938,-43.058502197265625, -37.61084747314453
232,144935117,0.058751207,-0.7889839,-0.13189909,-0.59720665,11.551438331604004,1.046278953552246,-1.3388434648513794,-12.051430702209473,-47.423641204833984, -40.27737808227539
233,144951784,0.053671107,-0.79229534,-0.13656074,-0.592232,11.665292739868164,0.6492257118225098,-0.3141748905181885,-5.147269248962402,-50.74003982543945, -40.38359451293945
234,144968451,0.048203986,-0.7962464,-0.14174332,-0.58615434,12.389368057250977,1.0982226133346558,0.018139496445655823,-4.303581237792969,-60.01793670654297, -43.80732727050781
235,144985118,0.043172874,-0.80073327,-0.148011,-0.5788398,12.70372200012207,1.5791012048721313,0.08361285924911499,3.523977756500244,-69.02350616455078, -47.06316375732422
236,145001785,0.037818946,-0.8062468,-0.15477234,-0.56972057,12.707016944885254,1.7594399452209473,0.39081671833992004,5.2937774658203125,-83.67485046386719, -49.47578430175781
237,145018452,0.031253897,-0.8131268,-0.16157304,-0.5583389,12.86048412322998,1.2893500328063965,1.098565936088562,0.8458032608032227,-103.04441833496094, -52.39085006713867
238,145035119,0.022244157,-0.82143867,-0.16780102,-0.54459774,13.177046775817871,0.8416852355003357,1.8230100870132446,-12.647368431091309,-124.54454040527344, -56.513248443603516
239,145051786,0.0080251675,-0.8317821,-0.1697023,-0.52846503,14.067159652709961,0.808747410774231,2.656208038330078,-34.327640533447266,-147.3201904296875, -58.60374069213867
240,145068453,-0.010256057,-0.8434917,-0.16830608,-0.50999,14.063769340515137,0.05098344385623932,2.2066190242767334,-65.10262298583984,-169.62017822265625, -54.909645080566406
241,145085120,-0.029359508,-0.85504526,-0.16779196,-0.48977745,13.552176475524902,-1.2785180807113647,-0.45991379022598267,-79.28766632080078,-183.1767578125, -56.63333511352539
242,145101787,-0.046857078,-0.8655835,-0.1697005,-0.46879783,13.108075141906738,-1.1590620279312134,-5.897708415985107,-69.4686508178711,-184.22181701660156, -62.33161163330078
243,145118454,-0.06325108,-0.87434417,-0.17123409,-0.44966725,13.696023941040039,-1.336034893989563,-7.3643646240234375,-66.9137954711914,-166.33253479003906, -58.28912353515625
244,145135121,-0.077426925,-0.88098264,-0.17001493,-0.43470654,11.32003116607666,-1.5900565385818481,-1.6613689661026,-68.044677734375,-133.28724670410156, -35.84573745727539
245,145151788,-0.08867176,-0.8852438,-0.16534288,-0.42560858,9.609272956848145,-3.4876303672790527,6.771244049072266,-68.82904052734375,-89.23637390136719, -6.089678764343262
246,145168455,-0.095199116,-0.8868164,-0.1594431,-0.4231689,6.814542293548584,-5.1320719718933105,9.129232406616211,-52.98832702636719,-36.62353515625, 15.895325660705566
247,145185122,-0.100711085,-0.8851309,-0.1525934,-0.42792073,6.512094020843506,-3.6898365020751953,9.24724292755127,-59.657955169677734,16.809001922607422, 25.47334098815918
248,145201789,-0.10375061,-0.8806568,-0.14415124,-0.4392042,6.987118721008301,-2.6811466217041016,7.643632411956787,-58.108245849609375,65.8846206665039, 43.77885437011719
249,145218456,-0.10173157,-0.87339705,-0.13474979,-0.4568051,7.31843376159668,-2.1199488639831543,6.141827583312988,-38.63737869262695,116.55342102050781, 66.39370727539062
250,145235123,-0.096217245,-0.863012,-0.12530626,-0.47984487,8.139348983764648,-1.2430378198623657,4.695390224456787,-25.012432098388672,161.955810546875, 78.362060546875
251,145251790,-0.08771861,-0.8491734,-0.11785738,-0.5072671,9.315427780151367,-0.24168747663497925,3.33190655708313,-25.419490814208984,196.82798767089844, 86.53401184082031
252,145268457,-0.079425514,-0.83317596,-0.10665646,-0.5367812,10.554389953613281,0.5188406109809875,1.9622530937194824,-24.09585189819336,220.080078125, 96.8021240234375
253,145285124,-0.069817565,-0.81492656,-0.09481771,-0.5674768,12.120718002319336,1.5756645202636719,0.7520581483840942,-20.909984588623047,235.63035583496094, 104.18993377685547
254,145301791,-0.060005896,-0.7949075,-0.08197942,-0.5981645,13.165321350097656,2.2095119953155518,-0.5111297369003296,-24.491165161132812,242.01870727539062, 109.3891372680664
255,145318458,-0.04923825,-0.7736775,-0.06897045,-0.6278867,14.07098388671875,1.9950201511383057,-1.545750379562378,-19.91302490234375,242.1292724609375, 113.16691589355469
256,145335125,-0.03720295,-0.7519183,-0.056580264,-0.6557694,14.412673950195312,1.5915569067001343,-2.817488670349121,-9.807065963745117,235.4425506591797, 114.48210144042969
257,145351792,-0.024439996,-0.73183054,-0.044626564,-0.67958456,14.021055221557617,1.9171394109725952,-4.067460060119629,-2.0953166484832764,207.34771728515625, 115.13848114013672
258,145368459,-0.0103856465,-0.71477246,-0.03383378,-0.6984611,14.010509490966797,2.748377799987793,-4.58589506149292,11.787656784057617,169.0918426513672, 115.50495910644531
259,145385126,0.0034659149,-0.69923204,-0.022568922,-0.71453017,14.92211627960205,2.812098741531372,-5.178718566894531,9.208548545837402,148.14608764648438, 117.14009857177734
260,145401793,0.016220871,-0.68286294,-0.01103261,-0.7302832,14.100565910339355,2.768517255783081,-5.7658772468566895,2.5878407955169678,150.81756591796875, 113.0819320678711
261,145418460,0.029378789,-0.6655861,-0.0012710546,-0.7457418,12.628108024597168,3.072174549102783,-5.206110000610352,13.457714080810547,154.1545867919922, 106.89859771728516
262,145435127,0.042879146,-0.6483159,0.005531169,-0.76014286,11.522283554077148,3.2337265014648438,-4.626004695892334,30.164852142333984,149.04287719726562, 95.54936981201172
263,145451794,0.054235633,-0.6325436,0.010835922,-0.7725475,11.022583961486816,4.155529975891113,-5.2924981117248535,27.891416549682617,132.37033081054688, 78.4771499633789
264,145468461,0.062091596,-0.6189076,0.016685156,-0.78282803,10.838367462158203,4.819113254547119,-5.609990119934082,8.805916786193848,112.7577896118164, 63.202144622802734
265,145485128,0.06743155,-0.60839003,0.02318167,-0.7904285,9.916804313659668,4.515758037567139,-5.961575031280518,-7.040187358856201,85.69068908691406, 53.52589416503906
266,145501795,0.069745384,-0.6024571,0.029118257,-0.7945647,9.228242874145508,4.313536643981934,-7.098836898803711,-19.340091705322266,47.073768615722656, 35.903953552246094
267,145518462,0.06961427,-0.60111344,0.033018146,-0.7954411,9.43904972076416,4.0005059242248535,-7.511749744415283,-21.177608489990234,8.58759593963623, 15.021086692810059
268,145535129,0.06877369,-0.60315835,0.03430398,-0.7939102,9.031182289123535,3.1205461025238037,-6.951623916625977,-11.957491874694824,-20.442779541015625, 0.9593959450721741
269,145551796,0.06824155,-0.6074543,0.03212837,-0.7907656,8.374829292297363,2.492872714996338,-6.280007362365723,6.802552700042725,-40.669193267822266, -11.286871910095215
270,145568463,0.06751706,-0.6137564,0.026671829,-0.78615093,8.353038787841797,2.9436283111572266,-6.135831832885742,22.60453224182129,-58.83344650268555, -25.637758255004883
271,145585130,0.06599658,-0.6169618,0.020919705,-0.78394216,15.762563705444336,0.2178695797920227,5.538253307342529,22.748315811157227,-31.607257843017578, -31.59731674194336
272,145601797,0.07176822,-0.62378347,0.008151853,-0.7782526,12.523476600646973,-1.4282366037368774,2.740147590637207,89.3553237915039,-70.06800842285156, -20.921106338500977
273,145618464,0.065249324,-0.6370578,-0.0024661485,-0.76804566,12.405471801757812,3.4574432373046875,0.7084958553314209,21.720985412597656,-122.15064239501953, -75.59268951416016
274,145635131,0.061092034,-0.6480898,-0.0077863247,-0.7590699,11.909494400024414,0.5641236901283264,0.45602691173553467,5.078107833862305,-102.391845703125, -40.39793395996094
275,145651798,0.06161681,-0.65749997,-0.010786832,-0.7508535,8.565362930297852,-0.5362576842308044,-0.7843877673149109,14.48951530456543,-89.23336029052734, -6.011308670043945
276,145668465,0.057766534,-0.66486603,-0.012273984,-0.7446245,11.039552688598633,0.41051092743873596,-0.20903432369232178,-12.367457389831543,-69.2984390258789, -22.764404296875
277,145685132,0.05449034,-0.67145663,-0.012934125,-0.73892474,10.341062545776367,0.1478278487920761,0.34582626819610596,-13.707076072692871,-62.47138214111328, -16.314476013183594
278,145701799,0.050896622,-0.6783282,-0.012799131,-0.7328824,10.80148696899414,-0.05597533658146858,0.7574115991592407,-19.279621124267578,-65.17564392089844, -14.106138229370117
279,145718466,0.05033229,-0.68429685,-0.013972924,-0.7273303,10.178577423095703,-0.8543248772621155,0.5003842115402222,1.7204577922821045,-58.51004409790039, -5.202552318572998
280,145735133,0.0508989,-0.6903257,-0.0154660065,-0.72154063,10.15695858001709,-0.8630361557006836,0.9476941227912903,8.644853591918945,-59.912994384765625, -0.9809280037879944
281,145751800,0.052376546,-0.69574165,-0.017796373,-0.7161589,9.7731294631958,-0.985677182674408,0.7040699124336243,17.29505729675293,-55.125152587890625, -0.6602005958557129
282,145768467,0.05355998,-0.7006617,-0.021340404,-0.7111604,9.595794677734375,-1.0833386182785034,0.6358511447906494,21.996326446533203,-51.317081451416016, -8.129741668701172
283,145785134,0.056304317,-0.70517856,-0.027111745,-0.7062706,9.863251686096191,-1.354975938796997,0.16211766004562378,40.539859771728516,-49.40858459472656, -11.342443466186523
284,145801801,0.06023227,-0.70934045,-0.03412425,-0.70145845,10.114300727844238,-0.8446021676063538,0.07626398652791977,52.42997741699219,-47.55839920043945, -11.726116180419922
285,145818468,0.064999856,-0.71317446,-0.041797943,-0.6967141,10.230567932128906,-0.1435689777135849,0.3137880265712738,59.833885192871094,-45.71609115600586, -11.014633178710938
286,145835135,0.06894025,-0.7172308,-0.048878368,-0.6916922,10.099615097045898,0.5428972244262695,0.46850770711898804,52.91630172729492,-48.11278533935547, -11.878762245178223
287,145851802,0.070969045,-0.72144914,-0.053740427,-0.6867216,9.93477725982666,0.8764647841453552,0.53706294298172,32.84849166870117,-48.221561431884766, -9.991854667663574
288,145868469,0.07103539,-0.72564256,-0.05539457,-0.6821498,9.844014167785645,0.21004611253738403,0.26742619276046753,7.834055423736572,-45.28968811035156, -3.5389585494995117
289,145885136,0.069938295,-0.7296924,-0.055435054,-0.6779269,10.061164855957031,-0.5730009078979492,-0.08975474536418915,-5.6009697914123535,-42.5325927734375, -1.168945550918579
290,145901803,0.06897857,-0.73355466,-0.056108072,-0.67378885,9.931299209594727,-0.9041950702667236,-0.05757926404476166,-1.9058268070220947,-41.482295989990234, -3.822232484817505
291,145918470,0.06803229,-0.7376613,-0.057699535,-0.6692521,9.690237045288086,-0.8591119647026062,-0.06312809139490128,2.454169511795044,-45.05788803100586, -8.118863105773926
292,145935137,0.06710638,-0.74194205,-0.059813175,-0.6644104,9.802263259887695,-0.574427604675293,-0.30546170473098755,4.997931957244873,-47.642662048339844, -10.470483779907227
293,145951804,0.06646381,-0.7464062,-0.062515415,-0.65920585,9.98808479309082,-0.36558419466018677,-0.45076000690460205,9.196515083312988,-50.48662185668945, -11.941078186035156
294,145968471,0.06621167,-0.7510525,-0.06586662,-0.6536038,9.845718383789062,-0.3525606095790863,-0.42801254987716675,14.228290557861328,-53.482574462890625, -13.244732856750488
295,145985138,0.06545724,-0.7558794,-0.06934135,-0.6477295,9.691208839416504,-0.26322251558303833,-0.6294701099395752,12.231439590454102,-55.9857292175293, -15.936408042907715
296,146001805,0.063869424,-0.7609187,-0.07234867,-0.6416302,9.811969757080078,-0.10550732165575027,-0.8190184235572815,5.830608367919922,-58.28815841674805, -17.01856803894043
297,146018472,0.061670564,-0.7664127,-0.07464887,-0.63500875,9.925383567810059,0.332181841135025,-0.8305848836898804,-0.4251771569252014,-63.020477294921875, -15.55996036529541
298,146035139,0.05818376,-0.77265203,-0.07530613,-0.6276565,9.873796463012695,0.30385828018188477,-0.8771340847015381,-14.324795722961426,-70.09280395507812, -11.831120491027832
299,146051806,0.05336738,-0.7796643,-0.07457035,-0.61944747,9.711166381835938,0.002775235567241907,-1.3280138969421387,-27.264986038208008,-78.11531066894531, -9.424307823181152
300,146068473,0.047674652,-0.78711444,-0.07343126,-0.61056197,9.741072654724121,-0.06510954350233078,-1.7123039960861206,-33.49452590942383,-83.9098892211914, -10.524014472961426
301,146085140,0.041539866,-0.794997,-0.07246653,-0.6008354,9.817109107971191,-0.1284441351890564,-2.0735507011413574,-34.87158203125,-90.55768585205078, -12.832469940185547
302,146101807,0.034966495,-0.80289555,-0.07169751,-0.5907586,10.325586318969727,-0.456804484128952,-2.155377149581909,-36.29096221923828,-92.81121826171875, -15.609975814819336
303,146118474,0.028720561,-0.80992514,-0.07211312,-0.5813744,10.605901718139648,-0.6170483231544495,-2.0802416801452637,-29.80554962158203,-85.58467864990234, -21.420860290527344
304,146135141,0.022223594,-0.81634676,-0.07369923,-0.5724095,10.683380126953125,-0.32799574732780457,-2.186939001083374,-26.616188049316406,-81.17997741699219, -29.33427619934082
305,146151808,0.015433982,-0.8225503,-0.07625352,-0.5633457,10.887288093566895,0.7555641531944275,-2.2185704708099365,-24.36578941345215,-81.18115234375, -36.02170944213867
306,146168475,0.008995754,-0.8287305,-0.07986443,-0.5538473,11.597259521484375,2.016045331954956,-2.315500497817993,-18.05402374267578,-83.4847183227539, -40.60106658935547
307,146185142,0.0029366876,-0.8342742,-0.084540315,-0.544822,12.83825969696045,2.6498641967773438,-2.270376205444336,-12.050552368164062,-78.23471069335938, -45.59552764892578
308,146201809,-0.0026172255,-0.83916336,-0.09162784,-0.5360993,14.225382804870605,1.7693222761154175,-1.611191987991333,-0.2725532054901123,-73.82015991210938, -57.91286849975586
309,146218476,-0.007202577,-0.8436211,-0.10092308,-0.52731997,16.340030670166016,1.1768183708190918,-0.06821493059396744,13.488699913024902,-71.93619537353516, -67.35214233398438
310,146235143,-0.0146527365,-0.84680283,-0.10981239,-0.52024186,17.75908851623535,2.089965581893921,3.2320220470428467,-5.838595390319824,-59.49853515625, -76.19117736816406
311,146251810,-0.028852303,-0.85274863,-0.113802575,-0.50895613,17.688003540039062,1.3712782859802246,4.279956340789795,-59.190189361572266,-99.55259704589844, -70.15670013427734
312,146268477,-0.04599469,-0.86261845,-0.11611797,-0.49019465,16.945175170898438,-0.5621609687805176,5.698551654815674,-75.66830444335938,-159.84483337402344, -69.07234954833984
313,146285144,-0.06501676,-0.8750782,-0.1167311,-0.46517184,14.698701858520508,-2.9412429332733154,3.196669578552246,-86.7385025024414,-207.8563690185547, -65.2667236328125
314,146301811,-0.08703967,-0.88811636,-0.118077785,-0.43558136,14.476343154907227,-1.5819141864776611,-7.484927177429199,-98.54164123535156,-239.35191345214844, -80.9189682006836
315,146318478,-0.10852159,-0.8975255,-0.12003251,-0.41019893,16.356618881225586,-1.9661755561828613,-9.732890129089355,-99.02722930908203,-201.96212768554688, -83.47946166992188
316,146335145,-0.12333262,-0.9024971,-0.122238286,-0.39413968,12.750970840454102,-2.704575538635254,3.338909387588501,-82.47100067138672,-132.1460418701172, -50.763214111328125
317,146351812,-0.1331877,-0.90689844,-0.11864453,-0.38173267,6.831396102905273,-7.356571674346924,9.324812889099121,-56.75592803955078,-102.79652404785156, -10.966217994689941
318,146368479,-0.13832459,-0.9083324,-0.11535154,-0.37748197,7.6077423095703125,-6.2959794998168945,9.204765319824219,-35.93962860107422,-40.089412689208984, 4.538609981536865
319,146385146,-0.14218065,-0.9067616,-0.1096008,-0.38151816,7.94804048538208,-5.3566179275512695,8.69458293914795,-43.76517105102539,18.073816299438477, 28.66196632385254
320,146401813,-0.13839495,-0.9028928,-0.10226647,-0.39392,6.35892391204834,-5.303140163421631,7.710470676422119,-8.838483810424805,80.40396881103516, 64.98658752441406
321,146418480,-0.12942536,-0.89562625,-0.09540561,-0.41472933,6.464073181152344,-3.652949571609497,6.839147567749023,15.470945358276367,145.85134887695312, 81.6719741821289
322,146435147,-0.11994273,-0.884299,-0.08813166,-0.44256297,8.145331382751465,-1.567033052444458,5.715770244598389,9.231171607971191,200.6244354248047, 89.25093841552734
323,146451814,-0.110367306,-0.869317,-0.07893075,-0.47526544,9.657673835754395,-0.08802111446857452,4.0460004806518555,-2.0203537940979004,239.78929138183594, 103.04118347167969
324,146468481,-0.10053813,-0.8513803,-0.067702755,-0.5103532,10.927730560302734,0.8686543703079224,2.1045591831207275,-10.651688575744629,262.27667236328125, 116.18956756591797
325,146485148,-0.09010523,-0.8310591,-0.05572568,-0.5460004,13.19078254699707,2.0669808387756348,0.22554752230644226,-11.642716407775879,273.6624755859375, 121.96731567382812
326,146501815,-0.07969741,-0.8086966,-0.043195058,-0.58119893,14.69980525970459,3.29720401763916,-1.558389663696289,-14.946443557739258,278.39422607421875, 123.97781372070312
327,146518482,-0.06971251,-0.7853229,-0.02967157,-0.6144329,15.62680435180664,3.823141098022461,-2.76554536819458,-21.22681427001953,270.8356018066406, 126.44085693359375
328,146535149,-0.060493182,-0.76212585,-0.015446334,-0.64441156,15.156821250915527,2.958733081817627,-3.9524292945861816,-27.572233200073242,252.02154541015625, 125.48304748535156
329,146551816,-0.050932694,-0.7398485,-0.00067809667,-0.6708425,14.328900337219238,2.423485279083252,-4.743032455444336,-27.42500114440918,229.19009399414062, 128.4711151123047
330,146568483,-0.04051859,-0.7178523,0.014663781,-0.6948608,14.803034782409668,2.66355037689209,-4.994953155517578,-25.626819610595703,215.46868896484375, 134.4971466064453
331,146585150,-0.029637292,-0.69629306,0.030074475,-0.71651465,15.073517799377441,3.0471794605255127,-5.384961128234863,-23.768199920654297,201.69955444335938, 136.38600158691406
332,146601817,-0.017624551,-0.67586577,0.043793384,-0.7355115,14.825553894042969,2.9407317638397217,-5.63196325302124,-10.339227676391602,183.5765380859375, 133.11264038085938
333,146618484,-0.003987787,-0.6558284,0.053907048,-0.7529724,13.863667488098145,3.4852523803710938,-6.724729537963867,15.02050495147705,174.4871826171875, 124.30303955078125
334,146635151,0.010424634,-0.6356462,0.05974062,-0.7695949,13.905351638793945,4.02183723449707,-8.326087951660156,40.369022369384766,171.37484741210938, 109.1001968383789
335,146651818,0.02377665,-0.61656743,0.06191583,-0.7845035,13.110411643981934,4.956342697143555,-9.792989730834961,54.31547927856445,158.3267059326172, 87.22998809814453
336,146668485,0.034730088,-0.60209835,0.06277213,-0.79519266,11.205496788024902,6.114350318908691,-12.133069038391113,48.71110916137695,116.49969482421875, 67.49500274658203
337,146685152,0.041083723,-0.5956477,0.06386412,-0.79964834,9.894885063171387,5.851747035980225,-14.132902145385742,23.779373168945312,49.037025451660156, 41.42343521118164
338,146701819,0.04434621,-0.5958472,0.06248892,-0.79943407,9.441810607910156,3.7662901878356934,-13.25611686706543,20.765186309814453,-5.8337016105651855, 12.792333602905273
339,146718486,0.047497027,-0.59962547,0.057121493,-0.79682523,8.56164836883545,2.3966524600982666,-10.280059814453125,40.14070510864258,-36.34393310546875, -4.939730167388916
340,146735153,0.051543295,-0.6044175,0.048658215,-0.79350823,7.583808898925781,3.115366220474243,-7.15309476852417,60.19374084472656,-46.077571868896484, -12.93777084350586
341,146751820,0.054775845,-0.61122984,0.037932117,-0.78864366,8.36684799194336,5.004920959472656,-3.3259871006011963,67.92723083496094,-63.99422073364258, -26.881961822509766
342,146768487,0.05877773,-0.6146063,0.029825654,-0.7860756,16.8356876373291,-3.5816471576690674,12.676109313964844,58.845733642578125,-34.895729064941406, -11.629260063171387
343,146785154,0.064704254,-0.62743175,0.0089116115,-0.7759277,12.10783863067627,6.558128833770752,-1.2657277584075928,130.83279418945312,-123.66465759277344, -54.256832122802734
344,146801821,0.048248466,-0.64656717,0.0051817256,-0.7613123,16.621313095092773,4.181330680847168,-0.7135094404220581,-60.497772216796875,-167.572021484375, -97.88081359863281
345,146818488,0.045411047,-0.66018355,0.006016476,-0.7497062,10.704795837402344,-0.4558708071708679,-1.3817198276519775,-21.91074562072754,-124.24420166015625, -7.0565290451049805
346,146835155,0.04418951,-0.67192554,0.005598781,-0.73927814,9.894881248474121,-1.6413861513137817,-2.825936794281006,-7.473170280456543,-109.68646240234375, -4.711452484130859
347,146851822,0.04285201,-0.6800861,0.0027945116,-0.73187363,10.02139663696289,-0.6840662956237793,0.050885699689388275,5.329182147979736,-78.2165298461914, -17.12837028503418
348,146868489,0.04192534,-0.6886049,0.0004748608,-0.7239237,10.696968078613281,0.9461908936500549,0.7655702829360962,4.69682502746582,-82.44804382324219, -12.653573989868164
349,146885156,0.042600192,-0.69611806,-0.0013274115,-0.71666104,11.310709953308105,-0.7218565344810486,-0.2253449261188507,9.998747825622559,-74.0630111694336, -2.425954580307007
350,146901823,0.04445736,-0.7030966,-0.0042159795,-0.7096908,10.11870288848877,-1.2232213020324707,0.4330003559589386,21.164823532104492,-70.34580993652344, -1.9025987386703491
351,146918490,0.046178162,-0.70990187,-0.0074416595,-0.70274585,9.981961250305176,-0.6455029845237732,0.38303595781326294,22.202024459838867,-69.501708984375, -4.226904392242432
352,146935157,0.04632804,-0.7163479,-0.009488421,-0.69613904,9.869709968566895,-0.13191908597946167,0.45279642939567566,8.935726165771484,-65.83944702148438, -6.199062347412109
353,146951824,0.046896014,-0.72223985,-0.0120479455,-0.68994594,9.953837394714355,-0.5895419120788574,0.4052537679672241,13.599912643432617,-61.30458068847656, -6.896660804748535
354,146968491,0.047698278,-0.7282393,-0.01522633,-0.6834916,9.816014289855957,-0.6362838745117188,0.25826919078826904,17.68187713623047,-63.30860137939453, -8.773996353149414
355,146985158,0.04808643,-0.73449814,-0.017891346,-0.6766686,10.286937713623047,-0.4484206736087799,-0.09575469046831131,13.15127944946289,-66.26457977294922, -8.010246276855469
356,147001825,0.049064968,-0.74126244,-0.020540388,-0.6691045,10.369735717773438,-0.22566646337509155,-0.4965839982032776,15.982306480407715,-72.29466247558594, -4.882182598114014
357,147018492,0.0500618,-0.74826515,-0.023082541,-0.66110563,10.087522506713867,0.04341757670044899,-0.511277437210083,15.565454483032227,-75.58110809326172, -4.077269077301025
358,147035159,0.04990056,-0.7548342,-0.024118878,-0.6535702,9.73800277709961,-0.08681181818246841,-0.46998417377471924,2.837329149246216,-70.90270233154297, -1.8243992328643799
359,147051826,0.048569355,-0.7612299,-0.023557559,-0.6462316,9.943049430847168,-0.16062726080417633,-0.36679646372795105,-10.384077072143555,-68.76190948486328, 1.1109375953674316
360,147068493,0.046062745,-0.76784587,-0.022264823,-0.63858855,9.917510032653809,-0.6509644985198975,-0.6624025702476501,-19.81074333190918,-71.2958755493164, -0.14841565489768982
361,147085160,0.042814195,-0.77431214,-0.021444403,-0.63098973,9.884506225585938,-1.2246543169021606,-1.0219084024429321,-21.61186408996582,-70.68167877197266, -5.9426589012146
362,147101827,0.04003751,-0.78036517,-0.021739416,-0.6236625,9.978250503540039,-1.2011810541152954,-1.1828737258911133,-14.184723854064941,-67.7136459350586, -9.983963012695312
363,147118494,0.038217764,-0.78610235,-0.023103323,-0.6164811,10.180334091186523,-0.9082202911376953,-1.3469133377075195,-4.403826713562012,-65.73819732666016, -11.712693214416504
364,147135161,0.03715324,-0.79124576,-0.025437804,-0.60983837,9.914453506469727,-1.0277386903762817,-1.5138603448867798,3.8600971698760986,-60.45602798461914, -14.000258445739746
365,147151828,0.03689398,-0.79600763,-0.029144797,-0.60345775,9.711845397949219,-0.7993975281715393,-1.5759987831115723,14.044818878173828,-57.650203704833984, -18.232276916503906
366,147168495,0.036147654,-0.80081403,-0.033007704,-0.5969094,9.969080924987793,-0.303810715675354,-1.6754045486450195,12.044447898864746,-58.89979553222656, -21.060714721679688
367,147185162,0.03409366,-0.8058899,-0.035617024,-0.5900092,10.373942375183105,0.04202921688556671,-1.7928920984268188,-0.28675127029418945,-61.93913269042969, -19.37940788269043
368,147201829,0.031292032,-0.8110728,-0.036847264,-0.58294415,10.290403366088867,0.03447156026959419,-1.7780065536499023,-10.00905704498291,-63.15767288208008, -14.705793380737305
369,147218496,0.027279137,-0.8166271,-0.03700543,-0.5753321,9.98244571685791,0.05467570573091507,-1.7535314559936523,-20.999330520629883,-67.78558349609375, -13.371752738952637
370,147235163,0.021941343,-0.8225817,-0.036839835,-0.56702816,10.108382225036621,0.2621268332004547,-1.9281672239303589,-29.618579864501953,-73.5438461303711, -16.56399917602539
371,147251830,0.01586421,-0.82875806,-0.036897294,-0.5581643,10.291217803955078,0.17723146080970764,-2.407985210418701,-32.82115173339844,-77.80892181396484, -20.56755828857422
372,147268497,0.010435466,-0.83497316,-0.038137168,-0.54886854,10.530706405639648,0.0240812748670578,-2.6730308532714844,-24.48294448852539,-80.39403533935547, -24.761247634887695
373,147285164,0.0063120606,-0.8411052,-0.04113275,-0.5392686,10.61837100982666,0.10327064990997314,-2.5716676712036133,-10.277832984924316,-81.62242126464844, -29.91791343688965
374,147301831,0.0026580184,-0.8471549,-0.045531817,-0.52938485,10.888711929321289,-0.08088386803865433,-2.6905617713928223,-2.2764713764190674,-82.90147399902344, -36.307857513427734
375,147318498,-0.001529411,-0.8530505,-0.050351158,-0.5193914,11.19808292388916,0.16711564362049103,-2.660928726196289,-3.8156518936157227,-83.16962432861328, -40.749305725097656
376,147335165,-0.0064994893,-0.85905117,-0.054871667,-0.50889903,11.572339057922363,0.5621828436851501,-2.2237579822540283,-9.299522399902344,-86.76512145996094, -41.76485061645508
377,147351832,-0.012920194,-0.86564094,-0.05950301,-0.49694905,12.56042766571045,1.9311224222183228,-1.7086422443389893,-16.900901794433594,-98.00383758544922, -47.34214782714844
378,147368499,-0.020077163,-0.872581,-0.0664737,-0.48350883,15.054527282714844,2.6958706378936768,-0.5848820805549622,-12.638925552368164,-108.20010375976562, -63.76781463623047
379,147385166,-0.029937444,-0.8789609,-0.0735867,-0.47023037,17.978885650634766,1.9992728233337402,2.779339551925659,-28.519092559814453,-106.63900756835938, -73.8399429321289
380,147401833,-0.047102984,-0.884871,-0.07682869,-0.4570364,18.71992301940918,1.0394995212554932,5.7273759841918945,-85.3077163696289,-109.20000457763672, -74.2989730834961
381,147418500,-0.06637969,-0.8931282,-0.0771886,-0.43812978,16.971498489379883,-0.11439210176467896,5.94657039642334,-103.41759490966797,-153.50839233398438, -64.04331970214844
382,147435167,-0.08623405,-0.904442,-0.077430174,-0.4105521,14.459734916687012,-2.269747018814087,-0.5338292121887207,-101.32276916503906,-216.45848083496094, -67.44298553466797
383,147451834,-0.10290258,-0.91673696,-0.08221503,-0.37715393,14.477124214172363,-0.17270727455615997,-9.558591842651367,-65.01718139648438,-251.10769653320312, -89.69410705566406
384,147468501,-0.11948546,-0.9251534,-0.08979435,-0.34892952,17.532974243164062,0.008130848407745361,-10.615396499633789,-62.915245056152344,-206.39625549316406, -105.65326690673828
385,147485168,-0.13742049,-0.9275083,-0.09289015,-0.3349861,15.178589820861816,-3.0574393272399902,-1.0693354606628418,-96.08948516845703,-105.53307342529297, -72.41983032226562
386,147501835,-0.14906782,-0.9296718,-0.0913499,-0.32425958,7.97537899017334,-8.276043891906738,6.968110084533691,-68.92475891113281,-85.00875854492188, -25.516443252563477
387,147518502,-0.15388957,-0.9301118,-0.08996922,-0.32111663,7.876251220703125,-6.993400573730469,8.05319881439209,-31.51036834716797,-28.310487747192383, -4.690919399261475
388,147535169,-0.1565224,-0.9278862,-0.08743228,-0.32693082,7.403801918029785,-5.723787307739258,7.570958137512207,-28.452014923095703,34.91007614135742, 15.311151504516602
389,147551836,-0.1535304,-0.9238008,-0.08384087,-0.34057486,5.556907653808594,-5.325536251068115,5.88127326965332,-1.6616829633712769,91.22319030761719, 41.9463005065918
390,147568503,-0.14689438,-0.91684407,-0.08021292,-0.3624705,5.518571853637695,-3.5366010665893555,5.276556491851807,13.596098899841309,152.3814239501953, 57.738677978515625
391,147585170,-0.13851595,-0.9067813,-0.07638092,-0.39080322,6.743154525756836,-1.7980241775512695,4.336313724517822,17.38743019104004,201.4269256591797, 68.13721466064453
392,147601837,-0.1313625,-0.8931732,-0.069832206,-0.42439264,8.638716697692871,-0.56595778465271,3.0250401496887207,-3.6789042949676514,240.47230529785156, 84.91707611083984
393,147618504,-0.12486821,-0.87656546,-0.06041858,-0.4608586,9.737096786499023,0.12801913917064667,1.3922700881958008,-20.16330909729004,263.9613952636719, 101.72949981689453
394,147635171,-0.11791198,-0.8579788,-0.049529053,-0.49751002,11.51822280883789,1.3636094331741333,-0.6259562969207764,-23.824188232421875,270.24566650390625, 111.41057586669922
395,147651838,-0.11039005,-0.837395,-0.038171712,-0.53397256,13.50330638885498,2.745435953140259,-2.192906379699707,-23.628568649291992,275.7598876953125, 115.25941467285156
396,147668505,-0.10360991,-0.8155214,-0.024889426,-0.5688326,14.552536964416504,3.299020290374756,-3.152369499206543,-35.51264190673828,269.6020812988281, 122.05950164794922
397,147685172,-0.09755085,-0.7934373,-0.010145315,-0.600698,14.395950317382812,1.6866811513900757,-4.113293647766113,-44.900779724121094,252.46592712402344, 125.26314544677734
398,147701839,-0.08846504,-0.77057976,0.0030997475,-0.63116664,13.515873908996582,0.6277377605438232,-4.086378574371338,-22.618473052978516,249.2788543701172, 128.58843994140625
399,147718506,-0.076871306,-0.747232,0.016033072,-0.6599077,13.401448249816895,1.5472668409347534,-3.788083791732788,-8.314655303955078,242.4200897216797, 136.775634765625
400,147735173,-0.06436257,-0.7247438,0.030356223,-0.68533385,15.001545906066895,2.8191943168640137,-4.195846080780029,-9.832009315490723,220.68455505371094, 146.22926330566406
401,147751840,-0.05013739,-0.7031148,0.044372704,-0.7079174,15.763351440429688,3.0295469760894775,-4.882658958435059,-0.05116007477045059,202.29141235351562, 151.37782287597656
402,147768507,-0.033946037,-0.6816998,0.055294577,-0.7287494,15.341100692749023,3.3317337036132812,-6.615213394165039,24.051279067993164,193.3133087158203, 145.35630798339844
403,147785174,-0.016153844,-0.66009736,0.060950328,-0.748529,16.238313674926758,4.294631004333496,-8.616778373718262,57.499874114990234,190.03277587890625, 128.5758819580078
404,147801841,0.001585203,-0.63981515,0.0619932,-0.76602286,15.038274765014648,5.780195236206055,-10.866988182067871,80.19464874267578,173.51600646972656, 106.63407897949219
405,147818508,0.015588344,-0.6237811,0.0619084,-0.77898777,12.143745422363281,7.456951141357422,-13.311009407043457,67.72434997558594,132.9383544921875, 80.32428741455078
406,147835175,0.02377704,-0.61388195,0.06348072,-0.78648204,9.880640983581543,7.233854293823242,-15.674588203430176,30.926673889160156,79.44010162353516, 54.36497116088867
407,147851842,0.028396241,-0.6109733,0.062366176,-0.7886797,8.790027618408203,5.937864780426025,-16.33875846862793,26.94536018371582,20.59685516357422, 21.632116317749023
408,147868509,0.032447882,-0.6134031,0.056528144,-0.78707606,9.057042121887207,4.277790069580078,-13.972860336303711,47.51371383666992,-24.805072784423828, -2.7594501972198486
409,147885176,0.036894247,-0.6186448,0.047186535,-0.7833843,8.006068229675293,4.208454132080078,-10.86859130859375,66.70976257324219,-49.603267669677734, -15.975452423095703
410,147901843,0.038836848,-0.62250644,0.03772131,-0.7807397,12.689937591552734,3.718128204345703,1.8103437423706055,57.42147445678711,-36.81471252441406, -29.76090431213379
411,147918510,0.04811759,-0.62772846,0.023941921,-0.7765749,13.607439994812012,-1.9900412559509277,6.447622776031494,111.22967529296875,-53.682559967041016, -8.743277549743652
412,147935177,0.04254041,-0.6433343,0.011026714,-0.7643232,13.400519371032715,7.383594512939453,0.5534588098526001,37.720333099365234,-141.3540496826172, -83.40502166748047
413,147951844,0.029748483,-0.659953,0.011966361,-0.75062233,14.893194198608398,2.0608103275299072,-1.2254109382629395,-67.41410827636719,-148.48159790039062, -59.606849670410156
414,147968511,0.026607357,-0.6737441,0.015516157,-0.73832273,10.50452709197998,0.7080017328262329,-4.3279595375061035,-36.38471221923828,-127.76765441894531, 2.019975423812866
415,147985178,0.023337683,-0.6828444,0.017770858,-0.72997487,11.207618713378906,-1.3266347646713257,-0.6666957139968872,-29.11893081665039,-85.83248138427734, -4.850956439971924
416,148001845,0.019968739,-0.6916134,0.019429505,-0.72173053,9.389657974243164,0.08171965926885605,1.2018134593963623,-26.52622413635254,-83.77174377441406, -8.140527725219727
417,148018512,0.015563388,-0.7002988,0.021440828,-0.7133583,10.695268630981445,-0.3522571325302124,0.1907786875963211,-33.20694351196289,-83.80480194091797, -11.580901145935059
418,148035179,0.013565055,-0.70755327,0.0220067,-0.70618725,10.592486381530762,-1.6532151699066162,0.03229580074548721,-14.195786476135254,-71.52777862548828, -6.660093784332275
419,148051846,0.01502463,-0.7133377,0.020143472,-0.7003699,10.62436294555664,-2.3340225219726562,-0.1559567153453827,14.762649536132812,-58.570701599121094, -1.6135951280593872
420,148068513,0.017104607,-0.7177382,0.017334573,-0.69588727,9.887497901916504,-0.6002668738365173,0.7353991866111755,22.680660247802734,-45.55593490600586, -3.239345073699951
421,148085180,0.017028905,-0.7218877,0.016305033,-0.69160867,10.030157089233398,0.3600247800350189,0.7967748641967773,3.5849883556365967,-42.905757904052734, -4.776979446411133
422,148101847,0.015796695,-0.7263139,0.01642972,-0.6869854,10.267633438110352,-0.2876760959625244,0.5066491365432739,-7.716999530792236,-45.691341400146484, -4.537721157073975
423,148118514,0.014391922,-0.73066753,0.017025834,-0.68236953,10.194280624389648,-0.7818092703819275,0.1688397228717804,-10.793696403503418,-45.2623291015625, -2.9966959953308105
424,148135181,0.014068072,-0.73419106,0.016781306,-0.6785899,10.371369361877441,-0.6844991445541382,0.04201231896877289,-1.2405571937561035,-37.39457702636719, -2.144049882888794
425,148151848,0.014112961,-0.7376623,0.01568771,-0.6748402,10.17923641204834,-0.15013156831264496,0.03880997747182846,4.587225914001465,-37.140342712402344, -4.715168476104736
426,148168515,0.01328656,-0.7413683,0.015469971,-0.67078876,9.737166404724121,-0.19312842190265656,0.007157586514949799,-3.945927143096924,-39.59876251220703, -4.315507888793945
427,148185182,0.012238385,-0.7447985,0.015872285,-0.6669885,9.44867992401123,-0.6416019797325134,0.05259915441274643,-7.887342929840088,-36.981571197509766, -2.1747725009918213
428,148201849,0.01070078,-0.7483642,0.016207932,-0.66300374,9.56580924987793,-0.8359885215759277,-0.012475568801164627,-10.120353698730469,-38.51671600341797, -4.767485618591309
429,148218516,0.008966996,-0.7524798,0.015768971,-0.65836555,9.716221809387207,-1.4120845794677734,-0.2798207700252533,-7.715256214141846,-44.43704605102539, -9.669763565063477
430,148235183,0.007932908,-0.7571581,0.013517088,-0.6530435,9.618546485900879,-1.3225798606872559,-0.34555691480636597,3.999828338623047,-50.72394943237305, -15.915276527404785
431,148251850,0.007962147,-0.76232487,0.009723374,-0.6470727,9.627067565917969,-0.9909403324127197,-0.34438496828079224,16.366294860839844,-56.49059295654297, -19.19085693359375
432,148268517,0.008724234,-0.76797754,0.004834075,-0.6403992,9.477604866027832,-0.8949958086013794,-0.5427676439285278,25.003833770751953,-62.45860290527344, -21.676856994628906
433,148285184,0.0098671615,-0.7741317,-0.0010903802,-0.6329467,9.47095012664795,-0.8335877060890198,-0.7905629277229309,31.517375946044922,-68.86897277832031, -25.44577980041504
434,148301851,0.011196709,-0.780747,-0.007453944,-0.62470263,9.726785659790039,-0.6756324172019958,-1.0052855014801025,34.3939323425293,-75.12910461425781, -26.922775268554688
435,148318518,0.01246002,-0.78790337,-0.01330699,-0.6155292,9.831510543823242,-0.6301494240760803,-1.2192277908325195,31.84989356994629,-82.41741943359375, -24.374893188476562
436,148335185,0.013407307,-0.795564,-0.018398127,-0.6054419,9.93614673614502,-0.021993450820446014,-1.6266863346099854,26.945966720581055,-89.47704315185547, -21.46608543395996
437,148351852,0.0132593075,-0.8028506,-0.022235485,-0.59561807,10.242535591125488,0.4627833366394043,-1.5699681043624878,15.74376392364502,-86.51226043701172, -19.241731643676758
438,148368519,0.011251663,-0.8099647,-0.02459622,-0.5858547,10.229296684265137,0.48164090514183044,-1.2892680168151855,-0.5595373511314392,-85.63448333740234, -18.735979080200195
439,148385186,0.0075489157,-0.8172268,-0.02578949,-0.5756895,10.470466613769531,-0.12183267623186111,-1.5343692302703857,-14.647388458251953,-88.682861328125, -19.003482818603516
440,148401853,0.0032230853,-0.8243136,-0.026914584,-0.5654844,10.678773880004883,-0.5667575597763062,-2.0110421180725098,-18.39951515197754,-88.33870697021484, -21.120859146118164
441,148418520,-0.0008813464,-0.83095866,-0.029106727,-0.5555717,10.749184608459473,-0.29824984073638916,-2.1970083713531494,-13.044061660766602,-84.96361541748047, -26.40419578552246
442,148435187,-0.0046691187,-0.8374336,-0.03277846,-0.54553556,10.95760440826416,0.5192983746528625,-2.2377212047576904,-5.561053276062012,-84.96321105957031, -33.6895866394043
443,148451854,-0.008056463,-0.8436025,-0.037615567,-0.5355885,11.169188499450684,1.1128591299057007,-2.4235854148864746,1.086849570274353,-83.1956787109375, -38.96352767944336
444,148468521,-0.012161625,-0.8497946,-0.042556394,-0.5252527,11.762943267822266,1.1733043193817139,-2.142904758453369,-2.584994077682495,-85.73658752441406, -42.22209548950195
445,148485188,-0.016950577,-0.85651165,-0.048044153,-0.51360744,12.456985473632812,1.5073683261871338,-1.545500636100769,-4.171733856201172,-95.46666717529297, -47.84172439575195
446,148501855,-0.022333236,-0.8640898,-0.0558819,-0.49972746,14.563461303710938,1.3094507455825806,-0.8530521988868713,1.4795588254928589,-111.63101196289062, -63.753177642822266
447,148518522,-0.02800391,-0.872398,-0.06562585,-0.48356074,16.474458694458008,0.6379675269126892,0.9245955944061279,7.321993827819824,-127.6047134399414, -76.14551544189453
448,148535189,-0.036642775,-0.88092977,-0.07565519,-0.46572155,19.04722785949707,0.8043115735054016,4.327744960784912,-8.72806167602539,-139.7540740966797, -87.96333312988281
449,148551856,-0.051513482,-0.88872546,-0.08221806,-0.44805568,19.29500389099121,-0.572632372379303,6.211965084075928,-57.83540725708008,-140.5975341796875, -87.2874984741211
450,148568523,-0.06967227,-0.8974466,-0.08546923,-0.4271192,16.910480499267578,-1.290575623512268,5.977541923522949,-85.9423828125,-166.6248779296875, -77.87044525146484
451,148585190,-0.08830595,-0.90937597,-0.08955772,-0.39650586,13.305659294128418,-1.786500334739685,-2.97249436378479,-79.18933868408203,-235.80078125, -87.25426483154297
452,148601857,-0.107948385,-0.92148834,-0.09491524,-0.360829,14.061421394348145,0.6982976198196411,-11.39883041381836,-78.8314437866211,-267.8773193359375, -100.96917724609375
453,148618524,-0.12531154,-0.92693925,-0.09971274,-0.33932006,17.86562728881836,-1.0394408702850342,-7.350496768951416,-79.98686218261719,-160.45657348632812, -85.6161880493164
454,148635191,-0.14116743,-0.9278865,-0.09856442,-0.33073187,10.918303489685059,-4.667420864105225,3.4438295364379883,-97.01482391357422,-71.74165344238281, -36.22570037841797
455,148651858,-0.14845069,-0.92936194,-0.09505278,-0.32436705,6.637441635131836,-8.960352897644043,10.39583683013916,-48.722381591796875,-55.32379913330078, 0.7917933464050293
456,148668525,-0.14960727,-0.9283595,-0.09230059,-0.32748607,6.626454830169678,-6.4952497482299805,11.317956924438477,-16.65219497680664,15.484976768493652, 17.590795516967773
457,148685192,-0.14959753,-0.9244809,-0.08748559,-0.3395621,5.968732833862305,-5.982407569885254,7.926873683929443,-22.512611389160156,77.651611328125, 40.71757507324219
458,148701859,-0.1444592,-0.91757596,-0.0821361,-0.3611642,6.0974860191345215,-4.661819934844971,5.591227054595947,-0.02336091920733452,147.74038696289062, 64.0187759399414
459,148718526,-0.13298994,-0.9072033,-0.07791214,-0.39144057,7.5514631271362305,-2.856205463409424,4.897708892822266,34.36136245727539,215.73219299316406, 79.2714614868164
460,148735193,-0.119606845,-0.8930749,-0.07301754,-0.4275278,8.636635780334473,-0.7902448177337646,3.5862231254577637,37.95671844482422,262.4580383300781, 91.89266967773438
461,148751860,-0.11026661,-0.87533116,-0.065133,-0.466256,9.832324981689453,1.2422714233398438,1.8592525720596313,0.053746238350868225,284.7689208984375, 98.71268463134766
462,148768527,-0.103284284,-0.8552699,-0.053983368,-0.5049077,12.10031795501709,1.5354900360107422,-0.23782193660736084,-26.310382843017578,288.1671447753906, 109.69926452636719
463,148785194,-0.0946744,-0.83355707,-0.04260968,-0.54259026,14.56793212890625,2.0392251014709473,-2.5294320583343506,-18.308107376098633,288.6153564453125, 115.34963989257812
464,148801861,-0.08519484,-0.8110441,-0.03124611,-0.5779043,15.822705268859863,3.1889069080352783,-4.253674030303955,-13.10153579711914,278.2662353515625, 116.74805450439453
465,148818528,-0.07549639,-0.78820145,-0.019544508,-0.61045647,15.39491081237793,2.225196361541748,-5.006839275360107,-12.819738388061523,264.025146484375, 117.81925964355469
466,148835195,-0.06384944,-0.765269,-0.009264413,-0.6404693,14.26362133026123,0.6679186820983887,-5.3580217361450195,4.013722896575928,251.6667938232422, 116.96703338623047
467,148851862,-0.050859194,-0.7427797,-0.00026776572,-0.66760164,13.22443962097168,1.0742288827896118,-5.243171215057373,17.104961395263672,235.24876403808594, 114.89340209960938
468,148868529,-0.038481962,-0.7225389,0.011093552,-0.6901694,14.106179237365723,1.8192719221115112,-5.531750679016113,3.895369529724121,200.8346405029297, 122.57412719726562
469,148885196,-0.026697427,-0.70389193,0.024640268,-0.7093775,14.963515281677246,2.00706148147583,-6.861720561981201,-9.262860298156738,176.12167358398438, 129.62945556640625
470,148901863,-0.014820707,-0.6848515,0.03792334,-0.72754425,14.616086959838867,1.925308346748352,-7.668130874633789,-7.79289436340332,173.14419555664062, 128.70924377441406
471,148918530,0.00021309138,-0.66368604,0.047422487,-0.7465067,13.435200691223145,2.1290712356567383,-7.153120040893555,25.998109817504883,187.21836853027344, 127.36577606201172
472,148935197,0.016536899,-0.64207155,0.052388098,-0.76467407,12.447415351867676,3.0984408855438232,-7.350390434265137,54.901214599609375,185.5915069580078, 113.50264739990234
473,148951864,0.029379057,-0.62431425,0.054967158,-0.7786831,11.884483337402344,6.002135753631592,-8.903316497802734,50.15055465698242,148.05282592773438, 83.81175994873047
474,148968531,0.036227435,-0.6139713,0.059787083,-0.78622663,11.021442413330078,8.162110328674316,-11.69899845123291,8.484248161315918,83.46692657470703, 59.94374084472656
475,148985198,0.038187247,-0.6116211,0.06663864,-0.78741413,10.123981475830078,7.496817111968994,-14.720908164978027,-27.72068214416504,16.129091262817383, 40.518348693847656
476,149001865,0.037530202,-0.6152638,0.069988675,-0.78431106,9.331268310546875,5.3473124504089355,-14.63371753692627,-23.297353744506836,-33.864524841308594, 10.119672775268555
477,149018532,0.037285957,-0.62182367,0.06688893,-0.7794043,8.679377555847168,3.487731695175171,-11.47334098815918,11.627484321594238,-58.88703155517578, -15.792491912841797
478,149035199,0.03949353,-0.62898064,0.055816106,-0.7744086,9.673138618469238,4.4038519859313965,-5.477068901062012,64.65825653076172,-65.48665618896484, -36.93968200683594
479,149051866,0.047346674,-0.62988603,0.043459184,-0.7740242,16.56304931640625,-4.709899425506592,12.855324745178223,99.38236236572266,-14.691307067871094, -11.228652954101562
480,149068533,0.058870703,-0.64059794,0.016341977,-0.76544225,10.232477188110352,6.041884899139404,-1.2488435506820679,188.20643615722656,-108.41752624511719, -55.9305305480957
481,149085200,0.04455942,-0.6574064,0.008646541,-0.752168,16.229225158691406,6.019726276397705,0.37090641260147095,-30.81730842590332,-150.3685760498047, -105.06668090820312
482,149101867,0.04120547,-0.67092246,0.009007921,-0.7403271,10.928410530090332,0.5489863157272339,-3.6859939098358154,-21.855520248413086,-125.02045440673828, -12.137747764587402
483,149118534,0.03769697,-0.68155104,0.011058621,-0.7307154,12.053784370422363,1.608657717704773,-1.0596387386322021,-30.19171142578125,-99.503662109375, -5.576391696929932
484,149135201,0.033581298,-0.6898726,0.013543851,-0.72302485,9.606410026550293,-0.6327911615371704,-0.31086426973342896,-34.46906280517578,-78.7407455444336, -6.894786357879639
485,149151868,0.027905388,-0.69887877,0.016371895,-0.7145081,10.546666145324707,-0.8996214866638184,0.5481917858123779,-43.80526351928711,-85.84419250488281, -12.907730102539062
486,149168535,0.026071506,-0.70600307,0.016482238,-0.7075369,11.051310539245605,-1.3535795211791992,0.05166492611169815,-11.454039573669434,-70.14259338378906, -7.189934253692627
487,149185202,0.027743177,-0.7117666,0.014057794,-0.7017273,10.153368949890137,-1.948663353919983,0.40777140855789185,18.26598358154297,-58.74678421020508, -2.514688014984131
488,149201869,0.031324144,-0.71655166,0.009526835,-0.69676524,10.000170707702637,-1.4953588247299194,0.5652130246162415,38.039180755615234,-50.479461669921875, -3.706632614135742
489,149218536,0.03397883,-0.7211351,0.0051341634,-0.69194186,9.506317138671875,-0.6932544112205505,0.9437081813812256,32.86378479003906,-48.75711441040039, -7.501410961151123
490,149235203,0.03636078,-0.72571355,0.000922904,-0.6870351,9.986888885498047,-0.4165751338005066,0.5889731645584106,30.643756866455078,-49.1175422668457, -7.8920464515686035
491,149251870,0.038986083,-0.73047924,-0.0035244967,-0.6818122,10.152469635009766,-0.30965694785118103,0.4478338360786438,32.92626190185547,-51.659423828125, -7.85090970993042
492,149268537,0.04201619,-0.7352281,-0.008094513,-0.676468,10.060688972473145,-0.6251299977302551,0.18348973989486694,35.540523529052734,-52.230567932128906, -6.543727397918701
493,149285204,0.045818727,-0.73947483,-0.0141124185,-0.67147505,10.1731538772583,-0.3715255558490753,0.13379694521427155,46.30512619018555,-48.51131820678711, -10.409591674804688
494,149301871,0.04874714,-0.7438419,-0.019622155,-0.66628695,9.969797134399414,0.011648772284388542,0.2754828929901123,39.4951171875,-49.999629974365234, -11.795143127441406
495,149318538,0.050577227,-0.74829733,-0.022872811,-0.6610372,9.552508354187012,-0.31587550044059753,0.3131406307220459,23.50873565673828,-50.12862014770508, -5.242605209350586
496,149335205,0.05136911,-0.7529219,-0.024571458,-0.6556418,9.425111770629883,-0.8980671763420105,0.3323928117752075,11.076621055603027,-51.29003143310547, -1.904015302658081
497,149351872,0.050418247,-0.75816035,-0.025904913,-0.64959973,9.769708633422852,-0.6217023134231567,0.09042687714099884,0.3018684387207031,-57.592079162597656, -7.548727512359619
498,149368539,0.0478173,-0.7640074,-0.026803968,-0.64287466,10.098943710327148,-0.738224983215332,-0.2315126657485962,-10.334538459777832,-64.0344467163086, -12.315890312194824
499,149385206,0.04522437,-0.77015316,-0.02764198,-0.63565326,9.83436107635498,-0.7690914273262024,-0.327595055103302,-10.568493843078613,-67.9581069946289, -11.750154495239258
500,149401873,0.043147687,-0.7767285,-0.028891494,-0.6276916,9.75947093963623,-0.8481677770614624,-0.6517362594604492,-6.032921314239502,-73.8028564453125, -11.369867324829102
501,149418540,0.041235324,-0.783398,-0.031015623,-0.61937505,9.770188331604004,-0.8784329295158386,-0.9441221952438354,-1.3378311395645142,-76.3475112915039, -15.217597007751465
502,149435207,0.039562136,-0.7900449,-0.03401734,-0.6108249,9.749371528625488,-0.6578823328018188,-1.128077507019043,3.739583730697632,-77.72112274169922, -18.874311447143555
503,149451874,0.037660047,-0.7969459,-0.036975633,-0.60174066,9.884056091308594,-0.23052407801151276,-1.307077407836914,2.366166353225708,-81.7447738647461, -19.402536392211914
504,149468541,0.035430267,-0.8039547,-0.03923225,-0.5923365,10.079727172851562,-0.05497952550649643,-1.5766382217407227,-2.2753500938415527,-83.85922241210938, -16.807783126831055
505,149485208,0.032413043,-0.810866,-0.040620644,-0.58292013,10.274754524230957,0.09608463197946548,-1.8417326211929321,-10.138446807861328,-83.54545593261719, -15.240742683410645
506,149501875,0.028602937,-0.8173167,-0.041357454,-0.57399035,10.232283592224121,0.12479975819587708,-1.803772211074829,-17.203744888305664,-79.07656860351562, -15.024049758911133
507,149518542,0.023693897,-0.8237437,-0.04166683,-0.5649328,10.292202949523926,-0.04969475418329239,-1.8233885765075684,-25.020814895629883,-79.94656372070312, -16.94321060180664
508,149535209,0.017972961,-0.8302838,-0.041878477,-0.555475,10.414386749267578,-0.3182312846183777,-2.08915376663208,-29.902572631835938,-82.89005279541016, -19.45009994506836
509,149551876,0.012211973,-0.83678687,-0.04275879,-0.54572016,10.655739784240723,-0.4876791536808014,-2.3213095664978027,-27.48959732055664,-84.55731201171875, -23.40237808227539
510,149568543,0.0069967173,-0.843167,-0.045257706,-0.53569824,10.85562515258789,0.07177213579416275,-2.3654301166534424,-18.18979263305664,-85.62797546386719, -30.691884994506836
511,149585210,0.0026489445,-0.8494952,-0.049628533,-0.52525055,11.256888389587402,0.8586435317993164,-2.5058376789093018,-6.131303310394287,-87.74897766113281, -38.349666595458984
512,149601877,-0.0017213847,-0.85571045,-0.054356404,-0.51458937,11.775506019592285,1.370031714439392,-2.5083327293395996,-4.891831398010254,-88.62821960449219, -40.55142593383789
513,149618544,-0.006658107,-0.8620739,-0.059162553,-0.5032735,12.441789627075195,1.1675657033920288,-1.8819103240966797,-7.690577030181885,-93.2455825805664, -42.96571350097656
514,149635211,-0.012437319,-0.86938137,-0.06541192,-0.48963547,14.014649391174316,1.8547546863555908,-0.9985206127166748,-6.693917274475098,-110.59930419921875, -54.160362243652344
515,149651878,-0.018202417,-0.877394,-0.075038485,-0.47351614,16.521636962890625,1.0084826946258545,0.35835403203964233,5.955583572387695,-127.5781021118164, -74.19770812988281
516,149668545,-0.025467291,-0.88562894,-0.086210355,-0.45561007,19.138315200805664,1.1001743078231812,3.5293052196502686,2.9036529064178467,-139.76123046875, -88.52811431884766
517,149685212,-0.038761236,-0.8924046,-0.09569935,-0.43926474,20.880229949951172,-0.022868897765874863,6.844642639160156,-40.23659896850586,-129.70281982421875, -97.78658294677734
518,149701879,-0.05614522,-0.9010793,-0.10076926,-0.41803068,17.573898315429688,-1.484506607055664,7.402684688568115,-74.9394760131836,-169.5100555419922, -83.13377380371094
519,149718546,-0.07606054,-0.91261816,-0.10394677,-0.3879926,14.184853553771973,-2.594243049621582,-0.261496365070343,-88.85609436035156,-234.97738647460938, -80.1839370727539
520,149735213,-0.099931635,-0.9245121,-0.10794056,-0.35162526,13.133448600769043,0.30151522159576416,-11.556385040283203,-106.8294448852539,-278.15850830078125, -99.01225280761719
521,149751880,-0.12166036,-0.92966294,-0.11234531,-0.3290962,19.450061798095703,-1.693103313446045,-9.617022514343262,-107.12950897216797,-171.94566345214844, -91.986572265625
522,149768547,-0.13872144,-0.92994404,-0.110935174,-0.32195356,12.52119255065918,-4.323958873748779,4.103942394256592,-106.45294952392578,-63.89018630981445, -35.22676086425781
523,149785214,-0.14691012,-0.9313273,-0.10636571,-0.31580627,6.831614017486572,-11.046570777893066,11.798457145690918,-56.45695877075195,-56.32416915893555, 6.31404972076416
524,149801881,-0.14543504,-0.930462,-0.10443434,-0.31966016,6.876438617706299,-7.914278030395508,12.373191833496094,1.4934359788894653,22.20783042907715, 18.77359390258789
525,149818548,-0.14263181,-0.9265893,-0.09967198,-0.33339787,6.214919567108154,-6.508692264556885,9.938026428222656,-6.367499828338623,90.0473861694336, 47.463321685791016
526,149835215,-0.13426611,-0.9197007,-0.09322677,-0.35697675,5.898520469665527,-4.92746114730835,7.74393892288208,15.48596477508545,161.7316436767578, 78.47260284423828
527,149851882,-0.1217988,-0.9089148,-0.087455034,-0.3890899,7.362502574920654,-1.997418999671936,6.192266464233398,33.999691009521484,228.4592742919922, 89.63298034667969
528,149868549,-0.11064197,-0.89367735,-0.08027707,-0.4273817,9.316720962524414,0.3031740188598633,4.456820011138916,14.61510944366455,276.9630432128906, 97.40015411376953
529,149885216,-0.102047995,-0.8748073,-0.06946746,-0.46847942,10.574612617492676,1.8744702339172363,2.342531442642212,-16.09514045715332,300.6480407714844, 112.30015563964844
530,149901883,-0.09398169,-0.85331374,-0.05592215,-0.5098001,12.870447158813477,1.905533790588379,0.2756289839744568,-30.005250930786133,308.22271728515625, 125.94741821289062
531,149918550,-0.08445594,-0.82959807,-0.042875808,-0.5502691,15.608722686767578,2.534836530685425,-1.9616857767105103,-20.779539108276367,311.86041259765625, 126.7116470336914
532,149935217,-0.07462015,-0.80492616,-0.029906988,-0.58790445,16.983301162719727,4.23896598815918,-3.5010862350463867,-18.42818832397461,299.4154052734375, 125.5021743774414
533,149951884,-0.06591645,-0.78010255,-0.015152812,-0.6219852,16.440509796142578,3.7409088611602783,-3.9261651039123535,-31.24746322631836,279.2003173828125, 128.96112060546875
534,149968551,-0.05704842,-0.7550566,0.00022225585,-0.65317297,14.9511137008667,2.401948928833008,-4.770109176635742,-32.808170318603516,264.3965148925781, 131.67034912109375
535,149985218,-0.048759352,-0.73153603,0.016074253,-0.67986727,14.135513305664062,3.047692060470581,-6.083707332611084,-37.38017272949219,234.07847595214844, 129.78155517578125
536,150001885,-0.04123518,-0.71022147,0.03333385,-0.70197886,15.994420051574707,4.111305236816406,-7.087026596069336,-47.59550476074219,200.4127655029297, 131.5204315185547
537,150018552,-0.03239107,-0.6897439,0.050277967,-0.72157925,16.254833221435547,4.394430637359619,-7.671046733856201,-39.96453857421875,184.02003479003906, 135.48870849609375
538,150035219,-0.022839807,-0.67010653,0.0646216,-0.7390939,14.837322235107422,4.531806945800781,-8.705002784729004,-24.26046371459961,170.43531799316406, 125.96642303466797
539,150051886,-0.011165091,-0.6507919,0.073330656,-0.7556244,13.533064842224121,4.309818744659424,-9.53421401977539,13.777213096618652,164.36544799804688, 110.57965087890625
540,150068553,0.0010476913,-0.63310087,0.07630167,-0.770299,11.710359573364258,4.869008541107178,-11.424345016479492,45.19257354736328,147.9664306640625, 86.8305892944336
541,150085220,0.01068315,-0.6198851,0.07586332,-0.78094393,10.349630355834961,6.535802364349365,-14.084246635437012,49.88547134399414,108.24581909179688, 56.12135314941406
542,150101887,0.016769834,-0.61333185,0.07486957,-0.7860902,9.662214279174805,7.0946526527404785,-14.895772933959961,34.397274017333984,51.078529357910156, 31.75032615661621
543,150118554,0.020611001,-0.61438835,0.07184059,-0.7854563,8.511396408081055,6.160581111907959,-14.146686553955078,32.090877532958984,-13.262109756469727, 7.905503273010254
544,150135221,0.02295295,-0.6206702,0.06643328,-0.78091526,8.013876914978027,4.375936031341553,-12.174408912658691,35.94708251953125,-57.3596305847168, -12.1605863571167
545,150151888,0.02489186,-0.6286151,0.0574196,-0.77519476,9.597115516662598,3.8253822326660156,-6.373802661895752,52.80318069458008,-71.52019500732422, -30.215702056884766
546,150168555,0.03384127,-0.63020897,0.043062426,-0.77449167,18.282608032226562,-4.300426959991455,9.99306583404541,114.66070556640625,-19.555727005004883, -14.236493110656738
547,150185222,0.040721137,-0.64410216,0.017534751,-0.7636538,12.626630783081055,6.928274154663086,-1.454603672027588,159.3291778564453,-131.05255126953125, -74.9912109375
548,150201889,0.02820403,-0.6621831,0.010968738,-0.74873084,15.6304292678833,2.867006540298462,-0.4901198744773865,-27.808032989501953,-163.43138122558594, -92.12019348144531
549,150218556,0.028222919,-0.67614615,0.009531845,-0.73616534,9.629242897033691,0.12756606936454773,-4.261751174926758,3.851571798324585,-131.40728759765625, -4.327247619628906
550,150235223,0.026182083,-0.6857516,0.008278748,-0.7273177,11.878005027770996,2.1889703273773193,-0.037296682596206665,-5.551979064941406,-91.83098602294922, -14.334267616271973
551,150251890,0.022711394,-0.6939296,0.009019246,-0.7196283,9.671452522277832,1.3973047733306885,0.6304917931556702,-21.935461044311523,-78.7882080078125, -12.185420036315918
552,150268557,0.016227959,-0.7033931,0.012492282,-0.7105064,10.857159614562988,0.3209362328052521,0.4639361500740051,-50.10749053955078,-91.38613891601562, -13.895417213439941
553,150285224,0.012999318,-0.71123224,0.014620365,-0.7026849,10.642617225646973,-0.7998982667922974,0.26164689660072327,-27.495943069458008,-77.6050033569336, -4.504638671875
554,150301891,0.011876248,-0.7185964,0.014772668,-0.69516927,10.387547492980957,-1.9923157691955566,0.051465265452861786,-7.583378791809082,-74.21577453613281, -3.9896790981292725
555,150318558,0.013185207,-0.7248783,0.011909412,-0.6886479,10.28003215789795,-1.5032552480697632,-0.021750040352344513,19.037109375,-64.63534545898438, -7.26736307144165
556,150335225,0.014860542,-0.73038685,0.00816372,-0.6828235,9.8305025100708,-0.5979633331298828,0.49785783886909485,25.16242218017578,-57.62131881713867, -9.955836296081543
557,150351892,0.016838172,-0.735523,0.0040010684,-0.67727894,9.7975492477417,-1.030418872833252,0.376793771982193,28.689208984375,-54.54693603515625, -10.651865005493164
558,150368559,0.01956912,-0.7407274,-0.0007836675,-0.67152035,9.7677583694458,-0.7101621031761169,0.24454550445079803,35.3831901550293,-56.05851745605469, -10.28562068939209
559,150385226,0.02212607,-0.7463591,-0.0053730463,-0.66515404,10.073952674865723,-0.17041566967964172,-0.007988952100276947,33.53676223754883,-61.11979293823242, -10.024409294128418
560,150401893,0.024453636,-0.7523425,-0.010021812,-0.65824205,10.416108131408691,0.11376329511404037,-0.06008976697921753,32.6016731262207,-65.56265258789062, -11.289196014404297
561,150418560,0.026076315,-0.758777,-0.013986687,-0.65067816,9.930269241333008,-0.02612149529159069,-0.1507774293422699,25.82921600341797,-70.92869567871094, -10.80427360534668
562,150435227,0.027446736,-0.7650678,-0.016599081,-0.6431506,9.56371021270752,-0.5756846070289612,-0.45530959963798523,18.48745346069336,-69.89607238769531, -4.902246475219727
563,150451894,0.028800834,-0.7709394,-0.01880869,-0.63597906,9.69009017944336,-0.5271531343460083,-0.3713277578353882,16.65314292907715,-66.1111068725586, -2.9813926219940186
564,150468561,0.02855419,-0.7768204,-0.02074326,-0.6287327,9.991607666015625,-0.2619529068470001,-0.3555092215538025,6.976140975952148,-66.72217559814453, -8.517436027526855
565,150485228,0.026740195,-0.78255445,-0.022239398,-0.6216103,9.874938011169434,-0.48840659856796265,-0.4892505705356598,-3.278796911239624,-65.58267211914062, -13.003026962280273
566,150501895,0.02466455,-0.78817624,-0.023792285,-0.6144948,9.662517547607422,-0.8397757411003113,-0.7446325421333313,-4.426661491394043,-65.13910675048828, -14.453961372375488
567,150518562,0.022858113,-0.7938918,-0.026182689,-0.6070652,9.954092025756836,-0.7349916100502014,-1.1788872480392456,0.6029908657073975,-67.35518646240234, -17.799772262573242
568,150535229,0.021382041,-0.799328,-0.02949411,-0.59978974,10.061650276184082,-0.24019022285938263,-1.3448938131332397,6.262852191925049,-65.44987487792969, -21.534610748291016
569,150551896,0.019864582,-0.8045492,-0.0329043,-0.59264106,9.808589935302734,-0.15916317701339722,-1.3302642107009888,6.44705867767334,-63.905670166015625, -22.31627655029297
570,150568563,0.017741462,-0.8100802,-0.0361012,-0.5849379,9.825690269470215,-0.07269134372472763,-1.6029402017593384,2.312901258468628,-68.36097717285156, -23.46478843688965
571,150585230,0.015283845,-0.8157701,-0.039108388,-0.57685024,10.189157485961914,0.15403567254543304,-2.0264339447021484,-0.23950907588005066,-71.21778106689453, -23.67201805114746
572,150601897,0.012515998,-0.82125103,-0.04167526,-0.56890565,10.297289848327637,0.43844449520111084,-2.0361061096191406,-3.738538980484009,-69.6377944946289, -22.508508682250977
573,150618564,0.008739762,-0.82680637,-0.043553304,-0.5607299,10.193774223327637,0.29776665568351746,-1.7717722654342651,-12.067859649658203,-71.48235321044922, -22.522764205932617
574,150635231,0.0036170462,-0.8328316,-0.04505371,-0.5516783,10.345221519470215,0.033273302018642426,-1.8572250604629517,-20.940595626831055,-78.6748275756836, -25.379032135009766
575,150651898,-0.0023326643,-0.83913904,-0.04683569,-0.54189205,10.681341171264648,0.08148704469203949,-2.1245813369750977,-24.38920021057129,-84.23956298828125, -30.030681610107422
576,150668565,-0.008117061,-0.8455468,-0.05012711,-0.5314813,11.060558319091797,0.8467281460762024,-2.121424674987793,-17.606760025024414,-88.16390228271484, -38.1119270324707
577,150685232,-0.013332368,-0.8521439,-0.054713678,-0.52026904,11.303760528564453,1.1087332963943481,-2.269733428955078,-9.273490905761719,-93.27721405029297, -43.54438781738281
578,150701899,-0.018853838,-0.85869795,-0.059878152,-0.5086228,12.047419548034668,0.8705822825431824,-2.40498423576355,-8.832426071166992,-95.76036834716797, -48.08424758911133
579,150718566,-0.024274683,-0.86518997,-0.06615176,-0.49646878,12.752191543579102,1.1228491067886353,-1.9757674932479858,-4.151644706726074,-98.39460754394531, -54.3802604675293
580,150735233,-0.029901708,-0.8721675,-0.0751396,-0.48247698,14.526535034179688,1.604148268699646,-1.3128491640090942,4.8125810623168945,-110.67691040039062, -71.32491302490234
581,150751900,-0.03492517,-0.8795792,-0.08573318,-0.46665922,16.51027488708496,0.8608271479606628,-0.13563548028469086,14.809110641479492,-122.49795532226562, -79.1131820678711
582,150768567,-0.041192517,-0.88706565,-0.09665747,-0.44952816,18.98025894165039,1.02308988571167,2.9196300506591797,9.154523849487305,-131.4393768310547, -85.39960479736328
583,150785234,-0.05425414,-0.89260715,-0.104100175,-0.4352843,20.146686553955078,-0.15892276167869568,6.442578315734863,-45.491329193115234,-113.47516632080078, -85.67514038085938
584,150801901,-0.07195137,-0.8995137,-0.10866968,-0.41700038,16.832351684570312,-2.2877719402313232,6.757596015930176,-79.12249755859375,-146.9554901123047, -82.51482391357422
585,150818568,-0.0900425,-0.91014767,-0.11289513,-0.3883019,13.205314636230469,-2.045377016067505,-1.7511255741119385,-72.92208862304688,-222.72300720214844, -83.98454284667969
586,150835235,-0.115510926,-0.9201758,-0.116652474,-0.355424,14.751136779785156,1.3141342401504517,-10.787093162536621,-117.5127944946289,-253.3702392578125, -103.90812683105469
587,150851902,-0.13651581,-0.9230967,-0.11921924,-0.3391799,19.738086700439453,-3.1888840198516846,-7.262567520141602,-111.1744155883789,-128.0790557861328, -78.00315856933594
588,150868569,-0.15053417,-0.92465925,-0.116975196,-0.32963887,9.774202346801758,-3.717317819595337,5.799378395080566,-84.88359069824219,-81.24772644042969, -26.111106872558594
589,150885236,-0.15715115,-0.9266668,-0.113448456,-0.322059,5.493839263916016,-8.416714668273926,10.064979553222656,-41.87418746948242,-65.26721954345703, 1.1259644031524658
590,150901903,-0.15653954,-0.92654467,-0.11148875,-0.32338947,7.782233715057373,-6.389678955078125,9.98354721069336,-1.6527502536773682,3.4457106590270996, 15.041099548339844
591,150918570,-0.15354155,-0.92413217,-0.10658337,-0.33323404,7.617125511169434,-4.995780944824219,8.264866828918457,-2.0206027030944824,61.30984115600586, 46.45610809326172
592,150935237,-0.14616601,-0.9189307,-0.09988414,-0.35245636,6.315471649169922,-4.876925945281982,6.662418365478516,11.846776008605957,128.49794006347656, 75.6906509399414
593,150951904,-0.13382572,-0.91020685,-0.09421304,-0.38044485,7.098435401916504,-3.099102020263672,5.406305313110352,36.12715530395508,196.7963409423828, 87.58651733398438
594,150968571,-0.12145616,-0.8972387,-0.08852573,-0.41518024,8.840638160705566,-1.0289673805236816,4.381483554840088,27.98881721496582,250.068359375, 91.20690155029297
595,150985238,-0.111285016,-0.880762,-0.08014944,-0.45326614,10.244352340698242,0.5421164035797119,2.5331194400787354,1.8003901243209839,277.1080322265625, 102.15983581542969
596,151001905,-0.10196486,-0.8619165,-0.06892679,-0.4918866,11.782938003540039,1.3209342956542969,0.2590145468711853,-14.322004318237305,285.01983642578125, 115.83441925048828
597,151018572,-0.09131752,-0.8409042,-0.057442885,-0.5303226,14.201873779296875,2.305952548980713,-1.557441234588623,-8.742240905761719,291.6656494140625, 120.6922836303711
598,151035239,-0.07983521,-0.8185343,-0.045661703,-0.5670478,15.689153671264648,3.426267147064209,-3.0851376056671143,-5.1574835777282715,286.83343505859375, 123.83720397949219
599,151051906,-0.068293445,-0.7958791,-0.03290757,-0.6006911,15.803784370422363,2.496408224105835,-3.8935513496398926,-7.823608875274658,270.0654296875, 127.77842712402344
600,151068573,-0.05503357,-0.77301306,-0.020987768,-0.63165015,14.848185539245605,0.9732411503791809,-4.465117931365967,5.560826301574707,257.0445556640625, 129.00210571289062
601,151085240,-0.041019753,-0.7507755,-0.00940789,-0.65921545,14.189602851867676,1.2568835020065308,-5.436995983123779,11.742025375366211,236.5463409423828, 129.2792205810547
602,151101907,-0.027147748,-0.72997546,0.0029882966,-0.6829276,15.161850929260254,1.8953324556350708,-6.066976547241211,7.940693378448486,209.96409606933594, 131.86907958984375
603,151118574,-0.013872005,-0.7105031,0.016514571,-0.7033638,15.53842544555664,2.070333242416382,-7.050197124481201,-0.18655934929847717,187.18167114257812, 134.12908935546875
604,151135241,-0.0015327617,-0.69129014,0.030401466,-0.7219361,14.767724990844727,2.0775601863861084,-8.39498519897461,-6.712970733642578,177.02279663085938, 131.19029235839844
605,151151908,0.0133664245,-0.67067224,0.041025136,-0.74049795,13.806663513183594,2.6466867923736572,-8.762240409851074,21.623146057128906,183.6131134033203, 128.73277282714844
606,151168575,0.029493064,-0.65036196,0.047161903,-0.7575853,12.781763076782227,4.042675971984863,-9.791707992553711,49.689144134521484,174.65805053710938, 114.41442108154297
607,151185242,0.042832535,-0.63360554,0.050600145,-0.7708109,12.273499488830566,6.231369972229004,-11.455244064331055,49.31760787963867,139.4138946533203, 87.55777740478516
608,151201909,0.051060494,-0.6232969,0.05522269,-0.77836037,10.574355125427246,7.830231666564941,-14.083152770996094,16.911495208740234,82.8520736694336, 65.18431091308594
609,151218576,0.05539747,-0.6203033,0.05889351,-0.7801839,9.289372444152832,7.34544038772583,-15.464964866638184,0.6114370822906494,20.5642032623291, 39.663761138916016
610,151235243,0.05737412,-0.62326294,0.057115205,-0.77781075,8.433465957641602,6.72110652923584,-14.67424201965332,15.834750175476074,-30.123064041137695, 3.0886929035186768
611,151251910,0.0582029,-0.63011354,0.049915537,-0.77270806,8.075613021850586,6.255710124969482,-12.367982864379883,37.329833984375,-64.07315063476562, -26.609655380249023
612,151268577,0.059364066,-0.6335441,0.040509347,-0.7703616,15.951512336730957,1.8220646381378174,4.755976676940918,52.83258819580078,-34.757179260253906, -34.22350311279297
613,151285244,0.074613646,-0.6397204,0.018263426,-0.76475954,12.805749893188477,-0.22691169381141663,3.1545772552490234,180.20370483398438,-72.67273712158203, -14.91468334197998
614,151301911,0.065579586,-0.6574926,0.0036988666,-0.7505926,14.795148849487305,8.820838928222656,1.1283905506134033,25.969385147094727,-164.34487915039062, -105.87454223632812
615,151318578,0.054175198,-0.67516804,0.0041538244,-0.7356605,13.896491050720215,-0.768330454826355,-3.908735752105713,-62.20726013183594,-160.45448303222656, -49.708919525146484
616,151335245,0.053784315,-0.6878978,0.0029653022,-0.72380614,11.24636459350586,1.2625755071640015,-3.4270944595336914,-0.820379376411438,-121.99420166015625, -2.6377980709075928
617,151351912,0.05263872,-0.6964391,0.001635279,-0.715681,10.117875099182129,-0.9895871877670288,-0.716248095035553,-2.050680160522461,-83.48933410644531, -8.338817596435547
618,151368579,0.049191,-0.7054617,0.0009837435,-0.7070384,9.956572532653809,0.9666515588760376,1.3706425428390503,-16.58270835876465,-88.05702209472656, -16.251436233520508
619,151385246,0.044967312,-0.7144197,0.0013923068,-0.6982699,11.500895500183105,0.3821350336074829,0.14357157051563263,-25.469377517700195,-88.01596069335938, -14.826810836791992
620,151401913,0.042528108,-0.72214377,0.0019493,-0.69043195,10.564496994018555,-1.410271406173706,0.18123957514762878,-17.02178382873535,-77.50360870361328, -5.803326606750488
621,151418580,0.04242076,-0.7283533,0.0010640351,-0.68388677,10.193622589111328,-1.8364784717559814,0.11796651780605316,1.8628449440002441,-64.36431121826172, -2.2757210731506348
622,151435247,0.04233409,-0.73324984,-0.00049405126,-0.6786401,9.993390083312988,-0.03536272794008255,0.7573145031929016,5.520979404449463,-51.89748001098633, -5.945981979370117
623,151451914,0.0399315,-0.7380958,0.00006918496,-0.6735135,10.591974258422852,0.427171915769577,0.5453278422355652,-16.035184860229492,-50.473655700683594, -6.096369743347168
624,151468581,0.0370467,-0.74298054,0.0015069444,-0.6682855,10.654834747314453,-0.5317103862762451,0.1841234266757965,-22.539997100830078,-50.95328903198242, -3.8594915866851807
625,151485248,0.03482462,-0.74720174,0.0031051023,-0.66367716,10.238505363464355,-1.2162644863128662,-0.03959450498223305,-19.714963912963867,-44.72782897949219, -0.15556004643440247
626,151501915,0.033825908,-0.7503672,0.0036996105,-0.6601451,10.128251075744629,-1.1969847679138184,-0.0204303115606308,-8.577513694763184,-34.666866302490234, 0.016398604959249496
627,151518582,0.033029247,-0.7534437,0.0029078207,-0.6566762,10.026412010192871,-0.37724149227142334,0.03147588297724724,-1.2262513637542725,-34.28508377075195, -6.249409198760986
628,151535249,0.03135673,-0.75687474,0.0027448102,-0.652802,9.63156509399414,-0.3840331733226776,0.08744633197784424,-8.691679000854492,-37.84549331665039, -6.868582248687744
629,151551916,0.028964393,-0.7606458,0.0036985292,-0.6485103,9.17542552947998,-0.883664071559906,0.07915124297142029,-17.53112030029297,-41.3127326965332, -4.211897373199463
630,151568583,0.02592581,-0.76476693,0.004443383,-0.64377016,9.430567741394043,-1.24130380153656,-0.10913392156362534,-20.063617706298828,-45.266456604003906, -8.119925498962402
631,151585250,0.022415137,-0.7693368,0.003892374,-0.6384382,9.741497039794922,-1.4928475618362427,-0.3261229991912842,-16.913469314575195,-50.60228729248047, -16.950632095336914
632,151601917,0.019557405,-0.7746119,0.0016383353,-0.63213253,9.464066505432129,-1.4378138780593872,-0.4389084279537201,-6.126428127288818,-59.14686965942383, -22.983705520629883
633,151618584,0.018201178,-0.7805703,-0.0023687782,-0.62479883,9.44426441192627,-1.1813019514083862,-0.6380995512008667,9.383854866027832,-67.86270141601562, -25.685714721679688
634,151635251,0.017833343,-0.78700584,-0.008136792,-0.61663425,9.574506759643555,-0.9965956807136536,-0.8250247836112976,22.199108123779297,-74.5926513671875, -30.795896530151367
635,151651918,0.018122673,-0.79397434,-0.015087656,-0.60749406,9.561308860778809,-0.976046621799469,-1.1411257982254028,30.75416374206543,-82.25559997558594, -34.27598571777344
636,151668585,0.019026207,-0.80156976,-0.02249558,-0.59717524,9.587717056274414,-0.5359947085380554,-1.4697762727737427,36.062705993652344,-91.31534576416016, -34.00985336303711
637,151685252,0.019986257,-0.8095368,-0.029317388,-0.5859961,9.962301254272461,-0.2629799544811249,-1.7190258502960205,34.04409408569336,-97.51049041748047, -30.385562896728516
638,151701919,0.020189995,-0.81736827,-0.034802224,-0.5747092,10.415637016296387,0.15722253918647766,-1.7082302570343018,24.489892959594727,-97.54643249511719, -26.0105037689209
639,151718586,0.018917507,-0.82461137,-0.038896862,-0.5640438,10.359745025634766,0.38500940799713135,-1.6064881086349487,10.637816429138184,-91.908935546875, -24.26064682006836
640,151735253,0.01604241,-0.83131284,-0.042127986,-0.5539741,10.634126663208008,0.19445151090621948,-1.723323106765747,-1.8815377950668335,-86.77348327636719, -25.803197860717773
641,151751920,0.012230581,-0.83713984,-0.045349255,-0.5449687,10.842310905456543,-0.13389115035533905,-2.091536521911621,-7.483945846557617,-77.65757751464844, -29.689617156982422
642,151768587,0.008127186,-0.843006,-0.04928353,-0.5355802,10.981987953186035,0.4531133472919464,-2.085319995880127,-6.369948863983154,-80.18806457519531, -34.85340118408203
643,151785254,0.0041479664,-0.8490891,-0.05413476,-0.5254523,11.329524993896484,1.0414645671844482,-2.070256471633911,-2.031367778778076,-85.31376647949219, -39.599769592285156
644,151801921,-0.00008002906,-0.8552523,-0.059541244,-0.51478016,12.134039878845215,1.2678567171096802,-2.0150225162506104,-1.2673089504241943,-88.92717742919922, -43.694026947021484
645,151818588,-0.004925959,-0.8614778,-0.06571998,-0.5035006,13.018889427185059,1.5237752199172974,-1.5413135290145874,-1.9072481393814087,-93.01730346679688, -50.396705627441406
646,151835255,-0.010681333,-0.86810976,-0.07440625,-0.49064797,15.11948013305664,2.0478296279907227,-0.49242308735847473,2.1361582279205322,-104.13050079345703, -68.2722396850586
647,151851922,-0.017488588,-0.87453073,-0.084649354,-0.47720554,18.037439346313477,1.157480239868164,2.2261884212493896,1.4237279891967773,-107.45709991455078, -81.26732635498047
648,151868589,-0.02885721,-0.8807481,-0.093922675,-0.46328068,18.56340980529785,0.7505813837051392,4.798705577850342,-28.904726028442383,-112.61878967285156, -90.60455322265625
649,151885256,-0.04313171,-0.88899386,-0.10122379,-0.44450352,19.09328269958496,0.02191445231437683,7.348968029022217,-49.214942932128906,-150.93199157714844, -87.62232971191406
650,151901923,-0.060300443,-0.89944273,-0.10563261,-0.41977215,15.675753593444824,-2.3625354766845703,5.052662372589111,-70.92700958251953,-197.17823791503906, -79.09839630126953
651,151918590,-0.07236801,-0.91075087,-0.119675614,-0.38855338,13.34942626953125,-1.895622968673706,-5.9796295166015625,-52.92115020751953,-244.539794921875, -90.11720275878906
652,151935257,-0.091298096,-0.9207588,-0.12829544,-0.35694307,16.15667724609375,0.7705870270729065,-12.800651550292969,-64.41749572753906,-239.639892578125, -111.82299041748047
653,151951924,-0.10692171,-0.92438054,-0.13295543,-0.34119162,16.220474243164062,-2.1294095516204834,-4.693987846374512,-71.22309112548828,-123.0988998413086, -74.36946868896484
654,151968591,-0.1199553,-0.9264643,-0.13093998,-0.33185768,10.267601013183594,-6.642576694488525,10.339131355285645,-77.46149444580078,-81.34159851074219, -22.65906524658203
655,151985258,-0.120548375,-0.9279003,-0.12999745,-0.327979,4.6386847496032715,-8.559966087341309,10.814630508422852,-1.265541434288025,-33.213233947753906, 2.708380699157715
656,152001925,-0.12297299,-0.9260909,-0.12874162,-0.33265463,7.394314765930176,-4.2975687980651855,9.66100025177002,-24.053890228271484,26.660066604614258, 4.684449672698975
657,152018592,-0.12367174,-0.92187846,-0.12347144,-0.34583327,6.878796100616455,-5.0527801513671875,7.554806709289551,-31.815975189208984,84.2969970703125, 39.18406677246094
658,152035259,-0.11716786,-0.91536003,-0.116809696,-0.3670743,6.13921594619751,-4.829692840576172,6.196238040924072,1.6885511875152588,145.7102508544922, 69.96630096435547
659,152051926,-0.10737842,-0.90537274,-0.11132118,-0.39544633,7.343562602996826,-3.155940294265747,4.622416019439697,16.771461486816406,202.85008239746094, 73.79168701171875
660,152068593,-0.098034516,-0.89177424,-0.10450673,-0.4291933,9.197623252868652,-0.8399937748908997,3.3738064765930176,3.598898410797119,244.74053955078125, 82.00190734863281
661,152085260,-0.08959301,-0.87522906,-0.0943679,-0.46587777,10.319713592529297,0.5051310658454895,1.7279514074325562,-15.833803176879883,268.4900817871094, 99.5538330078125
662,152101927,-0.08116991,-0.8565125,-0.08206652,-0.5030537,12.002180099487305,1.0413024425506592,0.04542046785354614,-24.525440216064453,276.9990539550781, 111.37701416015625
663,152118594,-0.07221784,-0.8359238,-0.06945695,-0.539622,14.2423734664917,2.257476568222046,-1.6828770637512207,-23.164810180664062,279.97772216796875, 113.59258270263672
664,152135261,-0.06384064,-0.81452346,-0.05525609,-0.5739538,15.327359199523926,2.8831260204315186,-3.2634594440460205,-31.702131271362305,269.03717041015625, 119.08753204345703
665,152151928,-0.055133503,-0.79303133,-0.040503643,-0.6053275,15.493889808654785,1.3485047817230225,-4.427525520324707,-30.953264236450195,252.7130889892578, 122.13685607910156
666,152168595,-0.04360439,-0.7713934,-0.027928581,-0.6342483,14.310699462890625,0.639862596988678,-4.9289398193359375,-5.88281774520874,241.5903778076172, 121.02165222167969
667,152185262,-0.03121397,-0.75073284,-0.015773008,-0.6596795,13.504853248596191,1.755057692527771,-4.9134907722473145,1.4648905992507935,219.1691131591797, 121.68606567382812
668,152201929,-0.019522421,-0.73127306,-0.0010609546,-0.6818048,14.647265434265137,2.5267598628997803,-4.91886568069458,-13.155593872070312,196.11314392089844, 131.1524658203125
669,152218596,-0.009243179,-0.71213794,0.015934581,-0.7017981,14.945724487304688,2.333582878112793,-5.658993244171143,-30.92325210571289,183.6605987548828, 135.75982666015625
670,152235263,0.0019499087,-0.69288623,0.031551506,-0.72035366,14.37741756439209,2.1172690391540527,-6.21181058883667,-19.98250389099121,177.30784606933594, 133.37657165527344
671,152251930,0.016437441,-0.67290395,0.042463385,-0.7383273,14.022529602050781,2.4005043506622314,-6.366872787475586,18.90485954284668,177.5328826904297, 127.50405883789062
672,152268597,0.032187212,-0.6534016,0.048880186,-0.75474584,13.374850273132324,4.04124116897583,-8.1336088180542,47.04090881347656,167.18624877929688, 113.23101043701172
673,152285264,0.045857515,-0.63608366,0.052167643,-0.7684879,12.466596603393555,6.174813270568848,-10.514979362487793,52.588253021240234,144.02040100097656, 88.36681365966797
674,152301931,0.05561854,-0.6243499,0.054903805,-0.7772257,10.718391418457031,7.703724384307861,-13.04587459564209,34.839847564697266,94.09780883789062, 65.02497863769531
675,152318598,0.060643148,-0.62065035,0.056517206,-0.77969337,9.466078758239746,7.653379917144775,-15.00704288482666,15.10507583618164,25.88473129272461, 34.440650939941406
676,152335265,0.06230442,-0.62351716,0.05509767,-0.7773733,9.064631462097168,5.744483947753906,-13.903239250183105,12.444941520690918,-29.395835876464844, 3.0825183391571045
677,152351932,0.06361811,-0.6296152,0.049352188,-0.77272385,8.018294334411621,4.408107757568359,-11.272764205932617,31.841716766357422,-58.09309005737305, -17.416616439819336
678,152368599,0.06591739,-0.6362209,0.038036764,-0.7677444,9.526680946350098,4.858056545257568,-4.923807621002197,65.39686584472656,-64.76675415039062, -36.22266387939453
679,152385266,0.0740064,-0.6382131,0.024789711,-0.7658936,17.693294525146484,-3.8306961059570312,11.0910005569458,103.84717559814453,-29.0001163482666, -14.220559120178223
680,152401933,0.07976473,-0.65154356,0.00086361053,-0.7544058,11.879293441772461,7.68471097946167,-1.706191897392273,142.45115661621094,-136.17221069335938, -70.4232177734375
681,152418600,0.063884616,-0.6706048,-0.003988829,-0.73904836,16.504817962646484,2.6198244094848633,-0.734312891960144,-56.58094787597656,-172.58045959472656, -94.98355865478516
682,152435267,0.06330004,-0.6848586,-0.005503313,-0.72590077,10.525969505310059,-1.6440593004226685,-5.34188175201416,-0.9278165102005005,-136.01966857910156, -2.903773307800293
