PacketCounter,SampleTimeFine,Quat_W,Quat_X,Quat_Y,Quat_Z,Acc_X,Acc_Y,Acc_Z,Gyr_X,Gyr_Y,Gyr_Z 
1,95715778,0.64925784,0.25137842,-0.6951076,0.1791609,0,0,0,0,0, 0
2,95732445,0.64991695,0.25156417,-0.694895,0.17732552,9.713312149047852,0.8678029775619507,-0.9088999629020691,-7.507762908935547,-3.4033520221710205, -0.42186686396598816
3,95749112,0.6502583,0.25169954,-0.6949708,0.17557657,9.694988250732422,0.7540877461433411,-0.9774428606033325,-5.632605075836182,-3.0380380153656006, -0.8876082897186279
4,95765779,0.6500062,0.25160837,-0.6954913,0.17457755,9.709685325622559,0.5993664860725403,-0.9904562830924988,-3.854557991027832,-3.090517997741699, -1.3208212852478027
5,95782446,0.6494424,0.2511587,-0.6962532,0.17428583,9.752618789672852,0.491405189037323,-0.9804670810699463,-2.010929822921753,-3.2324633598327637, -1.763792872428894
6,95799113,0.64875335,0.2507387,-0.69695175,0.17466474,9.79287052154541,0.7020074725151062,-0.9419881105422974,-0.42826998233795166,-3.087495803833008, -2.1500070095062256
7,95815780,0.64829737,0.25042436,-0.69746894,0.17474338,9.793731689453125,0.7495871782302856,-1.0116654634475708,-2.23555326461792,-2.9815869331359863, -2.408169984817505
8,95832447,0.6479356,0.25018004,-0.69795495,0.17449483,9.750646591186523,0.7894754409790039,-0.9646002650260925,-4.451808452606201,-3.098471164703369, -2.4435415267944336
9,95849114,0.64772797,0.24976794,-0.6984504,0.17387179,9.722746849060059,0.7893022894859314,-0.9873918294906616,-6.659111022949219,-3.264108657836914, -2.0893561840057373
10,95865781,0.64753515,0.24932174,-0.6989593,0.17318463,9.707280158996582,0.8204399347305298,-0.9763556122779846,-7.096947193145752,-3.486644744873047, -1.3538235425949097
11,95882448,0.64726835,0.2490679,-0.6994402,0.17260431,9.700572967529297,0.8262264132499695,-0.9823105335235596,-6.615518569946289,-4.056565761566162, -0.9708496332168579
12,95899115,0.647105,0.24865676,-0.69995326,0.17172776,9.787555694580078,0.7494925856590271,-0.8854833245277405,-7.4756317138671875,-4.045207500457764, -1.3103846311569214
13,95915782,0.6469426,0.24840581,-0.70039237,0.17091049,9.758288383483887,0.6097849011421204,-0.9442261457443237,-7.52306604385376,-4.393462657928467, -1.8558835983276367
14,95932449,0.6467905,0.24789028,-0.7009546,0.16992703,9.723088264465332,0.7074260711669922,-0.9731718301773071,-9.602614402770996,-5.004083156585693, -1.5703152418136597
15,95949116,0.64660835,0.24718218,-0.7016814,0.16864742,9.71221923828125,0.9564870595932007,-1.0355957746505737,-11.411834716796875,-6.134744644165039, -1.725246787071228
16,95965783,0.64651555,0.24654432,-0.70234436,0.16717118,9.678363800048828,0.8060449957847595,-1.0459727048873901,-12.8924560546875,-5.79782247543335, -2.4989047050476074
17,95982450,0.6464395,0.24603133,-0.70294434,0.16569248,9.701701164245605,0.6174570918083191,-1.0840647220611572,-11.675747871398926,-5.451243877410889, -3.222348690032959
18,95999117,0.64619136,0.24604915,-0.70341796,0.16462071,9.716578483581543,0.5824835896492004,-1.0879234075546265,-7.709783554077148,-5.600013732910156, -4.2013421058654785
19,96015784,0.64588124,0.24633533,-0.7037945,0.16379827,9.783939361572266,0.7504080533981323,-0.9922744035720825,-4.668389320373535,-5.251654624938965, -4.8098225593566895
20,96032451,0.6454794,0.24681084,-0.7041873,0.16297624,9.863699913024902,0.915805459022522,-0.9852458834648132,-4.057961940765381,-6.134537696838379, -5.529014587402344
21,96049118,0.64508736,0.24715097,-0.70468444,0.16186087,9.829750061035156,0.9105819463729858,-0.9962171912193298,-5.768584251403809,-6.985263824462891, -5.849084854125977
22,96065785,0.6445746,0.24724722,-0.7054822,0.16027299,9.790214538574219,1.0205920934677124,-0.7283163070678711,-8.740071296691895,-9.483006477355957, -6.03476619720459
23,96082452,0.64398843,0.24719344,-0.7064586,0.15840048,9.685951232910156,1.060563564300537,-0.8716455698013306,-10.866198539733887,-11.317403793334961, -5.963858604431152
24,96099119,0.6432361,0.24736193,-0.70745325,0.1567464,9.572966575622559,0.48207002878189087,-1.1729947328567505,-9.069912910461426,-12.281492233276367, -5.600349426269531
25,96115786,0.64210933,0.24866235,-0.7080676,0.1565347,9.656853675842285,0.2614479064941406,-1.4571523666381836,4.318080425262451,-11.01807975769043, -5.36362361907959
26,96132453,0.64083683,0.25087568,-0.70827305,0.15728635,9.692103385925293,0.8266689777374268,-1.4806056022644043,13.113300323486328,-9.010045051574707, -6.491174221038818
27,96149120,0.6398307,0.25284508,-0.70838726,0.15771337,9.653119087219238,1.1856859922409058,-1.3833640813827515,10.896629333496094,-7.2902374267578125, -7.248207092285156
28,96165787,0.63917,0.25415477,-0.7086071,0.15729994,9.765822410583496,1.2512234449386597,-1.1839736700057983,2.902873992919922,-6.73840856552124, -7.611854076385498
29,96182454,0.63871986,0.25495636,-0.7089555,0.15625754,9.823973655700684,0.9097756743431091,-1.2900288105010986,-2.1864287853240967,-6.811302661895752, -7.749124526977539
30,96199121,0.6381428,0.25612324,-0.7091677,0.15574335,9.770240783691406,0.6529862880706787,-1.482337236404419,1.977819800376892,-6.3362250328063965, -7.270295143127441
31,96215788,0.63751376,0.25761476,-0.7092167,0.15563583,9.638998031616211,0.9840865731239319,-1.5293173789978027,5.732988357543945,-5.394253730773926, -7.469242095947266
32,96232455,0.6370436,0.258859,-0.70928717,0.15517473,9.633139610290527,1.1610995531082153,-1.4570426940917969,3.2405898571014404,-4.898289203643799, -7.994635105133057
33,96249122,0.6367371,0.25984263,-0.70936555,0.15442857,9.606521606445312,1.2059345245361328,-1.4581913948059082,0.21686916053295135,-4.3372297286987305, -7.993008613586426
34,96265789,0.6364424,0.26078534,-0.70943254,0.15374543,9.634140014648438,1.1110351085662842,-1.4624191522598267,0.4714850187301636,-4.021732330322266, -7.461658954620361
35,96282456,0.6360542,0.2618523,-0.7094626,0.15339936,9.63726806640625,1.1758897304534912,-1.4285411834716797,2.6971137523651123,-3.836859703063965, -6.493102550506592
36,96299123,0.6356073,0.2629973,-0.7094583,0.15331286,9.70084285736084,1.2035393714904785,-1.474794864654541,4.235182762145996,-3.6105079650878906, -5.651443958282471
37,96315790,0.63519186,0.26403603,-0.70945394,0.15326959,9.652104377746582,1.216482162475586,-1.5116119384765625,4.550103664398193,-3.179305076599121, -5.019412040710449
38,96332457,0.6348121,0.26499844,-0.709439,0.15325075,9.610081672668457,1.262679934501648,-1.504541277885437,4.2066874504089355,-2.8215208053588867, -4.539966583251953
39,96349124,0.6344483,0.2658719,-0.7094513,0.15318699,9.53358268737793,1.3214362859725952,-1.5080528259277344,3.649266004562378,-2.8230836391448975, -4.231948375701904
40,96365791,0.63409805,0.26660222,-0.7095185,0.15305646,9.546220779418945,1.383460521697998,-1.4569249153137207,2.2991435527801514,-2.991666078567505, -3.625234842300415
41,96382458,0.63378936,0.2671138,-0.7096749,0.1527181,9.615836143493652,1.3531110286712646,-1.3943703174591064,0.3442731201648712,-3.314347743988037, -3.2973921298980713
42,96399125,0.6334704,0.26752272,-0.7098888,0.15233117,9.652718544006348,1.2181280851364136,-1.5306382179260254,-0.4090476930141449,-3.6305618286132812, -2.8364148139953613
43,96415792,0.63316643,0.26789546,-0.71009487,0.15197982,9.659124374389648,1.2151308059692383,-1.5263314247131348,-0.30648157000541687,-3.3988051414489746, -2.5486814975738525
44,96432459,0.6328725,0.26825958,-0.7102886,0.15165502,9.661230087280273,1.258684754371643,-1.5148472785949707,-0.11319533735513687,-3.2225260734558105, -2.442171096801758
45,96449126,0.6325936,0.26850334,-0.71052784,0.15126644,9.602570533752441,1.3313920497894287,-1.4879088401794434,-0.6507291793823242,-3.2960093021392822, -2.113394021987915
46,96465793,0.63225085,0.2687422,-0.71080655,0.1509655,9.603789329528809,1.3018172979354858,-1.5230966806411743,-0.5666170120239258,-3.675359010696411, -1.4785444736480713
47,96482460,0.6318844,0.26899445,-0.71106887,0.15081584,9.633418083190918,1.2698445320129395,-1.509240984916687,-0.13262255489826202,-3.51157808303833, -0.8100272417068481
48,96499127,0.6315345,0.26911634,-0.71137923,0.15059985,9.637442588806152,1.3215677738189697,-1.5019437074661255,-0.5771181583404541,-3.5677595138549805, -0.47015953063964844
49,96515794,0.6312081,0.2691334,-0.7117256,0.15030064,9.609130859375,1.2709003686904907,-1.538129448890686,-1.9490752220153809,-3.7224342823028564, -0.19196717441082
50,96532461,0.6309145,0.2690684,-0.7120829,0.14995727,9.614167213439941,1.3052101135253906,-1.5700616836547852,-2.2527904510498047,-3.5689756870269775, -0.04711455851793289
51,96549128,0.6306217,0.268968,-0.712454,0.14960568,9.618959426879883,1.2704746723175049,-1.5870563983917236,-2.700551986694336,-3.6345832347869873, 0.16272391378879547
52,96565795,0.6303415,0.26879078,-0.71283567,0.14928694,9.607060432434082,1.273158073425293,-1.6494252681732178,-2.290005683898926,-3.397409200668335, 0.5873439908027649
53,96582462,0.63004386,0.2686611,-0.7131888,0.14908995,9.622553825378418,1.2846852540969849,-1.6039094924926758,-2.2117209434509277,-3.2731497287750244, 0.9783861041069031
54,96599129,0.6297818,0.26847062,-0.7135336,0.14889008,9.619589805603027,1.3051278591156006,-1.608931303024292,-2.5293819904327393,-3.0032553672790527, 1.2127164602279663
55,96615796,0.6295685,0.26818392,-0.71388227,0.14863752,9.622156143188477,1.2480946779251099,-1.6724107265472412,-3.068632125854492,-2.7505226135253906, 1.3824902772903442
56,96632463,0.6293461,0.2679368,-0.71420103,0.1484938,9.637489318847656,1.1942412853240967,-1.6422176361083984,-2.492321014404297,-2.5190091133117676, 1.6395010948181152
57,96649130,0.6291298,0.26772338,-0.7144884,0.1484129,9.629223823547363,1.190613865852356,-1.6608916521072388,-1.7483868598937988,-2.2341699600219727, 1.624632716178894
58,96665797,0.6289245,0.26750633,-0.7147514,0.14840792,9.625873565673828,1.2285979986190796,-1.658265471458435,-1.5211765766143799,-1.9454127550125122, 1.927182912826538
59,96682464,0.6287489,0.26722834,-0.71501553,0.14838023,9.641240119934082,1.2629119157791138,-1.666463851928711,-1.8984259366989136,-1.7740379571914673, 2.0885426998138428
60,96699131,0.6286183,0.26686284,-0.71529114,0.14826247,9.600883483886719,1.2470932006835938,-1.6505141258239746,-2.7259469032287598,-1.6642749309539795, 2.090796709060669
61,96715798,0.6285006,0.2665066,-0.71553427,0.14822987,9.599992752075195,1.1845201253890991,-1.7044978141784668,-2.3236868381500244,-1.3217946290969849, 2.3539931774139404
62,96732465,0.62837434,0.26621285,-0.71573144,0.14834198,9.616056442260742,1.2408791780471802,-1.6774647235870361,-1.6478569507598877,-1.0027499198913574, 2.6529440879821777
63,96749132,0.628288,0.26585993,-0.71591824,0.1484387,9.590153694152832,1.2935858964920044,-1.6520357131958008,-2.2373976707458496,-0.7513870000839233, 2.8533637523651123
64,96765799,0.6282666,0.2653758,-0.7161172,0.14843524,9.607665061950684,1.1596087217330933,-1.6687406301498413,-3.083641290664673,-0.4898557960987091, 2.9732825756073
65,96782466,0.62825954,0.2648824,-0.7163143,0.14839533,9.682700157165527,1.0255616903305054,-1.6717389822006226,-3.1264400482177734,-0.4417422413825989, 2.8016388416290283
66,96799133,0.6282492,0.2644764,-0.7164615,0.14845303,9.683650970458984,1.038858413696289,-1.6370705366134644,-2.3225595951080322,-0.16652096807956696, 2.698457717895508
67,96815800,0.62825906,0.26400682,-0.71663547,0.14840713,9.627425193786621,1.1069883108139038,-1.6497185230255127,-3.197937488555908,-0.3142549693584442, 2.5765798091888428
68,96832467,0.62830335,0.26347235,-0.71682066,0.14827551,9.65944766998291,1.073729395866394,-1.7172342538833618,-3.715608835220337,-0.2519393265247345, 2.4582877159118652
69,96849134,0.62839967,0.2629649,-0.716932,0.14822881,9.654013633728027,1.1294560432434082,-1.6953097581863403,-3.528508186340332,0.4170580208301544, 2.547471284866333
70,96865801,0.628509,0.26240885,-0.7170475,0.14819355,9.61944580078125,1.155726671218872,-1.7090204954147339,-3.558629035949707,0.5553154349327087, 2.799794912338257
71,96882468,0.628643,0.26183236,-0.71714675,0.14816427,9.584555625915527,1.0921579599380493,-1.68661367893219,-3.5952553749084473,0.7911059260368347, 2.8623411655426025
72,96899135,0.62875164,0.26133528,-0.71720594,0.14829364,9.60418701171875,1.0412899255752563,-1.7055201530456543,-2.391099691390991,1.0475019216537476, 3.1053926944732666
73,96915802,0.6288603,0.26092198,-0.7172114,0.1485345,9.5881929397583,1.0501245260238647,-1.6999096870422363,-1.3714193105697632,1.4067840576171875, 3.059558868408203
74,96932469,0.6289676,0.26058805,-0.71716046,0.14891212,9.587024688720703,1.0217682123184204,-1.7020652294158936,-0.5275192260742188,1.7876960039138794, 3.188493013381958
75,96949136,0.6290683,0.26034352,-0.7170561,0.14941517,9.617192268371582,0.9960805773735046,-1.699289321899414,0.012069986201822758,2.065286874771118, 3.279789924621582
76,96965803,0.6292227,0.26006296,-0.7169197,0.14990783,9.626974105834961,1.031389832496643,-1.706671953201294,0.28967317938804626,2.5568196773529053, 3.194537401199341
77,96982470,0.6294633,0.2597166,-0.71673197,0.15039459,9.62944507598877,1.0144381523132324,-1.7068884372711182,-0.23568812012672424,3.2568538188934326, 3.323638916015625
78,96999137,0.6297764,0.25935563,-0.7164986,0.15081741,9.631155967712402,1.0050365924835205,-1.703107237815857,-0.5379692912101746,3.7386674880981445, 2.9270262718200684
79,97015804,0.63010925,0.25904456,-0.7162117,0.1513251,9.655482292175293,1.019012451171875,-1.602451205253601,-0.006966655608266592,4.161686420440674, 2.9456593990325928
80,97032471,0.6304645,0.25870833,-0.71591324,0.15183184,9.64220142364502,1.0288363695144653,-1.6260069608688354,-0.061022259294986725,4.355664253234863, 3.000623941421509
81,97049138,0.63083255,0.25835055,-0.7155979,0.15239754,9.634716987609863,0.9847540259361267,-1.6125242710113525,0.25708112120628357,4.635956764221191, 3.2943761348724365
82,97065805,0.6312128,0.25801852,-0.71525615,0.15298924,9.635360717773438,0.9576013684272766,-1.6227842569351196,0.284025639295578,4.808688640594482, 3.2499637603759766
83,97082472,0.6316206,0.25770736,-0.7148776,0.15359855,9.636774063110352,0.9834256768226624,-1.5817112922668457,0.48462438583374023,5.122188091278076, 3.115330696105957
84,97099139,0.6320566,0.25737163,-0.71448314,0.15420228,9.65389347076416,0.9790338277816772,-1.586052656173706,0.3596855700016022,5.352561950683594, 3.142300605773926
85,97115806,0.6325143,0.25704968,-0.714059,0.15482596,9.623496055603027,0.9758459329605103,-1.5764888525009155,0.49726423621177673,5.610622406005859, 3.083238124847412
86,97132473,0.63301396,0.25675154,-0.71358085,0.15548185,9.635628700256348,0.8529409170150757,-1.5720618963241577,0.837234377861023,6.097840309143066, 2.948028326034546
87,97149140,0.63353306,0.25656164,-0.7130168,0.15626626,9.625144004821777,0.8624434471130371,-1.5549662113189697,2.04022479057312,6.687867641448975, 2.782391309738159
88,97165807,0.6341103,0.2564425,-0.7123608,0.15710993,9.653478622436523,0.94871586561203,-1.5637768507003784,2.6006438732147217,7.404255390167236, 2.463308095932007
89,97182474,0.63476634,0.25623977,-0.7116732,0.15790603,9.658235549926758,1.0325340032577515,-1.4427050352096558,1.8186365365982056,7.9333367347717285, 2.5319631099700928
90,97199141,0.6355416,0.2557724,-0.7110372,0.1584101,9.64333438873291,0.99668288230896,-1.4849483966827393,-0.8548752665519714,8.080378532409668, 2.492980718612671
91,97215808,0.6363637,0.25526282,-0.71036977,0.15892446,9.67086410522461,0.8637599349021912,-1.4794676303863525,-1.3157246112823486,8.4884672164917, 2.6801581382751465
92,97232475,0.63724196,0.25482756,-0.709603,0.15952851,9.691739082336426,0.7577173113822937,-1.5112839937210083,-0.28772032260894775,9.303796768188477, 2.4283599853515625
93,97249142,0.6381463,0.25459525,-0.7086879,0.1603501,9.699932098388672,0.798981785774231,-1.4943190813064575,1.4519140720367432,10.217721939086914, 2.130023241043091
94,97265809,0.6391223,0.2543908,-0.707681,0.16123198,9.712716102600098,0.8202421069145203,-1.4891912937164307,2.2728142738342285,11.096124649047852, 1.9474049806594849
95,97282476,0.6402002,0.25422525,-0.706575,0.1620654,9.746129035949707,0.804695725440979,-1.412886619567871,2.139500379562378,11.911558151245117, 1.2484725713729858
96,97299143,0.6413492,0.25417262,-0.7053381,0.16298991,9.876148223876953,0.7413836121559143,-1.2897883653640747,3.040415048599243,12.867502212524414, 0.7898386120796204
97,97315810,0.6425648,0.2540225,-0.7041073,0.16375697,9.777828216552734,0.9501147270202637,-1.173819661140442,1.703853726387024,12.995244026184082, 0.4888762831687927
98,97332477,0.6437783,0.25362295,-0.70303375,0.16422205,9.773161888122559,1.0689222812652588,-0.9963844418525696,-0.9840660095214844,12.041399002075195, 0.6361621022224426
99,97349144,0.6450207,0.2526662,-0.7022548,0.1641535,9.719710350036621,0.9584515690803528,-0.9961010813713074,-6.064026832580566,10.591079711914062, 1.4191553592681885
100,97365811,0.6461242,0.25161037,-0.70166475,0.16395912,9.724255561828613,0.8302419185638428,-0.9629687666893005,-7.446767330169678,8.928763389587402, 1.8691195249557495
101,97382478,0.6470893,0.2505674,-0.70120966,0.16369678,9.700089454650879,0.8214178085327148,-0.9582217335700989,-7.164681434631348,7.559097766876221, 1.8379998207092285
102,97399145,0.6478677,0.24979994,-0.70076126,0.16371118,9.720625877380371,0.8357502818107605,-0.8780560493469238,-4.925374507904053,6.725955486297607, 2.022578001022339
103,97415812,0.6485272,0.2489625,-0.7004946,0.1635167,9.649075508117676,0.8913086652755737,-0.9017731547355652,-6.1197710037231445,5.0589375495910645, 1.857439637184143
104,97432479,0.6490318,0.24814521,-0.7003464,0.16339165,9.618252754211426,0.7879078388214111,-0.9691641330718994,-5.543485164642334,3.8719680309295654, 2.444021463394165
105,97449146,0.6494763,0.24742639,-0.70020044,0.16334076,9.667105674743652,0.7764762043952942,-0.996646523475647,-5.0058488845825195,3.552936315536499, 2.3978803157806396
106,97465813,0.64990115,0.24680033,-0.7000296,0.16332975,9.727075576782227,0.7807551622390747,-1.0014197826385498,-4.158619403839111,3.5472378730773926, 2.084214448928833
107,97482480,0.65028876,0.24621965,-0.6998843,0.16328682,9.711019515991211,0.7101772427558899,-0.9789444804191589,-4.033014297485352,3.1512651443481445, 1.795725703239441
108,97499147,0.65066904,0.24570553,-0.69972575,0.1632254,9.707592964172363,0.7176700830459595,-1.0068867206573486,-3.763543128967285,3.0701498985290527, 1.362666130065918
109,97515814,0.6510576,0.24521352,-0.69955826,0.16313477,9.736681938171387,0.7220481038093567,-1.019945740699768,-4.09197473526001,3.052489757537842, 1.1148887872695923
110,97532481,0.6515054,0.24464147,-0.6993824,0.16295873,9.738960266113281,0.7995689511299133,-0.9549242854118347,-4.914680480957031,3.327493667602539, 1.0209414958953857
111,97549148,0.6520081,0.24393758,-0.69924253,0.16260314,9.730530738830566,0.7881629467010498,-0.9928035736083984,-6.337453365325928,3.287153482437134, 0.832713782787323
112,97565815,0.6525391,0.24318977,-0.6991183,0.16212672,9.740985870361328,0.6754742860794067,-0.9422901272773743,-6.8741936683654785,3.228116273880005, 0.4625462293624878
113,97582482,0.65301716,0.24266899,-0.6989307,0.16179153,9.774027824401855,0.6019569635391235,-0.9384334683418274,-5.748182773590088,3.176161050796509, 0.010610063560307026
114,97599149,0.6533848,0.24241373,-0.698696,0.16170333,9.773978233337402,0.5854686498641968,-0.9102726578712463,-2.9891042709350586,2.985076904296875, -0.1460692137479782
115,97615816,0.6536664,0.24235329,-0.698427,0.161818,9.746536254882812,0.6827888488769531,-0.9453691244125366,-0.735737681388855,2.8644540309906006, -0.17041411995887756
116,97632483,0.65387046,0.2424561,-0.69813293,0.16210787,9.777052879333496,0.7723738551139832,-0.9236847758293152,0.45542579889297485,2.6714749336242676, -0.09480540454387665
117,97649150,0.6541275,0.2424941,-0.6978225,0.16235103,9.767099380493164,0.7953203320503235,-0.915077269077301,0.25910452008247375,3.0250332355499268, -0.11413019150495529
118,97665817,0.6543692,0.24259834,-0.69748914,0.16265357,9.753556251525879,0.7768174409866333,-0.9280154705047607,0.007344441954046488,3.0067968368530273, -0.1283196359872818
119,97682484,0.6546282,0.24265471,-0.69715655,0.16295223,9.745621681213379,0.7969621419906616,-0.9126006960868835,0.6097550988197327,3.207318067550659, -0.005224990658462048
120,97699151,0.654874,0.24275452,-0.6968107,0.16329478,9.713788032531738,0.7700769901275635,-0.8590320944786072,0.6376217603683472,3.1910669803619385, 0.009086104109883308
121,97715818,0.655083,0.24286173,-0.6965103,0.16357875,9.716557502746582,0.7721319198608398,-0.8337623476982117,0.5528053045272827,2.7161436080932617, -0.19195440411567688
122,97732485,0.65525514,0.24296081,-0.6962632,0.16379322,9.733816146850586,0.8122491836547852,-0.8296831250190735,0.3649873733520508,2.2094476222991943, -0.36542922258377075
123,97749152,0.65540814,0.24297063,-0.69610983,0.16381858,9.744043350219727,0.7902225255966187,-0.830108642578125,-0.8176470994949341,1.4876818656921387, -0.6154860258102417
124,97765819,0.65553766,0.24299996,-0.6959698,0.1638524,9.7620210647583,0.7898224592208862,-0.8596866130828857,-0.9806718230247498,1.2769277095794678, -0.6021033525466919
125,97782486,0.65565807,0.2430199,-0.69584674,0.16386308,9.771053314208984,0.8008232712745667,-0.8742121458053589,-1.1748161315917969,1.1291037797927856, -0.6346314549446106
126,97799153,0.6557656,0.24300423,-0.6957447,0.16388959,9.735251426696777,0.7754207253456116,-0.830186128616333,-1.341939091682434,1.031288981437683, -0.3356928825378418
127,97815820,0.655813,0.24301983,-0.6957037,0.16385074,9.702582359313965,0.7427360415458679,-0.8530166745185852,-1.5859256982803345,0.31029146909713745, -0.6022186875343323
128,97832487,0.65581226,0.24311656,-0.6956673,0.16386463,9.754712104797363,0.7155956625938416,-0.8945313096046448,-0.9548541307449341,0.05198737606406212, -0.695973813533783
129,97849154,0.6557565,0.24320121,-0.69570774,0.16379108,9.719551086425781,0.8087368607521057,-0.8049132823944092,-0.9851157665252686,-0.6510236263275146, -0.87875896692276
130,97865821,0.65574694,0.24323973,-0.69576156,0.16354366,9.801365852355957,0.8197572231292725,-0.8029264211654663,-2.6932778358459473,-0.7825960516929626, -1.4330177307128906
131,97882488,0.65577406,0.24316253,-0.69585574,0.16314831,9.809442520141602,0.747651219367981,-0.8087193369865417,-3.495365858078003,-0.8653508424758911, -1.5589299201965332
132,97899155,0.6559173,0.2427182,-0.6960148,0.16255406,9.737235069274902,0.8111569881439209,-0.8291195034980774,-6.247617244720459,-0.5177223682403564, -0.7342137694358826
133,97915822,0.65598184,0.24236923,-0.696189,0.16206814,9.714892387390137,0.9994415640830994,-0.8544877767562866,-6.131526947021484,-0.9686083197593689, -0.5336534380912781
134,97932489,0.65607,0.24233577,-0.69620526,0.16169138,9.686697959899902,1.0098694562911987,-0.8058775067329407,-3.621917486190796,-0.27472177147865295, -1.8660643100738525
135,97949156,0.6560439,0.2422872,-0.6963424,0.16127774,9.718685150146484,0.8993238210678101,-0.8900079727172852,-3.927976608276367,-1.4281642436981201, -1.6056090593338013
136,97965823,0.65595603,0.24211068,-0.69656676,0.16093151,9.726436614990234,1.0325263738632202,-0.8621307015419006,-3.9564452171325684,-1.8410025835037231, -0.4930572807788849
137,97982490,0.65582824,0.24162515,-0.69696707,0.16044807,9.677489280700684,1.072879433631897,-0.9358868598937988,-6.582079887390137,-2.7516496181488037, 0.7485120296478271
138,97999157,0.65571046,0.24071099,-0.69758654,0.15960987,9.629197120666504,0.9670519828796387,-0.9199286103248596,-10.270453453063965,-3.7838680744171143, 1.551918625831604
139,98015824,0.6555377,0.23949382,-0.69845515,0.15834588,9.5703706741333,0.7151996493339539,-0.7524197697639465,-14.022989273071289,-5.546011447906494, 1.560858130455017
140,98032491,0.6552839,0.23806849,-0.6995779,0.15657955,9.649552345275879,0.7975543141365051,-0.47186943888664246,-18.30305290222168,-7.762452125549316, 0.8690977692604065
141,98049158,0.6547537,0.236817,-0.70083845,0.15505113,9.72402286529541,0.5303251147270203,-0.798980712890625,-16.927108764648438,-9.60818099975586, 1.6858235597610474
142,98065825,0.6538437,0.23602338,-0.7021998,0.1539385,9.721043586730957,0.628708004951477,-0.8211028575897217,-12.699212074279785,-11.748954772949219, 1.9598408937454224
143,98082492,0.65289354,0.23515001,-0.70368326,0.15252686,9.748147010803223,0.7096197605133057,-0.9536285996437073,-13.288230895996094,-12.77463150024414, 1.0955781936645508
144,98099159,0.6519291,0.23452431,-0.7050613,0.1512471,9.826504707336426,0.551115095615387,-1.1185723543167114,-11.882394790649414,-12.471243858337402, 0.4016523063182831
145,98115826,0.65109456,0.2341439,-0.7062288,0.14997871,9.768763542175293,0.5167280435562134,-1.170169711112976,-11.371689796447754,-11.184870719909668, -1.166300892829895
146,98132493,0.65040165,0.23398079,-0.7071953,0.14867969,9.828401565551758,0.4908831715583801,-1.109241247177124,-9.71972942352295,-9.786489486694336, -2.9268929958343506
147,98149160,0.6498089,0.23408875,-0.7079541,0.14748551,9.83236026763916,0.4092208743095398,-1.2199716567993164,-8.049331665039062,-8.496684074401855, -4.20211124420166
148,98165827,0.64927685,0.23430555,-0.7086107,0.14632685,9.835162162780762,0.47922226786613464,-1.23739755153656,-6.469949245452881,-7.696760177612305, -4.945455074310303
149,98182494,0.64880794,0.23468255,-0.70916516,0.14511137,9.726496696472168,0.7048771977424622,-1.222335696220398,-6.99793004989624,-7.286059856414795, -6.096375942230225
150,98199161,0.6484968,0.2347862,-0.70977694,0.14333232,9.831719398498535,0.6103026270866394,-1.1488535404205322,-10.339356422424316,-7.323522090911865, -7.435065746307373
151,98215828,0.6481618,0.23503432,-0.71035945,0.14154443,9.855616569519043,0.7832646369934082,-1.06554114818573,-9.17579460144043,-7.422861099243164, -8.270320892333984
152,98232495,0.6478148,0.23509465,-0.7110899,0.13934702,9.73895263671875,1.1482863426208496,-0.9961254000663757,-12.565399169921875,-8.675235748291016, -8.882699012756348
153,98249162,0.6474774,0.23455583,-0.71210784,0.13659829,9.508350372314453,1.1566243171691895,-1.0971609354019165,-17.933748245239258,-10.209776878356934, -7.972645282745361
154,98265829,0.6470017,0.23390205,-0.7132729,0.1338671,9.4864501953125,1.3185347318649292,-1.2401676177978516,-17.981182098388672,-11.380213737487793, -6.987143039703369
155,98282496,0.6464353,0.23330343,-0.71443653,0.13142131,9.613692283630371,1.1565120220184326,-1.338512897491455,-16.34639549255371,-11.42605972290039, -5.8633317947387695
156,98299163,0.64570963,0.23312719,-0.7154708,0.1296642,9.690422058105469,0.939751386642456,-1.4123750925064087,-10.678007125854492,-10.901681900024414, -4.935827255249023
157,98315830,0.6447939,0.23354185,-0.7163314,0.12871788,9.711804389953613,1.0237149000167847,-1.49704110622406,-3.6412951946258545,-10.290904998779297, -4.352650165557861
158,98332497,0.64396125,0.2340323,-0.7170629,0.12791991,9.71307373046875,1.2242425680160522,-1.3780341148376465,-2.5462746620178223,-9.122824668884277, -4.357964038848877
159,98349164,0.6432387,0.23421332,-0.71785814,0.12675919,9.624762535095215,1.3973486423492432,-1.3679027557373047,-6.043422222137451,-9.18648624420166, -4.407346248626709
160,98365831,0.64262617,0.23387946,-0.71878964,0.1251952,9.573063850402832,1.3882343769073486,-1.3600397109985352,-10.549341201782227,-9.441373825073242, -3.513719081878662
161,98382498,0.6420787,0.23317616,-0.71982634,0.12334511,9.576946258544922,1.4462897777557373,-1.3922679424285889,-13.765290260314941,-9.724946975708008, -2.8238799571990967
162,98399165,0.64161956,0.23211594,-0.72092825,0.12128167,9.652055740356445,1.3938913345336914,-1.5274101495742798,-16.705814361572266,-9.630566596984863, -1.930598258972168
163,98415832,0.6412102,0.23090273,-0.7220194,0.11925472,9.692082405090332,1.3655503988265991,-1.613660216331482,-17.156612396240234,-9.130670547485352, -1.070676326751709
164,98432499,0.64077175,0.22974421,-0.7230511,0.11758637,9.663668632507324,1.3007588386535645,-1.6030484437942505,-15.096369743347168,-8.487481117248535, 0.19057787954807281
165,98449166,0.64031047,0.22864687,-0.7240194,0.11627254,9.629692077636719,1.2193413972854614,-1.5637222528457642,-12.972907066345215,-7.803863525390625, 1.3751918077468872
166,98465833,0.6398108,0.22766148,-0.72493637,0.115237415,9.674612045288086,1.1406605243682861,-1.5748132467269897,-11.036494255065918,-7.4210286140441895, 2.006122350692749
167,98482500,0.6391926,0.22689548,-0.72582716,0.11457076,9.639510154724121,1.104702353477478,-1.555245041847229,-8.03329849243164,-7.491680145263672, 2.586531639099121
168,98499167,0.6384435,0.2262508,-0.72675747,0.11412327,9.573864936828613,1.2085448503494263,-1.4851465225219727,-6.249578952789307,-8.072102546691895, 3.109159231185913
169,98515834,0.6376273,0.22551997,-0.72776693,0.11369976,9.580252647399902,1.239469289779663,-1.4965648651123047,-6.42134952545166,-8.647798538208008, 3.8181312084198
170,98532501,0.6366905,0.22482802,-0.72883445,0.11348246,9.588033676147461,1.1142429113388062,-1.550979733467102,-5.100707530975342,-9.22384262084961, 4.723618507385254
171,98549168,0.6356011,0.22423981,-0.72996765,0.113468446,9.515957832336426,1.2237292528152466,-1.5824151039123535,-3.405376672744751,-10.039338111877441, 5.307945728302002
172,98565835,0.6344084,0.22358169,-0.7312034,0.11348582,9.510306358337402,1.2049739360809326,-1.5916156768798828,-3.537116050720215,-10.911362648010254, 6.054148197174072
173,98582502,0.63315356,0.22282088,-0.7325174,0.11351492,9.595561981201172,1.0923863649368286,-1.6412760019302368,-3.8324050903320312,-11.461484909057617, 6.788400650024414
174,98599169,0.63178664,0.22210202,-0.7339001,0.11360947,9.559540748596191,1.0950945615768433,-1.6218796968460083,-3.231210708618164,-12.261436462402344, 7.0620598793029785
175,98615836,0.63034534,0.22135964,-0.73533964,0.11375588,9.578763961791992,1.062105655670166,-1.686214804649353,-2.9933841228485107,-12.788841247558594, 7.553056240081787
176,98632503,0.6288077,0.22065695,-0.73682845,0.113996476,9.570866584777832,0.9092995524406433,-1.8040724992752075,-2.231956720352173,-13.378958702087402, 7.913120746612549
177,98649170,0.62718546,0.22015677,-0.7382886,0.114452876,9.649168968200684,0.9067348837852478,-1.8237825632095337,-0.09716185182332993,-13.510351181030273, 7.835103988647461
178,98665837,0.62547797,0.2198153,-0.739722,0.11519517,9.529699325561523,1.1775672435760498,-1.8754379749298096,2.1360175609588623,-13.524796485900879, 8.295339584350586
179,98682504,0.6236841,0.2193326,-0.74125177,0.11600552,9.478126525878906,1.164650321006775,-1.8238859176635742,1.9884247779846191,-14.154566764831543, 9.522753715515137
180,98699171,0.62167555,0.21883503,-0.7429245,0.11702036,9.541036605834961,0.9841462969779968,-1.7837187051773071,3.156019926071167,-15.54496955871582, 10.882086753845215
181,98715838,0.6193908,0.21846312,-0.74471676,0.118430994,9.64269733428955,0.9056012630462646,-1.7769708633422852,6.069432735443115,-16.975229263305664, 12.333335876464844
182,98732505,0.61677265,0.21827227,-0.7466513,0.1202522,9.582013130187988,0.8125077486038208,-1.7768964767456055,9.342296600341797,-18.827678680419922, 13.640422821044922
183,98749172,0.6138481,0.21820816,-0.7487138,0.122488484,9.734772682189941,0.47812777757644653,-1.8939718008041382,12.346820831298828,-20.43939971923828, 15.201223373413086
184,98765839,0.61047566,0.21878634,-0.750773,0.12566699,9.793862342834473,0.22029975056648254,-2.1167829036712646,20.56153106689453,-21.87009620666504, 16.233314514160156
185,98782506,0.60663545,0.22024043,-0.7527001,0.13011551,9.958255767822266,0.2806559205055237,-2.1568844318389893,31.573348999023438,-22.58258819580078, 17.23065948486328
186,98799173,0.6026726,0.22157598,-0.75460684,0.13512333,9.799881935119629,0.9001801609992981,-2.2208807468414307,34.151573181152344,-22.18740463256836, 20.242637634277344
187,98815840,0.5984431,0.22215894,-0.75689423,0.14008,9.716459274291992,1.7192775011062622,-2.1498215198516846,30.80925941467285,-24.529356002807617, 24.788087844848633
188,98832507,0.59410983,0.22133134,-0.75973004,0.14441752,9.852579116821289,1.7418949604034424,-2.066723346710205,21.469728469848633,-26.91754722595215, 30.57994270324707
189,98849174,0.58934736,0.21950783,-0.7632658,0.14802589,10.036964416503906,1.3693857192993164,-1.748938798904419,13.552133560180664,-32.155418395996094, 34.37647247314453
190,98865841,0.5837435,0.21741435,-0.7674566,0.15160835,10.311116218566895,0.6878105998039246,-1.835235357284546,12.980255126953125,-39.0286865234375, 37.58531188964844
191,98882508,0.5769006,0.21588396,-0.7721847,0.15591843,10.87761402130127,0.18842127919197083,-1.7150057554244995,20.40580940246582,-47.26650619506836, 39.65414047241211
192,98899175,0.56894726,0.2148572,-0.77740693,0.16054259,11.368410110473633,0.395772784948349,-1.4099178314208984,25.221521377563477,-55.26134490966797, 40.154571533203125
193,98915842,0.5599214,0.21378039,-0.7833329,0.16485088,11.930221557617188,0.07696431130170822,-1.322999119758606,24.15623664855957,-64.25615692138672, 41.44380187988281
194,98932509,0.54885334,0.21384466,-0.79007745,0.16973002,12.194689750671387,0.2638263404369354,-0.872432291507721,33.746341705322266,-78.98387145996094, 41.02849578857422
195,98949176,0.5376654,0.21243748,-0.7975617,0.17228384,12.063779830932617,-0.2801152169704437,-0.7088325023651123,14.881839752197266,-84.288330078125, 41.52524948120117
196,98965843,0.5239961,0.21220627,-0.8055988,0.17722122,12.909345626831055,-1.5544582605361938,-0.24164891242980957,35.819271087646484,-98.06208801269531, 47.44026565551758
197,98982510,0.5084855,0.21289745,-0.81407386,0.18275951,13.641823768615723,-0.556370735168457,-0.04890458285808563,44.584171295166016,-110.32875061035156, 47.35615539550781
198,98999177,0.4914974,0.21446343,-0.8224125,0.18993102,14.239060401916504,0.3357354998588562,-0.01767107844352722,59.09696960449219,-117.11056518554688, 49.878814697265625
199,99015844,0.47529334,0.21588205,-0.8294402,0.19879664,14.778573036193848,2.04538893699646,0.18304860591888428,68.72969055175781,-105.86418914794922, 53.602684020996094
200,99032511,0.45910925,0.21588218,-0.83772105,0.20208226,10.07580280303955,4.2158684730529785,-0.15687856078147888,30.567583084106445,-116.53166198730469, 45.50831985473633
201,99049178,0.44156575,0.21489297,-0.8468336,0.204239,9.880579948425293,-0.7691740393638611,-7.648650646209717,21.910245895385742,-127.50984954833984, 51.04786682128906
202,99065845,0.4225424,0.21429381,-0.85484993,0.2115844,9.05389404296875,-2.0642354488372803,-7.74232292175293,57.06435012817383,-125.57211303710938, 65.04351806640625
203,99082512,0.40507993,0.21477789,-0.8613823,0.21863489,8.896533966064453,-0.010111887007951736,-4.566832542419434,58.33835220336914,-113.97996520996094, 53.370243072509766
204,99099179,0.39389235,0.21547215,-0.86552125,0.222022,9.072933197021484,2.1317830085754395,0.05255027860403061,31.602561950683594,-75.91077423095703, 29.05638313293457
205,99115846,0.3897286,0.21667355,-0.8669203,0.22274058,7.932939529418945,2.2376461029052734,2.270357370376587,10.943499565124512,-31.669578552246094, 4.221201419830322
206,99132513,0.39126992,0.21881823,-0.86535364,0.22403063,7.001502990722656,1.3663886785507202,1.4527040719985962,12.972488403320312,9.380928039550781, -12.84630012512207
207,99149180,0.3965109,0.22258793,-0.86073005,0.22886226,6.822622299194336,1.3603178262710571,1.09652841091156,37.589298248291016,42.20652389526367, -23.14238739013672
208,99165847,0.40643468,0.22630809,-0.8541988,0.23225017,6.386669635772705,2.400637626647949,0.451155424118042,24.775537490844727,72.78477478027344, -36.92603302001953
209,99182514,0.42088774,0.22909576,-0.84639573,0.23234247,6.673807621002197,1.978886604309082,-0.4544909596443176,-2.1431074142456055,99.14036560058594, -49.699737548828125
210,99199181,0.43971455,0.23061329,-0.83730215,0.22889721,7.390515327453613,1.0019246339797974,-1.4207038879394531,-31.185808181762695,124.6533203125, -61.4358024597168
211,99215848,0.46194816,0.23122236,-0.82673204,0.2228328,7.8246917724609375,0.2867293357849121,-1.6455258131027222,-52.066219329833984,145.89712524414062, -71.75897216796875
212,99232515,0.48725796,0.230737,-0.81445575,0.21448147,8.714895248413086,0.06012890487909317,-1.813601016998291,-70.81692504882812,166.74111938476562, -80.21479797363281
213,99249182,0.51493806,0.22881411,-0.800415,0.20449689,9.720390319824219,-0.7259341478347778,-2.2777419090270996,-85.94518280029297,185.34950256347656, -83.94892883300781
214,99265849,0.5438512,0.22618891,-0.7843023,0.19476798,10.693893432617188,-1.5690840482711792,-2.794809103012085,-86.0731430053711,200.7767791748047, -84.24203491210938
215,99282516,0.5728992,0.22403859,-0.7658585,0.18722783,11.308368682861328,-1.9740097522735596,-3.126274824142456,-69.6126708984375,212.94296264648438, -82.53768920898438
216,99299183,0.6012493,0.22311878,-0.7452395,0.18258063,11.660523414611816,-2.079282760620117,-3.3263914585113525,-45.687286376953125,220.71102905273438, -80.20121002197266
217,99315850,0.62836725,0.22397731,-0.7227798,0.18049528,11.933728218078613,-1.973978042602539,-3.2177176475524902,-21.03277587890625,223.7624969482422, -80.12455749511719
218,99332517,0.65409374,0.22640367,-0.698935,0.17998022,12.157729148864746,-1.9948678016662598,-3.212273597717285,-2.6105823516845703,223.39938354492188, -81.65104675292969
219,99349184,0.6783191,0.22987753,-0.6741893,0.18030082,12.48599624633789,-1.698115587234497,-2.87042498588562,9.558652877807617,220.37864685058594, -82.5856704711914
220,99365851,0.7011549,0.23294915,-0.64944506,0.17982733,12.382641792297363,-1.097921371459961,-2.752620220184326,6.193212032318115,213.32994079589844, -82.80986022949219
221,99382518,0.72258395,0.23384045,-0.62583965,0.17752692,12.299311637878418,-0.8725696206092834,-2.642775297164917,-11.632957458496094,201.50949096679688, -78.4208755493164
222,99399185,0.74259245,0.2315153,-0.60412,0.17319386,11.827829360961914,-1.1043026447296143,-2.927518129348755,-36.38084411621094,186.88844299316406, -70.03334045410156
223,99415852,0.7606518,0.22683224,-0.58463514,0.16780333,11.409382820129395,-1.5864440202713013,-3.458966016769409,-52.37301254272461,168.7467498779297, -59.91217803955078
224,99432519,0.775874,0.22166592,-0.5679058,0.16237901,10.567265510559082,-1.691430926322937,-4.06399393081665,-53.789466857910156,143.72181701660156, -50.757205963134766
225,99449186,0.78757703,0.21779089,-0.55453014,0.15743583,9.577292442321777,-1.7479302883148193,-4.701582908630371,-43.40214538574219,111.70846557617188, -44.37082290649414
226,99465853,0.79571176,0.21591963,-0.5446558,0.15353158,8.964378356933594,-1.740285873413086,-4.840910911560059,-27.04172706604004,78.89118957519531, -37.447425842285156
227,99482520,0.8004365,0.21619032,-0.53824204,0.1511915,8.376129150390625,-1.678689956665039,-4.566710472106934,-8.06524658203125,47.613990783691406, -28.33087921142578
228,99499187,0.8018422,0.217967,-0.53563493,0.15044932,8.15572452545166,-1.7135190963745117,-4.597811222076416,7.098938941955566,15.535482406616211, -16.149311065673828
229,99515854,0.7998743,0.22137614,-0.53679115,0.1518199,8.282760620117188,-1.7777581214904785,-4.559942722320557,25.023269653320312,-15.821653366088867, -1.53117036819458
230,99532521,0.79542524,0.22581069,-0.5407894,0.15445162,8.492979049682617,-2.01456618309021,-4.354031085968018,36.10441207885742,-39.433834075927734, 8.382502555847168
231,99549188,0.7884507,0.23226331,-0.5469769,0.15879415,8.781245231628418,-2.1398372650146484,-4.219066143035889,55.0756721496582,-59.976097106933594, 16.147052764892578
232,99565855,0.7805077,0.23925775,-0.5537681,0.16402665,10.78059196472168,0.908933699131012,3.6949331760406494,62.22279739379883,-65.77210998535156, 20.774110794067383
233,99582522,0.77851623,0.23996268,-0.55758345,0.15947223,13.122180938720703,9.80792236328125,12.415528297424316,-15.222766876220703,-36.182281494140625, -19.45803451538086
234,99599189,0.77761656,0.23480868,-0.5631507,0.15178584,12.357267379760742,2.0611512660980225,0.5401679277420044,-62.33389663696289,-40.500885009765625, -11.74197769165039
235,99615856,0.7670496,0.23753434,-0.5748271,0.15743774,12.878463745117188,-3.795069456100464,-2.022688388824463,40.638755798339844,-97.16401672363281, 48.998252868652344
236,99632523,0.75625014,0.23922476,-0.58744156,0.1605305,10.149704933166504,2.151219129562378,0.88918137550354,24.431724548339844,-105.87125396728516, 41.09741973876953
237,99649190,0.7482276,0.2385844,-0.59837985,0.1586652,8.547531127929688,1.7750056982040405,0.797603964805603,-10.46638011932373,-91.4709701538086, 18.927074432373047
238,99665857,0.73969465,0.24113032,-0.6077703,0.15913342,9.138042449951172,1.5583562850952148,-2.645167350769043,18.02285385131836,-85.22950744628906, 15.861019134521484
239,99682524,0.73175746,0.24175014,-0.6175319,0.15729758,12.151240348815918,2.072474956512451,-1.6787834167480469,-2.8453142642974854,-86.1663818359375, 12.161703109741211
240,99699191,0.72648406,0.2387768,-0.62631416,0.15145041,9.785449981689453,1.3346353769302368,-0.13554513454437256,-41.3660888671875,-72.56982421875, 2.7458064556121826
241,99715858,0.7214695,0.23735557,-0.6339128,0.14594117,9.244140625,0.09925136715173721,0.40953150391578674,-31.37425994873047,-66.55220794677734, -4.45228910446167
242,99732525,0.7149783,0.23876539,-0.64119405,0.14376245,9.729819297790527,-0.05371376499533653,-0.10403293371200562,-0.10041626542806625,-68.80793762207031, 0.6492094993591309
243,99749192,0.7072093,0.2427616,-0.64805424,0.14473256,10.090873718261719,0.5336871147155762,-0.19064709544181824,28.992759704589844,-69.73855590820312, 5.235476493835449
244,99765859,0.69952816,0.245654,-0.65525764,0.14474784,9.915756225585938,2.295816659927368,-0.07794323563575745,18.864227294921875,-71.49787902832031, 5.955855369567871
245,99782526,0.6931223,0.24559283,-0.662688,0.14181077,9.629542350769043,2.687378168106079,-0.5701001286506653,-11.040237426757812,-68.88772583007812, 4.2216410636901855
246,99799193,0.68830854,0.24238385,-0.670061,0.13601391,9.996582984924316,2.217909812927246,-1.0866448879241943,-41.72092056274414,-63.097984313964844, 3.358898401260376
247,99815860,0.68385756,0.2387415,-0.6770113,0.13037309,10.290709495544434,0.21524041891098022,-1.4080748558044434,-43.278141021728516,-58.72169876098633, 5.104891777038574
248,99832527,0.67827976,0.23931599,-0.68267435,0.12892015,9.838029861450195,-0.6468014717102051,-1.427816390991211,-0.9717304706573486,-54.77799606323242, 4.02521276473999
249,99849194,0.67159903,0.24333327,-0.68741477,0.13116801,9.72890567779541,0.30265411734580994,-1.2026464939117432,35.06751251220703,-52.58754348754883, 4.49951696395874
250,99865861,0.6644908,0.2481797,-0.69190377,0.13464114,9.797539710998535,1.5232677459716797,-0.9996366500854492,45.61349105834961,-52.141441345214844, 6.154650688171387
251,99882528,0.6579033,0.25137973,-0.6966195,0.13672173,9.663235664367676,2.2857120037078857,-1.1203874349594116,30.359920501708984,-51.563846588134766, 7.534578323364258
252,99899195,0.6521144,0.25230175,-0.7016624,0.1369692,9.620609283447266,2.1058011054992676,-1.3923401832580566,9.584036827087402,-50.254150390625, 10.013412475585938
253,99915862,0.6470941,0.25150004,-0.7067992,0.13583861,9.757658004760742,1.4297469854354858,-1.7552618980407715,-6.216639995574951,-47.73236846923828, 11.633522987365723
254,99932529,0.6427953,0.24954401,-0.7118561,0.13342759,9.759462356567383,1.4387589693069458,-1.9137492179870605,-18.753360748291016,-44.992713928222656, 10.75379753112793
255,99949196,0.6388578,0.24694183,-0.7168483,0.13041946,9.654108047485352,0.8882936239242554,-2.0204532146453857,-25.096179962158203,-43.35493469238281, 10.859621047973633
256,99965863,0.63478076,0.24506612,-0.72148573,0.12827562,9.671412467956543,0.5617826581001282,-2.0738179683685303,-17.097593307495117,-41.6517333984375, 10.600682258605957
257,99982530,0.63033426,0.24445285,-0.7257273,0.12744167,9.691479682922363,0.7849633097648621,-2.042738437652588,-4.126692295074463,-40.65338134765625, 9.70091438293457
258,99999197,0.6255865,0.24457484,-0.7297523,0.12761815,9.720354080200195,1.0047063827514648,-2.0859336853027344,4.791658878326416,-40.16131591796875, 10.304147720336914
259,100015864,0.62073934,0.24482392,-0.733714,0.12809329,9.689187049865723,1.2684767246246338,-2.0680763721466064,7.055849075317383,-40.000511169433594, 10.933700561523438
260,100032531,0.6157857,0.24497141,-0.7377276,0.128667,9.689264297485352,1.2705740928649902,-2.1363070011138916,7.252801418304443,-40.5115966796875, 12.060758590698242
261,100049198,0.6107374,0.24493846,-0.74184406,0.12912275,9.674304962158203,1.1930651664733887,-2.251883029937744,5.960197925567627,-41.4774169921875, 12.748453140258789
262,100065865,0.605542,0.24487473,-0.74604493,0.12950782,9.748061180114746,1.032662034034729,-2.348888397216797,5.643625736236572,-42.68289566040039, 12.89479923248291
263,100082532,0.6000484,0.244896,-0.7503749,0.13002108,9.75368881225586,0.9023523330688477,-2.3255162239074707,7.041838645935059,-44.62118148803711, 13.483393669128418
264,100099199,0.5940441,0.24514401,-0.7548944,0.13096097,10.045097351074219,0.8594161868095398,-2.355431318283081,10.86845874786377,-47.541629791259766, 14.853472709655762
265,100115866,0.5871732,0.24624847,-0.75955963,0.13288623,9.948197364807129,0.7193896174430847,-3.8144092559814453,20.80965805053711,-51.77064895629883, 15.459988594055176
266,100132533,0.5796487,0.24794284,-0.76435065,0.13527694,10.812983512878418,2.2019174098968506,-1.2659766674041748,26.606369018554688,-55.41971206665039, 15.064839363098145
267,100149200,0.5719773,0.24862657,-0.7696105,0.13684474,10.60533332824707,0.39355817437171936,-2.2188973426818848,18.08837890625,-58.61328887939453, 18.0859432220459
268,100165867,0.5637966,0.24918178,-0.77490354,0.13988024,10.608489036560059,-0.4468294680118561,-3.1232898235321045,26.18674087524414,-58.866580963134766, 25.062786102294922
269,100182534,0.5551846,0.25024942,-0.7799608,0.14424574,10.62045669555664,-0.14305168390274048,-2.9716389179229736,36.210994720458984,-58.4952278137207, 27.457977294921875
270,100199201,0.5461424,0.25076792,-0.78543645,0.14810012,11.11844253540039,0.7591260075569153,-2.0242815017700195,31.69058609008789,-62.7791862487793, 29.573822021484375
271,100215868,0.5361767,0.25037023,-0.7916499,0.15205266,12.198945045471191,0.682793140411377,-1.930455207824707,29.628135681152344,-69.52727508544922, 37.11791229248047
272,100232535,0.52511543,0.24891941,-0.7987929,0.1556371,12.698899269104004,1.0779237747192383,-1.1288328170776367,24.661989212036133,-78.56682586669922, 44.257347106933594
273,100249202,0.5127259,0.2476386,-0.80670875,0.15814084,13.247441291809082,0.4917011559009552,-0.5662726759910583,20.798860549926758,-90.8449935913086, 42.20685577392578
274,100265869,0.4980839,0.24735501,-0.815249,0.16154613,14.080336570739746,0.6805176138877869,0.600986123085022,32.47175216674805,-105.28804016113281, 43.39548110961914
275,100282536,0.48119545,0.24830487,-0.8242222,0.1656904,15.386384963989258,0.7079909443855286,1.7048466205596924,44.17914962768555,-119.74219512939453, 42.2906379699707
276,100299203,0.46235356,0.25104594,-0.832811,0.17213711,16.030866622924805,0.7046031951904297,2.576878309249878,66.9256820678711,-127.98979949951172, 41.38995361328125
277,100315870,0.4418599,0.25669053,-0.83977693,0.1834245,15.736358642578125,0.4297734498977661,2.402606725692749,108.64417266845703,-127.76434326171875, 39.39521408081055
278,100332537,0.41860655,0.2633777,-0.8462736,0.19804512,12.646141052246094,0.17211021482944489,-1.619727373123169,136.51370239257812,-138.0991973876953, 46.26784896850586
279,100349204,0.3913978,0.26727942,-0.8540326,0.21447234,12.05977725982666,0.16083037853240967,-7.0219902992248535,144.44639587402344,-157.89317321777344, 75.47449493408203
280,100365871,0.36372775,0.26770425,-0.8620285,0.23009469,12.025328636169434,0.12569840252399445,-7.56654167175293,130.86978149414062,-157.62388610839844, 94.97628784179688
281,100382538,0.33949086,0.26629168,-0.8691599,0.24165222,10.574955940246582,3.50288462638855,-3.444732427597046,97.24801635742188,-139.71018981933594, 88.81214141845703
282,100399205,0.32227504,0.2641454,-0.875215,0.24569255,9.358438491821289,4.7553935050964355,-0.2084374725818634,39.631309509277344,-107.90523529052734, 62.222434997558594
283,100415872,0.3122932,0.26335725,-0.8796042,0.24374652,9.691584587097168,1.9089114665985107,-1.8295705318450928,-3.5948081016540527,-74.04818725585938, 25.752714157104492
284,100432539,0.30715832,0.2655492,-0.879128,0.24954262,10.348647117614746,1.2099097967147827,0.42343586683273315,49.070640563964844,-25.434301376342773, 7.565208911895752
285,100449206,0.31035817,0.26841527,-0.8753104,0.25585702,6.196917533874512,5.857105255126953,2.6049938201904297,44.17241668701172,31.552936553955078, -15.665925025939941
286,100465873,0.32221746,0.26963645,-0.87134725,0.25342873,4.55999231338501,5.274893283843994,1.8959109783172607,-27.559425354003906,70.54698944091797, -39.72245407104492
287,100482540,0.34146947,0.26915085,-0.8665646,0.2449946,5.620962142944336,2.5087485313415527,0.347588449716568,-79.49752044677734,108.34931945800781, -57.07447814941406
288,100499207,0.3670779,0.26799035,-0.8593773,0.2343201,5.843902111053467,0.7197563052177429,-0.36790722608566284,-102.09904479980469,148.7275390625, -73.43270111083984
289,100515874,0.39812458,0.2668347,-0.8486518,0.22379975,6.188570499420166,0.09042974561452866,-0.9514815211296082,-105.487548828125,189.95948791503906, -88.37710571289062
290,100532541,0.4330182,0.26571658,-0.83398324,0.21531826,7.189560890197754,-1.3311573266983032,-1.576401948928833,-94.4781494140625,226.79901123046875, -96.20880126953125
291,100549208,0.4705327,0.26469317,-0.81534505,0.20916295,8.248589515686035,-1.9319959878921509,-2.0861029624938965,-79.79039764404297,257.6915283203125, -101.03240966796875
292,100565875,0.5092138,0.26421314,-0.79289335,0.20545803,9.505220413208008,-2.1855063438415527,-3.0371577739715576,-60.95547103881836,280.20263671875, -104.85358428955078
293,100582542,0.5481543,0.26465854,-0.76654565,0.20467219,10.566205024719238,-1.9046226739883423,-4.313632011413574,-36.78181838989258,299.24945068359375, -107.20498657226562
294,100599209,0.5867454,0.26559353,-0.73691493,0.20529626,11.839503288269043,-1.9521363973617554,-5.211992263793945,-22.25554084777832,311.71575927734375, -110.02037048339844
295,100615876,0.6243501,0.2673069,-0.7039566,0.20779659,13.457588195800781,-2.528559446334839,-5.551825523376465,-3.11270809173584,322.5863342285156, -111.14625549316406
296,100632543,0.6596504,0.27028507,-0.6685593,0.21174508,14.003876686096191,-2.6096646785736084,-5.64668083190918,17.04572868347168,322.9079895019531, -112.32542419433594
297,100649210,0.69173175,0.27397522,-0.63259757,0.21509393,14.869345664978027,-2.425232172012329,-6.276313781738281,24.3219051361084,308.7024230957031, -114.77179718017578
298,100665877,0.7204733,0.2762844,-0.5984689,0.21545391,15.101375579833984,-1.342932939529419,-6.882061958312988,8.329471588134766,282.10211181640625, -114.69080352783203
299,100682544,0.7464325,0.2735967,-0.56882507,0.2107648,13.906800270080566,-0.2730288803577423,-7.0705885887146,-38.57717514038086,246.53273010253906, -106.6004409790039
300,100699211,0.76965004,0.26419914,-0.54524803,0.20135145,12.490269660949707,-0.7202383875846863,-7.897352695465088,-95.15653228759766,205.82518005371094, -89.31527709960938
301,100715878,0.7889205,0.25079593,-0.5278996,0.18981025,10.84484577178955,-1.8998953104019165,-9.08159351348877,-125.8195571899414,160.10235595703125, -68.90335845947266
302,100732545,0.8031321,0.23805413,-0.51630557,0.17815076,9.29308032989502,-3.3183557987213135,-9.256714820861816,-121.47596740722656,109.85636138916016, -55.567604064941406
303,100749212,0.81153333,0.22997609,-0.5096296,0.16971262,8.666335105895996,-5.466615676879883,-9.56519889831543,-80.81544494628906,62.03268051147461, -39.33319091796875
304,100765879,0.8128965,0.2299879,-0.5082249,0.16736947,7.563116550445557,-4.939861297607422,-9.27025032043457,-9.339314460754395,8.56594467163086, -17.339569091796875
305,100782546,0.80828327,0.23483688,-0.5127393,0.16919936,7.6220622062683105,-3.1269724369049072,-8.712060928344727,34.90742874145508,-43.992515563964844, 5.122398376464844
306,100799213,0.7999427,0.24116778,-0.5214883,0.17314701,8.306722640991211,-2.4778079986572266,-7.550233364105225,51.667816162109375,-78.63037109375, 22.69040870666504
307,100815880,0.7908914,0.2467347,-0.5312381,0.17719877,12.418265342712402,0.9986875653266907,4.824279308319092,47.7900276184082,-85.29668426513672, 28.367799758911133
308,100832547,0.79111624,0.2425005,-0.53615254,0.16694051,17.83472442626953,13.944122314453125,19.714115142822266,-67.6168212890625,-37.48025131225586, -33.19142532348633
309,100849214,0.79001063,0.23421633,-0.5439607,0.1585333,9.549545288085938,-3.8032429218292236,-5.339392185211182,-83.9471206665039,-50.81650161743164, -1.5157341957092285
310,100865881,0.77387077,0.2422873,-0.5596859,0.17080069,15.160096168518066,-6.946091175079346,-3.7482943534851074,97.79712677001953,-134.34518432617188, 78.58856201171875
311,100882548,0.75926507,0.24853727,-0.57486206,0.17686017,10.11596393585205,3.108553647994995,0.9966078996658325,62.32191848754883,-133.4986572265625, 49.52425003051758
312,100899215,0.7499135,0.25010324,-0.58680224,0.1753332,8.386948585510254,2.227527141571045,-0.06443953514099121,2.7963671684265137,-103.07843017578125, 16.548969268798828
313,100915882,0.7378133,0.25832552,-0.59755224,0.17841168,9.091046333312988,1.8379244804382324,-4.5348615646362305,61.821983337402344,-108.10592651367188, 14.729776382446289
314,100932549,0.7288141,0.25790074,-0.60951257,0.1755332,13.052218437194824,1.332916021347046,-1.7909443378448486,-13.568251609802246,-101.30781555175781, 18.394514083862305
315,100949216,0.7230287,0.25572625,-0.6191663,0.1687214,9.797715187072754,0.9929444193840027,-0.26484763622283936,-41.77025604248047,-81.03987884521484, -1.952013611793518
316,100965883,0.7172174,0.25613335,-0.62714285,0.16336118,8.915284156799316,1.6617164611816406,-0.04795585200190544,-20.79206657409668,-73.2217025756836, -8.634361267089844
317,100982550,0.7099274,0.25732478,-0.63555163,0.1608144,10.053348541259766,0.06360327452421188,-0.8119097352027893,-2.6979715824127197,-77.64479064941406, 4.30568265914917
318,100999217,0.70085335,0.26244086,-0.6427363,0.16376713,10.165074348449707,0.01259397342801094,-0.7957049012184143,44.98217010498047,-74.05010223388672, 13.763811111450195
319,101015884,0.6921301,0.26637632,-0.6500987,0.16544317,10.10312557220459,2.23172926902771,-0.19331052899360657,32.80219268798828,-74.31861877441406, 12.703747749328613
320,101032551,0.6851403,0.26686332,-0.6579232,0.1628009,10.0608491897583,2.3047566413879395,-0.8253461718559265,-6.6259260177612305,-72.76482391357422, 6.472022533416748
321,101049218,0.6807681,0.2629474,-0.6656739,0.1558585,9.793173789978027,3.1361734867095947,-1.0557314157485962,-51.55470275878906,-63.52422332763672, 3.1186952590942383
322,101065885,0.6775404,0.2565302,-0.673423,0.14708133,10.083611488342285,0.5978243947029114,-1.2864843606948853,-73.74022674560547,-58.892822265625, 4.841663837432861
323,101082552,0.6724604,0.25527787,-0.67973286,0.14350492,9.851888656616211,-1.1472256183624268,-1.6939319372177124,-20.888757705688477,-56.792388916015625, 4.49766731262207
324,101099219,0.6655447,0.25897408,-0.68469936,0.14549811,9.554688453674316,0.5018589496612549,-1.6511814594268799,32.55101013183594,-54.249752044677734, 6.50861930847168
325,101115886,0.658001,0.2641322,-0.6890141,0.15009554,9.611001968383789,1.2215129137039185,-1.6221071481704712,53.260013580322266,-51.04677963256836, 10.977694511413574
326,101132553,0.651455,0.26721165,-0.6934295,0.15283957,9.914467811584473,2.2499783039093018,-1.0071749687194824,33.152767181396484,-48.00071716308594, 11.582737922668457
327,101149220,0.645703,0.26791933,-0.6984946,0.15294506,9.759747505187988,1.7090859413146973,-1.3207979202270508,7.810338497161865,-49.5123405456543, 11.466533660888672
328,101165887,0.6404669,0.26736757,-0.7037444,0.15185715,9.69504165649414,1.6042654514312744,-1.744614601135254,-4.652499675750732,-48.766151428222656, 12.052209854125977
329,101182554,0.6357748,0.2658415,-0.70897824,0.1498952,9.548574447631836,1.2532929182052612,-1.924706220626831,-14.148736000061035,-46.69401168823242, 12.36726188659668
330,101199221,0.6312467,0.26428825,-0.7139828,0.14801371,9.697165489196777,0.88008713722229,-2.02201771736145,-13.930349349975586,-44.76811599731445, 12.30827808380127
331,101215888,0.6264549,0.26352894,-0.7187142,0.146822,9.693302154541016,0.507575273513794,-2.052827835083008,-6.331967830657959,-44.491912841796875, 11.213177680969238
332,101232555,0.62129664,0.26381913,-0.72313833,0.14649653,9.684975624084473,0.8382040858268738,-2.0424447059631348,3.4525985717773438,-44.542137145996094, 9.598846435546875
333,101249222,0.6158438,0.2645552,-0.72747415,0.14672661,9.715348243713379,0.9922201037406921,-2.3143043518066406,8.754661560058594,-45.1517333984375, 9.927963256835938
334,101265889,0.6101405,0.26550332,-0.73178667,0.14739384,9.769731521606445,0.7914207577705383,-2.4120469093322754,12.331599235534668,-45.80315017700195, 10.968300819396973
335,101282556,0.60422367,0.2665907,-0.7361118,0.14826548,9.775968551635742,0.8411605954170227,-2.279212236404419,14.33479118347168,-46.77753829956055, 11.399153709411621
336,101299223,0.59797096,0.26745677,-0.7407449,0.14897941,9.707956314086914,1.2418383359909058,-2.089247226715088,12.933049201965332,-49.90327835083008, 12.807442665100098
337,101315890,0.59116906,0.26787037,-0.7459365,0.14947703,9.721360206604004,1.1707029342651367,-2.259751558303833,10.426010131835938,-55.01673126220703, 15.857208251953125
338,101332557,0.58303565,0.2687717,-0.7516868,0.15099129,9.916598320007324,0.921591579914093,-3.067831039428711,19.5169677734375,-62.825679779052734, 19.92660903930664
339,101349224,0.5747727,0.2690359,-0.7577039,0.15212272,10.452880859375,1.7114237546920776,-1.9251418113708496,14.960065841674805,-64.67324829101562, 22.34652328491211
340,101365891,0.5659195,0.26924357,-0.76391923,0.15385264,10.631357192993164,0.5857787132263184,-2.8650951385498047,18.758832931518555,-67.45179748535156, 26.036455154418945
341,101382558,0.55694795,0.26881146,-0.7702256,0.15589195,11.199578285217285,0.6419196128845215,-2.987983226776123,18.028947830200195,-67.24423217773438, 30.918415069580078
342,101399225,0.5477865,0.268189,-0.7765846,0.15786414,11.471210479736328,0.21146108210086823,-2.7557616233825684,17.250885009765625,-68.43585205078125, 31.994388580322266
343,101415892,0.5376781,0.26786357,-0.7831694,0.16061538,12.24815845489502,0.4713117778301239,-1.9118484258651733,24.039424896240234,-73.2936782836914, 34.80318832397461
344,101432559,0.5262078,0.26716512,-0.7904003,0.16430482,13.265674591064453,1.4050941467285156,-1.40687894821167,29.517841339111328,-80.95662689208984, 42.99525833129883
345,101449226,0.51320595,0.26621363,-0.7987522,0.16656893,13.468854904174805,1.3580702543258667,-0.442970335483551,22.418405532836914,-95.75523376464844, 43.03706741333008
346,101465893,0.4979133,0.26602015,-0.8079947,0.16870219,14.75167465209961,0.6365717053413391,0.9382485151290894,27.560035705566406,-112.68443298339844, 42.70014572143555
347,101482560,0.4798556,0.2669459,-0.8178258,0.17216194,16.587173461914062,0.9781569838523865,2.2463836669921875,43.14274215698242,-129.04763793945312, 45.332157135009766
348,101499227,0.45974603,0.26975483,-0.8272518,0.17754033,17.408601760864258,1.1476188898086548,3.628412961959839,64.39772033691406,-138.09042358398438, 42.78973388671875
349,101515894,0.43843442,0.2747367,-0.8354394,0.18530047,16.728975296020508,1.5345556735992432,4.759687900543213,88.56217956542969,-139.3909912109375, 37.16647720336914
350,101532561,0.41446495,0.28025034,-0.8429202,0.19789968,12.92594051361084,0.6531739830970764,0.04597380757331848,123.89453887939453,-144.20498657226562, 50.800010681152344
351,101549228,0.38545132,0.28529966,-0.8507176,0.21520035,11.156950950622559,-2.1586575508117676,-8.043539047241211,159.12379455566406,-164.71337890625, 74.40890502929688
352,101565895,0.35387632,0.28755736,-0.8580564,0.23626617,12.954622268676758,-1.0395944118499756,-8.893054962158203,179.45562744140625,-166.933349609375, 103.63099670410156
353,101582562,0.326494,0.28714323,-0.86360246,0.25522837,10.501714706420898,3.082674264907837,-4.509787559509277,155.158447265625,-137.6162872314453, 103.94478607177734
354,101599229,0.30641654,0.2866784,-0.8679558,0.26566416,9.060846328735352,5.811767101287842,0.2993541955947876,92.09811401367188,-108.29503631591797, 69.97486877441406
355,101615896,0.29672268,0.2866138,-0.87138635,0.26550758,9.890151977539062,2.5206892490386963,-1.0329750776290894,10.979955673217773,-66.01856231689453, 24.541034698486328
356,101632563,0.2932982,0.2888224,-0.86983883,0.27191585,8.843161582946777,1.5243687629699707,0.4397156536579132,51.699790954589844,-9.540400505065918, 3.0914506912231445
357,101649230,0.29922667,0.2931295,-0.8642117,0.27870548,4.255696773529053,8.16580867767334,3.861433744430542,47.27225875854492,51.433109283447266, -34.25337600708008
358,101665897,0.3159362,0.29421324,-0.86035407,0.27095,3.9547832012176514,7.377884864807129,1.9801692962646484,-70.87269592285156,88.70110321044922, -62.075828552246094
359,101682564,0.34095016,0.29093763,-0.8570471,0.2541239,4.88340425491333,2.80645489692688,0.03309408575296402,-151.81004333496094,126.40394592285156, -70.33511352539062
360,101699231,0.37131745,0.28597376,-0.85133743,0.23572661,5.97733211517334,-0.15712831914424896,-1.4945425987243652,-171.54689025878906,163.39796447753906, -78.2476577758789
361,101715898,0.40610364,0.28067365,-0.8415891,0.21915758,7.008052825927734,-1.092560052871704,-1.3805063962936401,-163.86268615722656,203.73281860351562, -86.75096130371094
362,101732565,0.4439902,0.27529413,-0.8274937,0.20576744,7.530707359313965,-1.4308818578720093,-1.4390630722045898,-145.13890075683594,240.08213806152344, -90.511474609375
363,101749232,0.48324278,0.27007738,-0.8096437,0.1949672,8.665231704711914,-1.60152006149292,-2.231973886489868,-127.19224548339844,264.0042724609375, -92.60604858398438
364,101765899,0.5235059,0.26505458,-0.7877069,0.18763115,10.923949241638184,-2.433209180831909,-4.370607376098633,-103.6695785522461,289.4064025878906, -91.15106964111328
365,101782566,0.5627344,0.26183897,-0.7616284,0.18625951,11.943143844604492,-2.9121289253234863,-5.078944206237793,-57.629878997802734,307.28131103515625, -85.71379089355469
366,101799233,0.6000293,0.26098388,-0.73206663,0.18955424,12.74152946472168,-2.9750092029571533,-5.309039115905762,-16.115324020385742,316.04876708984375, -83.84432983398438
367,101815900,0.634877,0.26251623,-0.6995885,0.19644998,13.820408821105957,-3.5614748001098633,-5.336513519287109,20.056142807006836,319.1572265625, -83.0764389038086
368,101832567,0.66696113,0.26658314,-0.66475016,0.20543553,14.33568286895752,-3.259200096130371,-5.35000467300415,49.35298156738281,316.56024169921875, -86.70348358154297
369,101849234,0.6959196,0.27237666,-0.62913173,0.21377641,14.360074043273926,-1.976142406463623,-6.6276702880859375,61.15767288208008,302.2717590332031, -94.59487915039062
370,101865901,0.7219465,0.27699387,-0.59550124,0.21782145,13.828678131103516,0.0322069488465786,-7.384814262390137,39.5040168762207,273.7999572753906, -102.04613494873047
371,101882568,0.74622744,0.27455744,-0.56744605,0.21393482,13.134286880493164,0.7354796528816223,-7.5482587814331055,-33.03046417236328,234.4796600341797, -99.3075942993164
372,101899235,0.7690065,0.262909,-0.5460511,0.20331295,12.23844051361084,-0.6378090381622314,-8.484087944030762,-113.5549087524414,195.3443145751953, -83.14554595947266
373,101915902,0.78760487,0.24667764,-0.5314916,0.19064556,10.430127143859863,-3.175402879714966,-10.74422836303711,-147.47271728515625,146.2804718017578, -58.56444549560547
374,101932569,0.79990834,0.23288597,-0.5229994,0.17995071,8.343117713928223,-5.003189563751221,-12.110081672668457,-124.32405853271484,90.64542388916016, -38.2773551940918
375,101949236,0.8050843,0.2253608,-0.5205545,0.17342132,7.092708587646484,-6.27473783493042,-12.459664344787598,-70.9469223022461,30.758968353271484, -19.430057525634766
376,101965903,0.80271965,0.22574931,-0.5242963,0.17260335,6.522634983062744,-4.246776103973389,-12.064749717712402,-2.3944883346557617,-30.975055694580078, 2.3993098735809326
377,101982570,0.79432684,0.23072468,-0.53383267,0.17559522,8.261445999145508,-2.8090107440948486,-10.622762680053711,39.12931442260742,-84.14309692382812, 23.010608673095703
378,101999237,0.7871463,0.23592599,-0.5428273,0.17343128,21.538951873779297,10.488547325134277,22.135055541992188,20.161413192749023,-85.12065124511719, -8.323073387145996
379,102015904,0.7892588,0.22284599,-0.5496841,0.15892713,10.705467224121094,4.5099639892578125,-7.768918991088867,-137.3635711669922,-37.19636154174805, -21.377113342285156
380,102032571,0.77179265,0.23114158,-0.56747645,0.16994274,15.270237922668457,-10.216897964477539,-2.979295492172241,93.13162994384766,-154.7491455078125, 74.50228881835938
381,102049238,0.7560852,0.23745018,-0.58343154,0.17765206,9.317068099975586,1.4650107622146606,-0.3097689151763916,69.04789733886719,-141.03614807128906, 59.6492919921875
382,102065905,0.74571353,0.24321023,-0.59392357,0.17892823,8.264008522033691,0.6224692463874817,-2.6376848220825195,38.34438705444336,-101.06025695800781, 12.967681884765625
383,102082572,0.7296245,0.25936523,-0.6040987,0.18826252,11.912246704101562,-1.6546142101287842,-3.1267547607421875,134.5030517578125,-122.0984878540039, 18.333593368530273
384,102099239,0.7179041,0.267181,-0.6135851,0.191681,11.973485946655273,1.6477980613708496,-1.9536712169647217,61.182525634765625,-100.23456573486328, 16.383773803710938
385,102115906,0.70996684,0.27098957,-0.62214786,0.18826577,9.823927879333496,2.333773136138916,-0.6563221216201782,6.833479404449463,-86.98039245605469, -7.121597766876221
386,102132573,0.7039837,0.2718755,-0.6301663,0.18270528,9.334805488586426,2.67792010307312,-0.6827487945556641,-19.551410675048828,-76.18290710449219, -8.620964050292969
387,102149240,0.6986237,0.27000746,-0.63852286,0.17694512,10.320723533630371,0.34923917055130005,-1.0083978176116943,-35.340511322021484,-72.03807830810547, 2.212404489517212
388,102165907,0.69182795,0.271416,-0.64566815,0.17555678,10.286271095275879,-0.400310754776001,-0.7327316403388977,3.728496551513672,-68.39644622802734, 8.326616287231445
389,102182574,0.6846565,0.27443773,-0.6520919,0.17523015,10.207274436950684,2.363935708999634,-0.6416895985603333,17.684900283813477,-66.60372161865234, 5.315345764160156
390,102199241,0.679069,0.2748422,-0.6584481,0.1725493,10.153005599975586,2.569479465484619,-1.6459758281707764,-8.098663330078125,-60.48077392578125, 3.9427616596221924
391,102215908,0.6753686,0.27257594,-0.66428316,0.16824874,10.07698917388916,2.2859151363372803,-1.1543879508972168,-30.84881591796875,-49.39817428588867, 5.26226282119751
392,102232575,0.67258745,0.26964703,-0.6695389,0.16320021,9.643706321716309,0.2955564260482788,-1.1959013938903809,-38.39529037475586,-43.14848709106445, 2.680394411087036
393,102249242,0.66799945,0.27142352,-0.6735297,0.16267759,9.666986465454102,-0.09828884154558182,-1.3655389547348022,8.966558456420898,-42.510047912597656, 1.6304320096969604
394,102265909,0.66196173,0.27593672,-0.67690283,0.16573511,9.52113151550293,1.362422227859497,-0.8785883188247681,41.51028060913086,-42.77177810668945, 5.861008644104004
395,102282576,0.6556884,0.28001776,-0.6805574,0.16883235,9.357400894165039,1.8806288242340088,-0.8534647226333618,39.854671478271484,-44.59146499633789, 8.855813026428223
396,102299243,0.64976406,0.28245944,-0.6848137,0.17045149,9.625469207763672,2.258112907409668,-0.9129317402839661,24.178871154785156,-46.62274932861328, 10.620779037475586
397,102315910,0.644369,0.28269514,-0.6899541,0.16981024,9.414414405822754,2.215693712234497,-1.1247140169143677,1.6188722848892212,-49.8941535949707, 12.014907836914062
398,102332577,0.6393893,0.281124,-0.6958463,0.16717935,9.442148208618164,1.8809492588043213,-1.3051457405090332,-17.508005142211914,-53.019256591796875, 12.758748054504395
399,102349244,0.6346692,0.2786746,-0.7019037,0.1639115,9.539408683776855,1.539015293121338,-1.7500656843185425,-25.10618019104004,-52.73078536987305, 14.191031455993652
400,102365911,0.62978715,0.27644435,-0.7078213,0.16104583,9.52690601348877,0.986630916595459,-2.006645679473877,-21.740461349487305,-52.38194274902344, 14.81002426147461
401,102382578,0.6244563,0.2750593,-0.7135292,0.15897477,9.586655616760254,0.7640252709388733,-1.958361029624939,-13.127474784851074,-53.08761215209961, 14.239507675170898
402,102399245,0.6185897,0.27418298,-0.71928644,0.15747295,9.887373924255371,0.2872578799724579,-2.2318217754364014,-7.191106796264648,-55.41331481933594, 14.86870002746582
403,102415912,0.61217606,0.27400738,-0.7249489,0.15687601,9.990522384643555,0.13366997241973877,-2.0904061794281006,1.3985792398452759,-56.7757568359375, 15.664155006408691
404,102432579,0.60511565,0.2745376,-0.7306346,0.15696289,9.842169761657715,0.6914530992507935,-2.1199331283569336,8.97060489654541,-59.580589294433594, 15.76390266418457
405,102449246,0.59765273,0.2750412,-0.7365472,0.15704116,9.962343215942383,1.1741275787353516,-2.426401138305664,9.332903861999512,-62.54632568359375, 16.726041793823242
406,102465913,0.5899439,0.27491733,-0.74278367,0.15703258,9.98383903503418,0.8317530155181885,-2.8863887786865234,6.4322285652160645,-64.62122344970703, 20.430387496948242
407,102482580,0.5814078,0.27521843,-0.7492082,0.15782021,10.184041976928711,0.9112651348114014,-2.4866294860839844,13.584754943847656,-68.57342529296875, 22.74193000793457
408,102499247,0.5727134,0.275662,-0.7555325,0.15868488,10.320084571838379,0.6497902274131775,-2.518228530883789,14.961647033691406,-69.01104736328125, 22.301761627197266
409,102515914,0.5631365,0.27674225,-0.76171356,0.16150498,10.303057670593262,-0.23999211192131042,-3.1338295936584473,29.457258224487305,-70.03535461425781, 27.38820457458496
410,102532581,0.5531639,0.2778557,-0.7677811,0.16528253,10.908198356628418,0.41837674379348755,-3.0374698638916016,35.479190826416016,-69.89707946777344, 31.142562866210938
411,102549248,0.54288304,0.27831292,-0.774278,0.16826726,11.601887702941895,1.2232238054275513,-2.1188390254974365,28.901456832885742,-73.94175720214844, 32.76350784301758
412,102565915,0.5320381,0.27783602,-0.7815756,0.16994753,12.04250717163086,0.9369669556617737,-2.0078697204589844,18.626497268676758,-81.37110137939453, 35.060157775878906
413,102582582,0.5198897,0.27690646,-0.78969395,0.17152564,12.711718559265137,0.08954677730798721,-1.7225879430770874,17.956819534301758,-91.070556640625, 40.21699523925781
414,102599249,0.5061572,0.2754003,-0.798491,0.17427498,14.55676555633545,1.1294363737106323,-0.48765572905540466,24.47157859802246,-99.21666717529297, 50.69770431518555
415,102615916,0.4905231,0.27383932,-0.8084894,0.17534004,14.905489921569824,1.4359447956085205,0.9281477332115173,17.199020385742188,-117.00379180908203, 49.70138931274414
416,102632583,0.47243768,0.27381274,-0.81890076,0.1767229,16.91309356689453,0.4352402091026306,2.7202906608581543,28.26241111755371,-133.32594299316406, 45.98989486694336
417,102649250,0.4518816,0.2765175,-0.8282408,0.18264264,18.287033081054688,-0.2738381326198578,4.0233378410339355,68.6346435546875,-138.6013946533203, 46.343902587890625
418,102665917,0.42969823,0.28151634,-0.83601534,0.1928374,16.517654418945312,0.3370197117328644,5.430179595947266,105.16744232177734,-137.83470153808594, 45.64061737060547
419,102682584,0.4044786,0.28617597,-0.84345955,0.2075485,13.181413650512695,0.0009013582020998001,-0.07115143537521362,136.44541931152344,-145.20037841796875, 64.3428726196289
420,102699251,0.37431934,0.28939518,-0.8513493,0.22658274,12.863986015319824,-1.060280680656433,-7.00112247467041,166.606201171875,-164.57054138183594, 92.67448425292969
421,102715918,0.34420863,0.2896541,-0.85858595,0.2458685,13.75993537902832,1.9304587841033936,-8.025583267211914,161.37814331054688,-157.4910888671875, 109.29444122314453
422,102732585,0.31872573,0.2869356,-0.86491305,0.26078248,11.927416801452637,3.8646507263183594,-4.755462169647217,120.84212493896484,-131.68093872070312, 106.9134521484375
423,102749252,0.2995512,0.2846329,-0.87018156,0.26839814,10.277325630187988,6.880504131317139,0.40221258997917175,67.81130981445312,-106.99169158935547, 75.07328796386719
424,102765919,0.2909528,0.28284281,-0.8749215,0.26430815,10.429155349731445,1.840945839881897,-3.1100516319274902,-20.868396759033203,-66.50484466552734, 27.382125854492188
425,102782586,0.2868843,0.28347826,-0.874172,0.2704826,8.81017780303955,1.2294723987579346,-0.06470061838626862,46.907222747802734,-12.73719596862793, 14.435518264770508
426,102799253,0.2935886,0.28722003,-0.8690012,0.27594784,5.004778861999512,9.903135299682617,4.143093109130859,36.00049591064453,53.553401947021484, -34.26910400390625
427,102815920,0.31188336,0.28779772,-0.8656661,0.26556244,3.620681047439575,7.323643684387207,1.1617558002471924,-91.43904113769531,93.7824935913086, -65.69255065917969
428,102832587,0.33770597,0.2848027,-0.862132,0.24813458,4.367099761962891,2.229044198989868,0.2992987632751465,-155.54579162597656,131.60430908203125, -73.6604995727539
429,102849254,0.369059,0.28044614,-0.85576,0.22982715,5.655762195587158,-0.16142871975898743,-1.2566554546356201,-169.9202117919922,171.58181762695312, -82.63752746582031
430,102865921,0.40469638,0.27604353,-0.8447362,0.21550305,6.423262596130371,-1.5752390623092651,-1.5037376880645752,-147.5175323486328,216.35702514648438, -88.01847076416016
431,102882588,0.44310403,0.27272725,-0.8286518,0.20643367,7.340404033660889,-1.4110009670257568,-1.6573207378387451,-111.74208068847656,254.90567016601562, -93.43793487548828
432,102899255,0.48372075,0.2697488,-0.80830103,0.19974776,8.594868659973145,-1.151429533958435,-2.2765250205993652,-95.22976684570312,284.4972839355469, -99.25794219970703
433,102915922,0.5255117,0.26727417,-0.7836331,0.19575784,10.496316909790039,-1.5103191137313843,-4.010623455047607,-74.81028747558594,309.7110290527344, -102.73541259765625
434,102932589,0.56665015,0.26605344,-0.7548388,0.19581072,11.919536590576172,-2.3701117038726807,-5.589382171630859,-41.75577926635742,326.87060546875, -101.59733581542969
435,102949256,0.6057683,0.26659405,-0.7225685,0.19966833,12.776192665100098,-2.320646286010742,-5.909287452697754,-6.763967037200928,334.5451965332031, -99.57073211669922
436,102965923,0.6429408,0.2676422,-0.68763083,0.20532627,13.481241226196289,-2.5693562030792236,-5.971728801727295,11.52078628540039,338.62591552734375, -96.82683563232422
437,102982590,0.6773612,0.27049366,-0.65029603,0.21243916,14.355592727661133,-3.0028529167175293,-6.297011852264404,34.824825286865234,336.377197265625, -99.46599578857422
438,102999257,0.7083384,0.27535334,-0.6118793,0.2191832,14.962503433227539,-1.837947964668274,-7.241400241851807,50.512550354003906,322.4325256347656, -107.1689224243164
439,103015924,0.7362149,0.27831164,-0.5759402,0.22096027,14.848702430725098,-0.11717857420444489,-8.044960975646973,22.475746154785156,290.8040466308594, -114.01002502441406
440,103032591,0.761621,0.2752421,-0.5457826,0.21516645,13.590713500976562,0.940588116645813,-8.14659309387207,-42.09560012817383,246.4560089111328, -113.65247344970703
441,103049258,0.7848162,0.26436353,-0.5226344,0.2025562,12.895550727844238,-0.3534358739852905,-9.472370147705078,-114.77403259277344,200.152587890625, -103.51142120361328
442,103065925,0.8030237,0.250173,-0.50712335,0.18812856,10.518987655639648,-3.237717628479004,-11.880681037902832,-140.75283813476562,142.3809051513672, -80.5958023071289
443,103082592,0.81466204,0.23804069,-0.49872074,0.17589836,8.085221290588379,-5.754587650299072,-13.064688682556152,-119.6189193725586,81.41521453857422, -54.93385314941406
444,103099259,0.81854963,0.23114164,-0.49817473,0.16844015,6.7397027015686035,-6.466928482055664,-12.753623962402344,-70.75737762451172,12.391246795654297, -23.94736099243164
445,103115926,0.8147867,0.22909905,-0.506086,0.16587175,6.842679977416992,-4.508000373840332,-11.727490425109863,-24.31406021118164,-59.18612289428711, 9.203118324279785
446,103132593,0.8058747,0.22978719,-0.5196552,0.16650102,9.553946495056152,-3.4815921783447266,-7.7149224281311035,3.7639577388763428,-106.80946350097656, 32.37287139892578
447,103149260,0.8000265,0.22953264,-0.53005797,0.16220726,20.876239776611328,9.876503944396973,24.337507247924805,-20.267309188842773,-84.96289825439453, -0.07153818756341934
448,103165927,0.8058215,0.20764935,-0.53620577,0.14148144,10.672347068786621,4.0284199714660645,-2.8197383880615234,-212.7767791748047,-21.038238525390625, -31.294301986694336
449,103182594,0.7874121,0.21760343,-0.5556194,0.15465467,15.431927680969238,-13.573287010192871,-6.149833679199219,110.28202819824219,-166.3343963623047, 81.66559600830078
450,103199261,0.77036947,0.2266978,-0.5721033,0.16684419,11.018383026123047,2.0705864429473877,-0.8676484823226929,102.95063781738281,-145.75184631347656, 73.68526458740234
451,103215928,0.7586704,0.22853087,-0.58726746,0.16525696,9.356023788452148,3.1460845470428467,0.9410988092422485,3.4682962894439697,-130.8662872314453, 21.08216667175293
452,103232595,0.7467114,0.23605016,-0.5987014,0.16810423,7.404014587402344,1.1231427192687988,-4.188398361206055,55.67720413208008,-111.95411682128906, 15.69909954071045
453,103249262,0.73408186,0.23976451,-0.61277694,0.16775371,13.478991508483887,1.8526642322540283,-2.9769206047058105,21.00666046142578,-129.0481719970703, 20.006460189819336
454,103265929,0.7260804,0.23642471,-0.625337,0.16082352,10.657978057861328,1.1235322952270508,-1.6285731792449951,-48.207862854003906,-104.58798217773438, 8.686538696289062
455,103282596,0.71942395,0.23521243,-0.6351524,0.15390141,9.505867958068848,1.6323769092559814,-0.9296965003013611,-36.707523345947266,-87.4323959350586, -6.3615522384643555
456,103299263,0.712175,0.23313169,-0.64532596,0.14836043,9.632936477661133,1.0077638626098633,-1.0927070379257202,-34.39717102050781,-88.63645935058594, 5.479223728179932
457,103315930,0.70402944,0.23377557,-0.65398014,0.14832942,10.253853797912598,-1.0409835577011108,-1.6135920286178589,6.378115653991699,-79.12095642089844, 18.853086471557617
458,103332597,0.6956573,0.23590149,-0.6618842,0.1494022,10.525280952453613,0.6472482085227966,-0.5459848642349243,19.642925262451172,-76.24341583251953, 16.54490852355957
459,103349264,0.6886174,0.23536694,-0.6699589,0.14684589,10.469664573669434,1.860342025756836,-0.6633421182632446,-11.93378734588623,-74.15487670898438, 10.201444625854492
460,103365931,0.6836108,0.23109643,-0.6779181,0.14035006,9.697491645812988,3.0726659297943115,-1.0439521074295044,-50.9436149597168,-66.8493881225586, 6.529294967651367
461,103382598,0.6803944,0.22307362,-0.6857163,0.13074835,9.877424240112305,0.6169608235359192,-2.188765525817871,-85.74553680419922,-59.065059661865234, 7.4609904289245605
462,103399265,0.6762063,0.21970932,-0.69180167,0.12603025,10.20412826538086,-1.548966646194458,-2.1833608150482178,-37.89936447143555,-52.32635498046875, 6.596770286560059
463,103415932,0.67089516,0.22113676,-0.69647586,0.1261734,9.724427223205566,-0.09530553221702576,-1.5487666130065918,10.418971061706543,-47.91135025024414, 5.234121799468994
464,103432599,0.6648435,0.22463486,-0.70058686,0.1292304,9.483656883239746,0.5994751453399658,-1.24053156375885,35.52899169921875,-46.22965621948242, 8.537437438964844
465,103449266,0.6589717,0.22757865,-0.704685,0.13184674,9.951557159423828,1.1983742713928223,-0.9902617931365967,30.597885131835938,-45.50033187866211, 9.009973526000977
466,103465933,0.65327245,0.22933798,-0.7091793,0.13305634,9.851240158081055,1.541597604751587,-1.1115058660507202,17.770326614379883,-47.596832275390625, 8.840632438659668
467,103482600,0.6478243,0.22982115,-0.71399117,0.13312715,9.724408149719238,1.4548343420028687,-1.701195240020752,5.8708977699279785,-48.426300048828125, 10.215810775756836
468,103499267,0.6428906,0.22904328,-0.71886164,0.13217065,9.548742294311523,1.5139424800872803,-1.7979644536972046,-5.75166130065918,-46.64558029174805, 11.46902084350586
469,103515934,0.6382074,0.22749035,-0.7238146,0.13050774,9.69459342956543,0.8892876505851746,-1.9101042747497559,-13.096090316772461,-46.179508209228516, 12.081531524658203
470,103532601,0.63310814,0.2268116,-0.72864336,0.12965187,9.718981742858887,0.3322135806083679,-1.8740768432617188,-4.543628215789795,-47.236934661865234, 11.463642120361328
471,103549268,0.62741077,0.22735764,-0.7333468,0.12987323,9.750395774841309,0.05795329064130783,-1.984434962272644,7.31671142578125,-49.09782028198242, 10.339496612548828
472,103565935,0.62090737,0.22939806,-0.7379056,0.13170409,9.835577964782715,0.1872812807559967,-2.032111883163452,23.24799919128418,-51.36625671386719, 10.240606307983398
473,103582602,0.6135889,0.23231322,-0.742562,0.13468842,10.083603858947754,0.7970587611198425,-2.052995204925537,34.04489517211914,-54.90061950683594, 11.61233901977539
474,103599269,0.60561156,0.23512219,-0.74761736,0.13791588,10.072153091430664,1.2923091650009155,-1.977405071258545,35.51000213623047,-59.47563552856445, 14.430521965026855
475,103615936,0.5970316,0.23708256,-0.75337327,0.14062011,9.813766479492188,1.5319194793701172,-2.568016290664673,29.61133575439453,-65.54524230957031, 18.31945037841797
476,103632603,0.5876243,0.2383474,-0.7599167,0.142881,10.358657836914062,1.6664543151855469,-1.9608150720596313,25.034658432006836,-73.12584686279297, 22.19687271118164
477,103649270,0.5780117,0.23915075,-0.7666216,0.14491664,10.53638744354248,-0.033100537955760956,-2.825004816055298,22.19206428527832,-74.78376770019531, 24.168745040893555
478,103665937,0.56736696,0.24058333,-0.7732598,0.1492781,10.969938278198242,-0.8668664693832397,-2.585970401763916,38.70977020263672,-76.7767562866211, 31.01357078552246
479,103682604,0.5556493,0.24206854,-0.780336,0.15405385,11.847825050354004,0.9516374468803406,-1.4533426761627197,42.451969146728516,-83.5763931274414, 34.165523529052734
480,103699271,0.5422536,0.24294154,-0.78857374,0.15840538,12.536273956298828,1.1887660026550293,-1.306409239768982,39.39705276489258,-97.10440826416016, 39.54828643798828
481,103715938,0.52665883,0.24306132,-0.79814094,0.16285817,14.343377113342285,1.0222108364105225,-0.586052417755127,39.3656005859375,-113.02904510498047, 48.635929107666016
482,103732605,0.50881505,0.24187393,-0.80908024,0.16731383,15.274685859680176,1.7333545684814453,1.05828857421875,36.87606430053711,-128.91664123535156, 60.64142608642578
483,103749272,0.48859438,0.24107462,-0.8213525,0.16893476,16.968080520629883,0.5976789593696594,1.8837707042694092,24.888317108154297,-152.02342224121094, 53.53390884399414
484,103765939,0.4658374,0.24206406,-0.83320135,0.17371288,19.244935989379883,0.7223019003868103,3.1892857551574707,53.42660903930664,-161.8408660888672, 56.295654296875
485,103782606,0.4413175,0.24725519,-0.8428749,0.18348338,19.323116302490234,1.4533582925796509,5.1688618659973145,101.02210998535156,-161.77001953125, 46.718143463134766
486,103799273,0.4169589,0.25402802,-0.85000193,0.19776735,14.945469856262207,2.8699042797088623,3.616673707962036,134.92262268066406,-147.52789306640625, 46.74281692504883
487,103815940,0.38887948,0.2591303,-0.8573956,0.21563251,10.157665252685547,-0.5464688539505005,-6.51001501083374,157.21559143066406,-161.5897979736328, 72.34251403808594
488,103832607,0.35543096,0.26126683,-0.86531913,0.23797369,12.170147895812988,-3.0234029293060303,-12.578479766845703,184.47447204589844,-182.29928588867188, 110.72977447509766
489,103849274,0.3244344,0.25992727,-0.8714534,0.2602871,11.714789390563965,1.435096263885498,-7.395794868469238,174.33053588867188,-157.66424560546875, 124.12435913085938
490,103865941,0.3014153,0.25917038,-0.87546235,0.27485508,10.635723114013672,5.897118091583252,0.5844541788101196,118.75865936279297,-119.9913330078125, 85.29290771484375
491,103882608,0.29220268,0.25979364,-0.8783223,0.2750908,10.895398139953613,4.472214698791504,0.7280904054641724,12.929218292236328,-62.680320739746094, 19.18402671813965
492,103899275,0.29198816,0.26122555,-0.8770091,0.27813578,6.615887641906738,3.8305389881134033,2.506300449371338,23.356990814208984,3.4876303672790527, -4.489480018615723
493,103915942,0.3003454,0.26310334,-0.87346,0.27863422,2.4250760078430176,7.305503845214844,2.502258539199829,-2.2128405570983887,54.2070426940918, -32.6731071472168
494,103932609,0.31674612,0.26175374,-0.87079483,0.2699507,2.5993857383728027,4.701903820037842,0.6027055978775024,-80.24417114257812,90.2501220703125, -46.03837585449219
495,103949276,0.3397471,0.25825673,-0.86776865,0.25466263,4.937074661254883,2.4213974475860596,-0.8977193832397461,-135.67015075683594,122.65391540527344, -60.46004104614258
496,103965943,0.3693676,0.25336152,-0.86218673,0.23666373,6.379222869873047,0.6429444551467896,-2.308441400527954,-162.40040588378906,165.7567901611328, -74.58551025390625
497,103982610,0.4045107,0.2478133,-0.8529322,0.21786848,6.9031243324279785,0.7908980250358582,-0.9718794226646423,-172.44049072265625,207.50778198242188, -88.13748931884766
498,103999277,0.44357896,0.24177973,-0.83972657,0.1990973,7.352602005004883,0.30451884865760803,-1.8135082721710205,-174.4342803955078,242.28948974609375, -97.8529281616211
499,104015944,0.48416716,0.23525937,-0.82292855,0.18172514,9.29622745513916,-0.8934564590454102,-3.1835110187530518,-165.45909118652344,265.017578125, -98.84300231933594
500,104032611,0.5256457,0.22940046,-0.8015705,0.16898845,11.162091255187988,-2.1739206314086914,-5.235173225402832,-132.77166748046875,291.91552734375, -95.66020202636719
501,104049278,0.56536853,0.22600715,-0.7762657,0.16337387,11.58699893951416,-2.7819247245788574,-5.9301252365112305,-77.24351501464844,304.8807678222656, -87.71078491210938
502,104065945,0.6024727,0.22525844,-0.7478552,0.16431129,11.93226432800293,-3.1184749603271484,-5.9484639167785645,-24.430973052978516,310.2073059082031, -78.25839233398438
503,104082612,0.6370164,0.22790238,-0.71644,0.17024864,12.570988655090332,-3.1761298179626465,-5.533087253570557,22.693634033203125,313.4328308105469, -76.77448272705078
504,104099279,0.66927373,0.23482603,-0.68187404,0.17882282,13.30547046661377,-2.1467537879943848,-4.913117408752441,61.70856857299805,315.1348876953125, -88.59583282470703
505,104115946,0.6993836,0.24460988,-0.64546067,0.18549706,14.39559268951416,-0.24875891208648682,-4.750771522521973,71.69791412353516,307.018310546875, -111.11436462402344
506,104132613,0.72770524,0.25244606,-0.6098194,0.18664552,14.63284683227539,0.4759174883365631,-5.589010238647461,39.815059661865234,288.5831298828125, -125.47180938720703
507,104149280,0.75336796,0.25625423,-0.57745004,0.18254374,13.866028785705566,-0.6171638369560242,-6.335866928100586,-1.9519188404083252,257.14617919921875, -125.76240539550781
508,104165947,0.7768163,0.25382814,-0.54943234,0.17393123,13.608366012573242,-1.3192658424377441,-6.365224838256836,-53.731388092041016,225.7317352294922, -113.94135284423828
509,104182614,0.79668945,0.24670516,-0.5268787,0.16377209,11.913019180297852,-2.240832805633545,-7.764245986938477,-84.96290588378906,186.0052490234375, -90.6647720336914
510,104199281,0.81158185,0.23886831,-0.51052386,0.15376054,9.544529914855957,-3.220646381378174,-9.547135353088379,-86.87128448486328,135.11856079101562, -71.16985321044922
511,104215948,0.82103014,0.2325904,-0.50072813,0.14519848,8.139784812927246,-5.073870658874512,-9.711793899536133,-71.07951354980469,80.21307373046875, -52.05202102661133
512,104232615,0.8238599,0.22991438,-0.49868602,0.14037998,7.3274922370910645,-4.382001876831055,-10.188363075256348,-35.0175666809082,16.123600006103516, -24.351146697998047
513,104249282,0.82064986,0.22937235,-0.5045686,0.13904217,7.341001987457275,-3.0379347801208496,-9.786295890808105,-9.101838111877441,-45.954254150390625, 6.3713178634643555
514,104265949,0.81345767,0.2296035,-0.5159306,0.13923009,8.54405403137207,-2.889652729034424,-8.602651596069336,1.5881438255310059,-88.94789123535156, 24.720487594604492
515,104282616,0.8035438,0.23273292,-0.5291897,0.14181334,15.368185043334961,1.6634007692337036,8.060375213623047,28.76861000061035,-108.14362335205078, 33.40908432006836
516,104299283,0.80532956,0.2178824,-0.5372288,0.12392195,18.06226348876953,13.816636085510254,9.692440032958984,-158.70335388183594,-51.990543365478516, -34.05379104614258
517,104315950,0.7934045,0.21599357,-0.55522823,0.12481062,11.51625919342041,-16.857864379882812,-8.430018424987793,-5.514039516448975,-140.72903442382812, 48.73651885986328
518,104332617,0.7746365,0.23037173,-0.57128584,0.14317775,13.239917755126953,-3.151841163635254,-2.3092997074127197,161.82205200195312,-144.21205139160156, 84.85647583007812
519,104349284,0.7585193,0.2409874,-0.58644927,0.15050218,9.733957290649414,4.556111812591553,-0.6667686700820923,95.06898498535156,-142.7919158935547, 36.73540496826172
520,104365951,0.74404216,0.25475052,-0.59698147,0.1584828,8.327091217041016,2.388871908187866,-4.62899923324585,116.19368743896484,-114.19152069091797, 18.10486602783203
521,104382618,0.7307004,0.26049167,-0.609863,0.16213652,12.567503929138184,2.002025604248047,-2.1712586879730225,52.82872772216797,-120.35920715332031, 31.77448844909668
522,104399285,0.72392106,0.2562624,-0.6214513,0.15513314,10.401284217834473,2.6951072216033936,-0.7273842692375183,-52.270423889160156,-94.2975845336914, 10.412446022033691
523,104415952,0.71944875,0.25220776,-0.6301693,0.14721283,9.235909461975098,1.946497917175293,-1.4316750764846802,-56.3273811340332,-71.94844818115234, -2.3958187103271484
524,104432619,0.71373975,0.24885735,-0.6393472,0.14099933,10.159457206726074,-0.0273897685110569,-1.4464627504348755,-43.775657653808594,-77.32743072509766, 5.061037540435791
525,104449286,0.70671827,0.24971238,-0.6468866,0.14046627,10.600051879882812,-1.6380733251571655,-1.0528157949447632,5.663816452026367,-69.40653228759766, 12.915387153625488
526,104465953,0.69840366,0.25463375,-0.6532996,0.14350536,10.183588027954102,0.42839592695236206,-0.25408440828323364,44.61256408691406,-67.48186492919922, 11.480234146118164
527,104482620,0.69088995,0.25800425,-0.65969676,0.1445869,10.449464797973633,2.4325342178344727,-1.2582097053527832,26.98536491394043,-65.71324157714844, 8.220909118652344
528,104499287,0.68575484,0.25746,-0.6658124,0.1419473,9.998283386230469,3.9102861881256104,-1.1561387777328491,-12.430374145507812,-56.29727554321289, 5.446239471435547
529,104515954,0.6835521,0.25099826,-0.6722481,0.13356262,9.388676643371582,2.785015821456909,-1.3037787675857544,-72.13269805908203,-48.778377532958984, 3.1805357933044434
530,104532621,0.68102056,0.2464472,-0.6777051,0.12724218,9.703214645385742,-0.2637968957424164,-1.845241904258728,-52.148319244384766,-43.88878631591797, 2.6857082843780518
531,104549288,0.6763755,0.24788028,-0.68185616,0.12705849,9.534016609191895,-0.10745176672935486,-1.3614097833633423,9.18850040435791,-42.454994201660156, 3.167069673538208
532,104565955,0.6702238,0.25271648,-0.6854132,0.13093273,9.011381149291992,1.683560848236084,-1.0781517028808594,47.12050247192383,-42.81797790527344, 6.37627649307251
533,104582622,0.66395897,0.2566821,-0.68926686,0.13484949,9.665528297424316,2.4502522945404053,-0.977104127407074,43.23957061767578,-43.8682861328125, 11.292174339294434
534,104599289,0.6584647,0.25784406,-0.6938528,0.13604906,9.591798782348633,2.5446243286132812,-0.8403292894363403,15.52658748626709,-45.762908935546875, 12.759238243103027
535,104615956,0.6535751,0.25695094,-0.6990595,0.13465421,9.369671821594238,2.415616512298584,-1.2730082273483276,-7.803860664367676,-48.3751335144043, 11.363834381103516
536,104632623,0.6493525,0.25387743,-0.7047748,0.13107368,9.442047119140625,1.8695253133773804,-1.6392483711242676,-29.75629997253418,-49.302059173583984, 12.317022323608398
537,104649290,0.64546007,0.24941266,-0.7107615,0.12646371,9.767647743225098,0.5796491503715515,-1.8375046253204346,-41.773094177246094,-49.459007263183594, 14.65013599395752
538,104665957,0.64097756,0.24636391,-0.7164267,0.12323123,10.050214767456055,-0.563945472240448,-1.98646879196167,-27.467863082885742,-49.78655242919922, 13.8073148727417
539,104682624,0.6353784,0.24585867,-0.721718,0.122357056,9.864264488220215,-0.3126980662345886,-1.9587539434432983,-2.436508893966675,-51.804603576660156, 11.976417541503906
540,104699291,0.6288697,0.24694806,-0.72690487,0.123081505,9.720226287841797,0.5343776941299438,-2.0442256927490234,14.085770606994629,-54.50693893432617, 11.626922607421875
541,104715958,0.62169635,0.24867941,-0.732142,0.12498176,9.923065185546875,0.8624370694160461,-2.1925933361053467,23.823415756225586,-56.60246276855469, 14.1477632522583
542,104732625,0.61408913,0.25059557,-0.7374369,0.12760702,9.68703556060791,1.4017404317855835,-2.239379644393921,28.95625877380371,-57.963951110839844, 16.787473678588867
543,104749292,0.60624236,0.25170887,-0.7431718,0.12964876,9.677867889404297,2.026520013809204,-2.3175277709960938,22.636369705200195,-61.34905242919922, 19.367555618286133
544,104765959,0.59847337,0.2511402,-0.74957883,0.12996128,9.715957641601562,1.8839585781097412,-2.2786879539489746,6.060328960418701,-65.25846099853516, 21.858787536621094
545,104782626,0.5898235,0.25025523,-0.75663227,0.13033964,9.911907196044922,0.9503215551376343,-3.073573112487793,6.045343399047852,-72.0761489868164, 25.675168991088867
546,104799293,0.58065176,0.24997999,-0.76352274,0.1318593,10.268168449401855,0.9028310179710388,-2.8598856925964355,15.502126693725586,-72.72233581542969, 27.322391510009766
547,104815960,0.570716,0.25066325,-0.7701754,0.13520807,10.893098831176758,0.7433897852897644,-2.9205236434936523,30.461410522460938,-73.5230941772461, 29.880308151245117
548,104832627,0.560126,0.2511274,-0.7770871,0.13903157,11.557443618774414,0.8055952191352844,-2.5679943561553955,33.0054931640625,-76.99993133544922, 33.95992660522461
549,104849294,0.5486411,0.25086373,-0.7847951,0.14197558,12.323470115661621,0.7737131118774414,-1.3978855609893799,26.290451049804688,-85.69434356689453, 36.695560455322266
550,104865961,0.53553903,0.25033167,-0.79340804,0.14503734,12.69481372833252,0.19071455299854279,-1.5407822132110596,27.822811126708984,-97.40416717529297, 41.732181549072266
551,104882628,0.5208638,0.24927494,-0.8026321,0.14948234,14.351853370666504,0.5132045745849609,-1.3122529983520508,35.537559509277344,-105.36988830566406, 52.310848236083984
552,104899295,0.50470674,0.24730624,-0.81295645,0.15235722,14.375432014465332,1.6658889055252075,0.26041918992996216,25.01735496520996,-119.28742218017578, 55.136173248291016
553,104915962,0.48683867,0.24586801,-0.82396656,0.15367611,16.52922248840332,0.7062920928001404,1.3637800216674805,20.35787010192871,-134.49258422851562, 49.74738693237305
554,104932629,0.46660632,0.24678901,-0.8344121,0.15852521,18.208810806274414,1.015873908996582,2.9316701889038086,52.85248565673828,-142.59866333007812, 49.75471878051758
555,104949296,0.44498122,0.25061604,-0.84336287,0.16710016,17.94429588317871,1.804988980293274,5.6303606033325195,87.54680633544922,-142.73516845703125, 44.03715133666992
556,104965963,0.42183006,0.25461885,-0.85158825,0.17895848,14.495412826538086,1.8545652627944946,3.573434352874756,110.59356689453125,-144.02267456054688, 53.59785079956055
557,104982630,0.39457184,0.25767362,-0.86020327,0.19485335,12.35537338256836,-1.2887271642684937,-3.7681994438171387,138.2026824951172,-161.05841064453125, 76.63055419921875
558,104999297,0.36436418,0.2598374,-0.8679732,0.21528198,13.581694602966309,-1.1005606651306152,-8.718769073486328,168.96322631835938,-167.01736450195312, 96.67988586425781
559,105015964,0.33664107,0.25876948,-0.87434196,0.23502705,13.134750366210938,1.273651361465454,-7.710041046142578,154.4165802001953,-145.11178588867188, 108.0940933227539
560,105032631,0.3132593,0.25736856,-0.87903243,0.25086346,10.293746948242188,6.120725154876709,-0.8980225324630737,125.13862609863281,-121.54469299316406, 91.07722473144531
561,105049298,0.30076474,0.2551342,-0.88384676,0.2515201,9.222833633422852,6.541971206665039,0.1751895695924759,12.137727737426758,-81.45932006835938, 44.905765533447266
562,105065965,0.29708558,0.25423744,-0.8863674,0.24790442,11.095993995666504,-0.22166728973388672,-0.4244094789028168,-22.522220611572266,-32.99344253540039, 8.720565795898438
563,105082632,0.3021151,0.25703177,-0.8825763,0.25242886,7.023972988128662,4.4380621910095215,4.075788974761963,30.159046173095703,40.86335754394531, -23.004180908203125
564,105099299,0.31668988,0.26021478,-0.8771813,0.25009778,3.487334728240967,6.973611354827881,1.211889386177063,-24.704652786254883,89.28499603271484, -58.97334289550781
565,105115966,0.338545,0.25939745,-0.8722285,0.23941159,4.016841888427734,2.2045140266418457,-0.2567281723022461,-97.56803894042969,124.15453338623047, -64.74250030517578
566,105132633,0.36649275,0.25706947,-0.8650833,0.22633919,6.242029190063477,1.01614511013031,-0.12705272436141968,-122.65428161621094,164.0288848876953, -75.18352508544922
567,105149300,0.4013753,0.2532874,-0.85429263,0.21196139,6.374305725097656,0.29414695501327515,-0.972916305065155,-140.6829833984375,214.4215545654297, -87.07379150390625
568,105165967,0.4396224,0.24920866,-0.8393762,0.20018749,7.370542526245117,-1.5216434001922607,-1.765735149383545,-126.06063842773438,250.54177856445312, -90.24930572509766
569,105182634,0.480024,0.24546623,-0.820069,0.19185989,8.917799949645996,-1.7445839643478394,-2.1550776958465576,-102.81158447265625,281.6998291015625, -92.28606414794922
570,105199301,0.5219366,0.24217474,-0.79656017,0.18554151,10.322297096252441,-1.5777162313461304,-3.094860076904297,-87.01045227050781,306.8972473144531, -97.30786895751953
571,105215968,0.5638124,0.24002977,-0.76882774,0.18277128,11.508892059326172,-2.0128555297851562,-5.023857116699219,-58.014404296875,326.31561279296875, -97.8597640991211
572,105232635,0.6041949,0.23951857,-0.7374603,0.1836627,12.265557289123535,-2.1334660053253174,-5.837262153625488,-25.286104202270508,336.5323181152344, -96.44400787353516
573,105249302,0.64278674,0.24058181,-0.70287436,0.18685201,13.008602142333984,-2.253668785095215,-6.099039077758789,-0.07970399409532547,342.6615295410156, -97.94071197509766
574,105265969,0.6789085,0.24432456,-0.66522014,0.19201802,14.004483222961426,-2.4393138885498047,-6.433807373046875,29.352710723876953,344.1637878417969, -104.07989501953125
575,105282636,0.7115832,0.25164843,-0.625443,0.19784717,14.825299263000488,-1.6253011226654053,-7.352994441986084,57.70307159423828,334.7441711425781, -116.40516662597656
576,105299303,0.7403354,0.259704,-0.5868077,0.20028482,15.347468376159668,-0.12272341549396515,-8.004010200500488,51.92428970336914,305.4694519042969, -128.85089111328125
577,105315970,0.76550716,0.2636123,-0.5528465,0.19715065,14.273197174072266,0.22283250093460083,-8.486358642578125,8.26848316192627,263.0375671386719, -127.20745086669922
578,105332637,0.7877686,0.26000193,-0.5255944,0.18860096,12.89000129699707,-0.8898630738258362,-9.059239387512207,-55.73313522338867,217.10052490234375, -111.0324935913086
579,105349304,0.8060888,0.2513608,-0.50536174,0.17789982,11.098064422607422,-2.36258602142334,-10.557574272155762,-92.82426452636719,167.59242248535156, -86.86419677734375
580,105365971,0.818725,0.24290456,-0.49265695,0.16726056,8.371306419372559,-4.63697624206543,-12.083013534545898,-90.97562408447266,106.09022521972656, -67.22824096679688
581,105382638,0.824922,0.23722957,-0.48761272,0.15956163,7.331614971160889,-6.768160820007324,-12.246871948242188,-63.4188117980957,42.97054672241211, -39.93674087524414
582,105399305,0.82380587,0.2360773,-0.49107674,0.15638249,6.319579124450684,-5.42087459564209,-11.381462097167969,-20.02225112915039,-27.288860321044922, -7.617287635803223
583,105415972,0.81772894,0.23465663,-0.502235,0.15497002,6.763807773590088,-4.5494704246521,-10.589427947998047,-15.804136276245117,-84.37193298339844, 21.075496673583984
584,105432639,0.80848646,0.23484486,-0.5164697,0.15638627,10.11742115020752,-2.970123052597046,-2.3734421730041504,4.8328938484191895,-109.66585540771484, 39.72267532348633
585,105449306,0.80764997,0.22997761,-0.52341753,0.1443813,23.48713493347168,18.08254623413086,31.1718807220459,-76.66785430908203,-55.50738525390625, -37.76266860961914
586,105465973,0.81331784,0.20654404,-0.5292245,0.12559947,8.776008605957031,-5.374777793884277,-9.645237922668457,-213.3334503173828,-18.220157623291016, -16.732254028320312
587,105482640,0.7926847,0.2214333,-0.5488754,0.14613095,17.79726791381836,-14.124945640563965,-5.96354341506958,169.4776153564453,-168.54791259765625, 106.01371002197266
588,105499307,0.77412325,0.23482074,-0.5655173,0.16057031,10.25340747833252,3.9062187671661377,-0.07320481538772583,138.17393493652344,-152.01318359375, 71.65611267089844
589,105515974,0.76194197,0.24114913,-0.5786129,0.16278361,9.267415046691895,3.841304063796997,-2.8633439540863037,46.649959564208984,-120.25444030761719, 21.25815200805664
590,105532641,0.74683464,0.25359768,-0.5908318,0.16983534,9.845682144165039,4.089489936828613,-3.9608206748962402,103.78422546386719,-126.11444854736328, 24.090757369995117
591,105549308,0.73771226,0.24888119,-0.60554427,0.16478808,11.891273498535156,3.1091463565826416,-2.495438814163208,-46.87525939941406,-115.62039184570312, 29.070600509643555
592,105565975,0.7333645,0.2389609,-0.61770946,0.15332726,10.663016319274902,1.4807695150375366,-0.7233208417892456,-105.26844024658203,-87.87097930908203, 8.46397876739502
593,105582642,0.72794807,0.23451433,-0.6274019,0.14649777,9.609384536743164,-0.6446180939674377,-1.863052248954773,-53.637107849121094,-78.09054565429688, 5.650897979736328
594,105599309,0.7208689,0.23397908,-0.63604754,0.14507036,10.130016326904297,-0.14228254556655884,-1.3024933338165283,-7.026043891906738,-75.2384033203125, 15.797124862670898
595,105615976,0.71336824,0.23558772,-0.6433489,0.14733109,10.086432456970215,-0.3637811839580536,-0.9663774371147156,21.745922088623047,-66.61701965332031, 22.949665069580078
596,105632643,0.70559,0.23821583,-0.6501737,0.15056612,10.693373680114746,0.956508457660675,-0.1306774914264679,31.987651824951172,-64.9622802734375, 22.71422004699707
597,105649310,0.6997229,0.23705442,-0.6572929,0.14885911,10.042082786560059,3.433743715286255,0.08855221420526505,-11.92396354675293,-62.02581024169922, 14.182429313659668
598,105665977,0.6968328,0.22984529,-0.66475934,0.14032263,9.518712997436523,2.6730995178222656,-1.0079721212387085,-77.09137725830078,-55.1915283203125, 6.205764293670654
599,105682644,0.6955013,0.21933186,-0.6720482,0.12854199,9.65142822265625,0.7353725433349609,-1.1346135139465332,-110.04611206054688,-49.152835845947266, 4.012991428375244
600,105699311,0.6930051,0.2130609,-0.67799973,0.12110128,9.87257194519043,-1.517676591873169,-1.510257363319397,-66.76502990722656,-45.34009552001953, 4.191352844238281
601,105715978,0.6882528,0.21306215,-0.6829749,0.120241046,9.686601638793945,-0.9282704591751099,-0.9653698801994324,-2.089205741882324,-46.78224182128906, 6.742256164550781
602,105732645,0.68211555,0.21583593,-0.687777,0.12286625,9.260563850402832,0.24320772290229797,-0.41456446051597595,29.567554473876953,-49.657958984375, 11.091734886169434
603,105749312,0.67535955,0.2189971,-0.6928098,0.12627079,9.753521919250488,1.0069106817245483,-0.7602445483207703,35.7931022644043,-52.84798812866211, 13.770843505859375
604,105765979,0.6684563,0.2213777,-0.698259,0.12881355,9.76884651184082,1.3842954635620117,-0.9611931443214417,27.924169540405273,-56.112117767333984, 14.23921012878418
605,105782646,0.6617855,0.22236338,-0.70412683,0.12961546,9.74354362487793,1.7297016382217407,-0.9126575589179993,12.431306838989258,-58.34188461303711, 13.369114875793457
606,105799313,0.6556504,0.22150269,-0.7103173,0.128486,9.642608642578125,1.3868647813796997,-1.487931251525879,-6.425745010375977,-58.53226852416992, 13.544636726379395
607,105815980,0.6496972,0.2198431,-0.71661055,0.12661773,9.647909164428711,0.936181902885437,-1.6478157043457031,-14.002049446105957,-58.52976989746094, 14.11956787109375
608,105832647,0.64357775,0.2183306,-0.7228913,0.12477054,9.652027130126953,0.6104431748390198,-1.6496096849441528,-12.979836463928223,-59.391788482666016, 13.619912147521973
609,105849314,0.6367762,0.2180723,-0.72902155,0.124451645,9.763813018798828,0.14673016965389252,-2.082685947418213,1.3185409307479858,-60.90317916870117, 14.509903907775879
610,105865981,0.6293554,0.2185471,-0.73515123,0.12530628,9.752336502075195,0.6127188205718994,-2.121473550796509,11.337987899780273,-62.87503433227539, 16.497589111328125
611,105882648,0.6215148,0.21915737,-0.7413425,0.12688884,9.735376358032227,0.8409640789031982,-2.39690899848938,16.181180953979492,-64.28966522216797, 19.415428161621094
612,105899315,0.61344343,0.21936469,-0.747663,0.12871063,9.882163047790527,0.9863436818122864,-2.4712460041046143,15.913932800292969,-65.30925750732422, 22.88861083984375
613,105915982,0.60519546,0.21896654,-0.7541949,0.13031659,10.074387550354004,1.0055201053619385,-2.4550821781158447,12.331829071044922,-66.90252685546875, 25.568742752075195
614,105932649,0.5967386,0.21798685,-0.7609983,0.13140179,10.091094970703125,0.6284587383270264,-2.5778839588165283,7.285106182098389,-69.38475036621094, 27.017595291137695
615,105949316,0.5876738,0.21719463,-0.7679619,0.13304351,10.170926094055176,0.4496080279350281,-3.5192184448242188,11.734442710876465,-72.56413269042969, 29.11081314086914
616,105965983,0.5778671,0.21705885,-0.7749057,0.1359283,11.121450424194336,0.698728084564209,-2.869448661804199,22.078105926513672,-75.14543914794922, 31.31592559814453
617,105982650,0.5681592,0.21721166,-0.78147304,0.13897642,11.636388778686523,0.06356468796730042,-2.7023701667785645,24.30204963684082,-73.16053009033203, 29.774499893188477
618,105999317,0.55741155,0.21731116,-0.7883096,0.14365344,12.868505477905273,-0.2380291074514389,-2.1055409908294678,34.141998291015625,-77.33248901367188, 37.81600570678711
619,106015984,0.5449709,0.21687569,-0.7960236,0.1493932,14.56102466583252,1.4406918287277222,-0.5756536722183228,39.51658630371094,-87.7852554321289, 47.76637649536133
620,106032651,0.5302255,0.215362,-0.805764,0.15239674,14.350687026977539,1.4500021934509277,0.5311805009841919,21.86292266845703,-111.01905059814453, 48.81753158569336
621,106049318,0.51268023,0.21384586,-0.8170412,0.15450786,15.993505477905273,-0.32655730843544006,1.3197377920150757,19.45090675354004,-133.5192108154297, 50.80523681640625
622,106065985,0.491932,0.21473424,-0.82853156,0.15946129,17.854917526245117,-0.33622854948043823,1.8454397916793823,48.375770568847656,-150.72824096679688, 51.038570404052734
623,106082652,0.468824,0.21965404,-0.8387034,0.16891716,19.27916145324707,0.44435614347457886,3.804377794265747,92.58829498291016,-157.59326171875, 43.95167541503906
624,106099319,0.44556847,0.22622234,-0.8470095,0.18129352,17.585006713867188,3.433640241622925,6.834066867828369,117.13179016113281,-150.07229614257812, 41.23685836791992
625,106115986,0.42236716,0.23051047,-0.8547546,0.1945913,10.720046043395996,2.2906720638275146,-0.5100616216659546,116.13484191894531,-143.9220733642578, 56.45798110961914
626,106132653,0.3927578,0.2346936,-0.86311173,0.21377186,8.816214561462402,-5.643128871917725,-13.879959106445312,159.76849365234375,-173.9718475341797, 83.75686645507812
627,106149320,0.35863668,0.23777804,-0.8699715,0.24081342,12.931812286376953,-1.9645278453826904,-10.65650749206543,212.94882202148438,-182.3575897216797, 115.71537017822266
628,106165987,0.33062667,0.23887822,-0.8740927,0.26379055,10.715237617492676,4.084954738616943,-2.782954692840576,178.26744079589844,-142.381103515625, 102.9750747680664
629,106182654,0.3152403,0.24032551,-0.87728864,0.27061474,10.362923622131348,6.450287342071533,2.4914932250976562,62.92550277709961,-91.59590148925781, 39.80551528930664
630,106199321,0.30988142,0.24465163,-0.8770365,0.27372673,9.931209564208984,2.0239956378936768,0.8363965153694153,36.65568542480469,-35.218448638916016, -9.872982025146484
631,106215988,0.31065464,0.24908985,-0.8732455,0.28087452,4.926933288574219,5.3330183029174805,1.7979857921600342,57.589744567871094,15.800034523010254, -19.38799476623535
632,106232655,0.31905115,0.25222266,-0.86921823,0.28115836,2.7143912315368652,6.011195182800293,0.9314497709274292,1.0233012437820435,52.793663024902344, -41.276512145996094
633,106249322,0.33460176,0.25223947,-0.8663162,0.27186996,4.265014171600342,4.013790607452393,0.6606849431991577,-77.56385803222656,82.47836303710938, -55.483428955078125
634,106265989,0.35801804,0.25047302,-0.86243623,0.25551987,5.602113723754883,2.0713014602661133,-1.4459102153778076,-135.5316619873047,122.63319396972656, -77.47830200195312
635,106282656,0.3875608,0.24731295,-0.856237,0.23556598,6.067101955413818,0.47799766063690186,-1.380938172340393,-166.81005859375,160.89114379882812, -92.83562469482422
636,106299323,0.42144835,0.24354354,-0.8465215,0.21556771,6.869643211364746,-0.25423234701156616,-1.3270232677459717,-170.3953399658203,196.7257537841797, -102.39114379882812
637,106315990,0.459198,0.23853105,-0.8329883,0.19588462,7.841850757598877,-1.0910813808441162,-1.8293014764785767,-172.98971557617188,232.6156463623047, -106.37528991699219
638,106332657,0.498529,0.23294365,-0.8156538,0.17864783,9.09327507019043,-2.5452141761779785,-3.089021921157837,-158.2769317626953,258.43499755859375, -103.74613189697266
639,106349324,0.5378305,0.22865288,-0.79394746,0.16764234,10.566370964050293,-2.98732590675354,-4.484856128692627,-113.47232818603516,281.6254577636719, -96.65673828125
640,106365991,0.57614106,0.22608845,-0.76840204,0.16280065,11.20334529876709,-2.876115322113037,-5.312597274780273,-67.46007537841797,298.1167907714844, -88.21611785888672
641,106382658,0.61255926,0.22541097,-0.73982996,0.16313486,11.82271957397461,-3.1171464920043945,-5.613468170166016,-26.314899444580078,306.06439208984375, -80.30036163330078
642,106399325,0.64667225,0.22787234,-0.70833266,0.16779253,12.738821983337402,-3.2930197715759277,-5.356523513793945,15.752921104431152,309.87994384765625, -80.04315185546875
643,106415992,0.6783491,0.2343506,-0.6740621,0.17482226,13.588542938232422,-2.43135404586792,-4.959322452545166,52.18442153930664,309.48211669921875, -90.63742065429688
644,106432659,0.70725065,0.2440312,-0.6382037,0.1814987,14.41434097290039,-1.0131603479385376,-5.238012790679932,71.8660659790039,299.6624755859375, -106.38461303710938
645,106449326,0.73350817,0.25345942,-0.60304826,0.18454553,14.481156349182129,0.3277096748352051,-5.2600603103637695,58.26197052001953,278.92535400390625, -118.46920776367188
646,106465993,0.75753,0.2585461,-0.57104754,0.18222816,13.534919738769531,0.40882155299186707,-5.078295707702637,14.00210189819336,249.97279357910156, -119.1949462890625
647,106482660,0.77928144,0.25778565,-0.5434602,0.1758358,13.19552993774414,-0.9675451517105103,-6.169756889343262,-33.963623046875,218.23341369628906, -106.78815460205078
648,106499327,0.7970704,0.25367662,-0.5215592,0.16823605,11.371891021728516,-2.019770383834839,-7.787034034729004,-56.27891159057617,174.970703125, -85.91407775878906
649,106515994,0.8101727,0.24814798,-0.5066385,0.15924992,8.942069053649902,-2.564807891845703,-8.812578201293945,-68.94083404541016,119.26588439941406, -70.87641143798828
650,106532661,0.8183054,0.24220294,-0.49890327,0.1510291,7.585637092590332,-4.488308906555176,-9.692706108093262,-67.99575805664062,63.838871002197266, -47.5145149230957
651,106549328,0.81972504,0.23863111,-0.49973854,0.14617693,6.960154056549072,-4.342355251312256,-10.282023429870605,-40.818477630615234,-4.102708339691162, -15.531761169433594
652,106565995,0.81584406,0.2357204,-0.50809073,0.14379984,7.545908451080322,-2.747555732727051,-9.312841415405273,-27.45976448059082,-61.11776351928711, 13.737028121948242
653,106582662,0.80801785,0.23296283,-0.5218541,0.14319268,10.11445426940918,-3.5526700019836426,-7.0014753341674805,-19.392690658569336,-102.38069152832031, 35.74861526489258
654,106599329,0.80196136,0.22894719,-0.5342567,0.13788097,20.799039840698242,9.711133003234863,20.644872665405273,-44.769996643066406,-94.62527465820312, 10.136569023132324
655,106615996,0.8034902,0.20723093,-0.54511255,0.119630046,9.962750434875488,0.5578795075416565,-6.125307083129883,-200.385009765625,-61.99126052856445, -5.728823184967041
656,106632663,0.7861275,0.21366484,-0.56519926,0.13000356,15.427877426147461,-12.615837097167969,-4.751587867736816,81.75177001953125,-166.03936767578125, 75.5938949584961
657,106649330,0.76885396,0.22322372,-0.58205885,0.14227587,9.979035377502441,2.0019872188568115,-0.6406630277633667,108.80184936523438,-148.1357879638672, 68.66239929199219
658,106665997,0.7568106,0.2291324,-0.59471583,0.14508465,8.697026252746582,2.764808177947998,-3.5195529460906982,47.691036224365234,-115.89887237548828, 21.652090072631836
659,106682664,0.74189264,0.24008249,-0.607285,0.15218697,11.370383262634277,-2.2149364948272705,-3.4928367137908936,96.07606506347656,-125.40313720703125, 26.106826782226562
660,106699331,0.7314345,0.24423178,-0.6176668,0.15440929,12.178171157836914,1.585056185722351,-2.153489351272583,35.91445541381836,-96.49022674560547, 21.255544662475586
661,106715998,0.7256077,0.24387376,-0.6259193,0.14914538,10.047863006591797,1.4182829856872559,-1.056948184967041,-24.082021713256836,-73.84608459472656, -5.7496747970581055
662,106732665,0.72031116,0.24378438,-0.63337296,0.14338702,9.10134506225586,2.8501083850860596,-0.760319173336029,-24.959121704101562,-68.650634765625, -11.247560501098633
663,106749332,0.7149238,0.24088797,-0.641871,0.13732679,9.996252059936523,2.3998219966888428,-0.02845655009150505,-41.0692253112793,-71.93275451660156, 1.3552840948104858
664,106765999,0.70870185,0.23953027,-0.64971906,0.13502672,9.650230407714844,0.5858333706855774,-0.7942538857460022,-14.925573348999023,-67.63410186767578, 12.782785415649414
665,106782666,0.70235217,0.23818973,-0.6574435,0.13317406,10.140198707580566,1.8004107475280762,-0.5767894983291626,-12.526704788208008,-66.86251831054688, 14.795228004455566
666,106799333,0.69737756,0.23472233,-0.66501296,0.12777978,10.331649780273438,2.31870436668396,-0.9684849977493286,-40.92373275756836,-63.73591613769531, 5.809570789337158
667,106816000,0.6942178,0.22779332,-0.6722556,0.11934997,9.877755165100098,2.531235933303833,-1.4833003282546997,-74.050048828125,-55.70671081542969, 4.994864463806152
668,106832667,0.691633,0.22030559,-0.6788561,0.11074167,9.697275161743164,-0.5274375081062317,-1.652035117149353,-77.92311096191406,-49.77524185180664, 5.29336404800415
669,106849334,0.687295,0.21967621,-0.68387824,0.108067945,9.72996997833252,-1.164796233177185,-1.4137822389602661,-13.762560844421387,-46.658199310302734, 0.43688589334487915
670,106866001,0.68125147,0.22400956,-0.68803954,0.11098619,9.661797523498535,0.46531805396080017,-1.1628013849258423,39.18773651123047,-45.83810043334961, 3.451758861541748
671,106882668,0.67472094,0.22901794,-0.69210446,0.11529939,9.471181869506836,1.9185442924499512,-1.0702157020568848,49.76512145996094,-46.05582809448242, 6.986361503601074
672,106899335,0.6688737,0.23142649,-0.69664806,0.11718031,9.739601135253906,2.1729724407196045,-0.8099398612976074,24.671009063720703,-46.793643951416016, 8.282903671264648
673,106916002,0.66359836,0.2313527,-0.70178276,0.11667985,9.614299774169922,1.6198450326919556,-0.9855064153671265,0.46179452538490295,-48.56602478027344, 9.711503982543945
674,106932669,0.6584586,0.22999626,-0.7073302,0.11497148,9.668501853942871,1.4650739431381226,-1.3201223611831665,-11.767691612243652,-50.6881103515625, 10.946393013000488
675,106949336,0.6533738,0.22803108,-0.71299326,0.11289572,9.722967147827148,1.1774801015853882,-1.6231516599655151,-16.491195678710938,-51.03870391845703, 12.393228530883789
676,106966003,0.648158,0.2262606,-0.7185669,0.11117202,9.647500991821289,0.7077406048774719,-1.8818137645721436,-13.619093894958496,-50.871097564697266, 12.988662719726562
677,106982670,0.64239115,0.22579658,-0.7239432,0.110706426,9.71106243133545,0.3853256106376648,-1.799687147140503,-0.577994704246521,-51.74699783325195, 12.251540184020996
678,106999337,0.63597125,0.22668484,-0.72919244,0.111503996,9.72704792022705,0.2915586531162262,-1.8597321510314941,12.787339210510254,-53.50296401977539, 11.386910438537598
679,107016004,0.6288323,0.2288734,-0.7343446,0.113688976,9.849791526794434,0.6953659653663635,-1.9768328666687012,26.617334365844727,-55.52035140991211, 11.316032409667969
680,107032671,0.6211349,0.23154388,-0.7395852,0.116588436,9.495134353637695,1.598615050315857,-2.2376465797424316,33.11189270019531,-57.97904586791992, 12.532567024230957
681,107049338,0.61329526,0.23324601,-0.7452248,0.11876651,9.607207298278809,1.8035328388214111,-2.2596797943115234,25.214527130126953,-60.779502868652344, 15.125853538513184
682,107066005,0.6053014,0.23360316,-0.7514866,0.119614765,9.7179536819458,1.38797926902771,-2.1824936866760254,12.467758178710938,-65.23136138916016, 17.543947219848633
683,107082672,0.5967165,0.23340955,-0.75828725,0.12020763,9.906805038452148,0.6825593709945679,-2.876364231109619,9.362396240234375,-70.49150085449219, 20.68555450439453
684,107099339,0.58721304,0.23379596,-0.76524544,0.122145966,10.30337905883789,0.3074021637439728,-3.088451862335205,20.097455978393555,-74.24726104736328, 24.188949584960938
685,107116006,0.57737595,0.23473641,-0.77189237,0.12537168,10.836578369140625,0.4647040367126465,-3.0095245838165283,29.900846481323242,-73.14527893066406, 26.23752784729004
686,107132673,0.56704897,0.235668,-0.77855,0.12952259,11.494401931762695,0.5566160678863525,-2.769286870956421,35.55543518066406,-74.2996597290039, 30.383899688720703
687,107149340,0.555919,0.23586209,-0.7858817,0.13309203,12.097694396972656,1.2952160835266113,-1.6414109468460083,30.267847061157227,-81.53693389892578, 33.86304473876953
688,107166007,0.5436433,0.2353969,-0.7940761,0.13595502,12.241074562072754,0.9640241861343384,-1.9636893272399902,25.005502700805664,-91.62305450439453, 37.181800842285156
689,107182674,0.5300254,0.23438045,-0.80296457,0.13923675,13.686990737915039,0.3374086022377014,-1.7845220565795898,26.758638381958008,-100.40690612792969, 44.141937255859375
690,107199341,0.5148565,0.23289052,-0.812461,0.14349887,14.342778205871582,1.0620149374008179,-0.5401567816734314,32.36368179321289,-109.2284164428711, 52.79436492919922
691,107216008,0.49789023,0.2319333,-0.8228188,0.14588168,15.556985855102539,0.7493369579315186,0.6093007326126099,25.784713745117188,-125.9648666381836, 46.33726501464844
692,107232675,0.47853065,0.23275624,-0.8331896,0.15042658,17.969890594482422,0.657401978969574,2.4464917182922363,47.9133415222168,-138.03988647460938, 46.109519958496094
693,107249342,0.45704478,0.23657948,-0.84249747,0.15918031,19.095256805419922,0.7290350794792175,4.864046096801758,86.39496612548828,-143.31326293945312, 43.292510986328125
694,107266009,0.4343315,0.2425213,-0.8502824,0.17193,16.580406188964844,2.01680326461792,5.9716386795043945,119.85604858398438,-141.7454833984375, 42.483680725097656
695,107282676,0.4090073,0.24794973,-0.85781556,0.1881135,11.875696182250977,0.47257959842681885,-0.9325202703475952,143.05479431152344,-150.2197723388672, 58.48353576660156
696,107299343,0.37770298,0.25201735,-0.86625266,0.20840871,12.008859634399414,-3.182626962661743,-10.175198554992676,172.51321411132812,-179.4117889404297, 87.41374206542969
697,107316010,0.34719884,0.25330275,-0.87233275,0.23308042,13.745284080505371,0.885748565196991,-9.681400299072266,193.32635498046875,-156.94728088378906, 110.13479614257812
698,107332677,0.32117516,0.25229913,-0.87736344,0.25184372,10.156025886535645,5.127861499786377,-2.908480167388916,146.31619262695312,-134.21043395996094, 100.82676696777344
699,107349344,0.30476975,0.2512821,-0.88192415,0.25726053,9.445267677307129,7.244760990142822,1.2065508365631104,49.959014892578125,-98.357421875, 54.087066650390625
700,107366011,0.29912812,0.2519301,-0.88448024,0.25445732,11.188096046447754,0.7756211757659912,-1.4428850412368774,-11.359222412109375,-46.17921447753906, 4.420077800750732
