PacketCounter,SampleTimeFine,Quat_W,Quat_X,Quat_Y,Quat_Z,Acc_X,Acc_Y,Acc_Z,Gyr_X,Gyr_Y,Gyr_Z 
1,128445403,0.22447921,-0.67883974,-0.30484375,-0.6291709,-1.5345618724822998,0.32212990522384644,1.4412016868591309,0.3008667230606079,2.2989301681518555, -1.2352043390274048
2,128462070,0.22358564,-0.6792701,-0.3046858,-0.6291012,9.74691104888916,0.7925553917884827,-1.0739790201187134,-6.460894584655762,-2.5313291549682617, -3.794957399368286
3,128478737,0.22239216,-0.6796364,-0.304357,-0.62928754,9.76011848449707,0.7845748662948608,-1.059122085571289,-7.380467891693115,-1.614458680152893, -3.1891918182373047
4,128495404,0.22133084,-0.67988247,-0.30402595,-0.62955624,9.720430374145508,0.7488089203834534,-1.067641258239746,-7.3611555099487305,-1.5250444412231445, -3.105220317840576
5,128512071,0.22026862,-0.68017477,-0.30364162,-0.6297983,9.697761535644531,0.6835454702377319,-1.108955979347229,-6.719480514526367,-1.77590811252594, -3.884870767593384
6,128528738,0.21943901,-0.6805857,-0.30327058,-0.62982273,9.69359302520752,0.7719281315803528,-1.07062566280365,-5.490198612213135,-2.165938377380371, -3.8316869735717773
7,128545405,0.2185823,-0.68098277,-0.30290532,-0.62986726,9.716981887817383,0.8961817622184753,-1.044217586517334,-4.861854553222656,-2.3570473194122314, -3.421025037765503
8,128562072,0.21776043,-0.6811228,-0.30284512,-0.6300293,9.622075080871582,1.060523271560669,-1.0113601684570312,-3.438082456588745,-1.6179672479629517, -3.8142693042755127
9,128578739,0.21654858,-0.68124515,-0.30277163,-0.6303502,9.728631019592285,1.0746665000915527,-1.035971760749817,-4.644761562347412,-1.95827054977417, -3.7947139739990234
10,128595406,0.21507227,-0.68157685,-0.30255765,-0.63059956,9.609119415283203,1.062772512435913,-1.0246354341506958,-8.318083763122559,-3.8287405967712402, -2.6436281204223633
11,128612073,0.21306993,-0.6823381,-0.30184793,-0.6307961,9.635008811950684,1.1071208715438843,-0.7051184773445129,-13.161863327026367,-6.33904504776001, -1.3506611585617065
12,128628740,0.21072868,-0.68327844,-0.30080315,-0.631064,9.58570384979248,0.9731841087341309,-0.9260109066963196,-17.870338439941406,-8.529399871826172, -0.6251044273376465
13,128645407,0.20852607,-0.68439114,-0.2998042,-0.63106513,9.734764099121094,0.6557080149650574,-1.017309308052063,-16.708555221557617,-10.340245246887207, 0.026041749864816666
14,128662074,0.2064002,-0.68558294,-0.2988185,-0.6309379,9.719298362731934,0.5073258876800537,-1.1700448989868164,-14.390523910522461,-10.758753776550293, -0.9748972654342651
15,128678741,0.20490026,-0.68659395,-0.2983355,-0.63055575,9.817913055419922,0.3461497724056244,-1.2943861484527588,-9.88192367553711,-10.186367988586426, -1.8277746438980103
16,128695408,0.20378433,-0.6874598,-0.2981756,-0.6300495,9.764094352722168,0.5842924118041992,-1.2744196653366089,-6.84522819519043,-9.263862609863281, -3.047490119934082
17,128712075,0.20265907,-0.6882044,-0.2981535,-0.62961,9.757863998413086,0.707757294178009,-1.2721645832061768,-6.935601711273193,-8.347476959228516, -4.398265361785889
18,128728742,0.20142795,-0.68890893,-0.2981234,-0.6292487,9.724923133850098,0.7574925422668457,-1.2536842823028564,-6.8831987380981445,-7.728123664855957, -5.148039817810059
19,128745409,0.1998515,-0.6896725,-0.29793853,-0.6290024,9.680668830871582,0.7925448417663574,-1.1556729078292847,-7.943871021270752,-7.672145843505859, -6.096874713897705
20,128762076,0.19799447,-0.69043016,-0.29769456,-0.62887394,9.701435089111328,0.7926017642021179,-1.1546483039855957,-10.219076156616211,-7.7017316818237305, -7.050566673278809
21,128778743,0.19620034,-0.69116086,-0.2976957,-0.62863296,9.72756576538086,0.6522256731987,-1.2497421503067017,-8.583962440490723,-8.402610778808594, -7.782501220703125
22,128795410,0.19440348,-0.69189376,-0.2979352,-0.6282715,9.713343620300293,0.6615307927131653,-1.2005878686904907,-7.787380695343018,-9.331737518310547, -8.824963569641113
23,128812077,0.19276133,-0.69260734,-0.29845,-0.62774664,9.814398765563965,0.521558940410614,-1.367110252380371,-4.587660312652588,-10.024304389953613, -9.507234573364258
24,128828744,0.19188283,-0.6930891,-0.29975578,-0.62686133,9.814340591430664,0.660595178604126,-1.3899565935134888,2.7795369625091553,-10.211893081665039, -10.102757453918457
25,128845411,0.19101602,-0.69356,-0.301128,-0.6259468,9.765070915222168,0.9395507574081421,-1.1804255247116089,4.37815523147583,-10.171258926391602, -10.585955619812012
26,128862078,0.19031441,-0.69403774,-0.3026119,-0.6249146,9.56387996673584,1.0099608898162842,-1.455073356628418,6.301106929779053,-10.653060913085938, -10.12826919555664
27,128878745,0.18973848,-0.6944539,-0.3041817,-0.6238643,9.591198921203613,1.1815437078475952,-1.4334467649459839,5.716022491455078,-10.426194190979004, -9.653676986694336
28,128895412,0.18897209,-0.6951459,-0.30519366,-0.6228312,9.514533042907715,1.489428162574768,-1.599412202835083,4.983510971069336,-10.808579444885254, -7.434718132019043
29,128912079,0.18798646,-0.6959399,-0.30595818,-0.62186694,9.539713859558105,1.6163831949234009,-1.4792470932006836,-0.03749701380729675,-11.246978759765625, -6.242305278778076
30,128928746,0.18652777,-0.69709706,-0.3062363,-0.62087244,9.438901901245117,1.8329309225082397,-1.325724482536316,-4.3233113288879395,-13.245015144348145, -4.795379161834717
31,128945413,0.18444978,-0.6985399,-0.30585876,-0.62005717,9.519804954528809,1.733223795890808,-1.6946783065795898,-12.115371704101562,-14.314237594604492, -3.250370740890503
32,128962080,0.18232407,-0.6999174,-0.3052744,-0.61942,9.61251449584961,1.3797107934951782,-1.6805065870285034,-12.590460777282715,-12.81066608428955, -2.6564879417419434
33,128978747,0.18042383,-0.7011148,-0.30499715,-0.61875844,9.687984466552734,0.7987802624702454,-1.789988398551941,-10.312398910522461,-12.071109771728516, -3.36967396736145
34,128995414,0.17927459,-0.7019907,-0.305506,-0.6178477,9.683887481689453,0.990100622177124,-1.6502166986465454,-3.234168529510498,-11.330795288085938, -4.392580032348633
35,129012081,0.17810756,-0.7029389,-0.30602568,-0.6168494,9.570647239685059,1.4330395460128784,-1.7156133651733398,-2.0387723445892334,-11.970999717712402, -4.556617259979248
36,129028748,0.17679742,-0.7040248,-0.30619407,-0.61590344,9.492452621459961,1.6079853773117065,-1.8105909824371338,-3.6038239002227783,-12.043725967407227, -3.3058459758758545
37,129045415,0.17547704,-0.70515233,-0.30621025,-0.6149825,9.514996528625488,1.7059699296951294,-1.7114737033843994,-5.882101058959961,-12.09324836730957, -2.1353321075439453
38,129062082,0.17393984,-0.70642316,-0.3058133,-0.6141577,9.499497413635254,1.7515671253204346,-1.8352245092391968,-8.786224365234375,-12.17386531829834, -0.751617968082428
39,129078749,0.17232741,-0.70787704,-0.30516335,-0.6132607,9.498570442199707,1.6238927841186523,-1.7803184986114502,-10.192325592041016,-13.125200271606445, 0.7642259001731873
40,129095416,0.17065826,-0.7094647,-0.30425507,-0.6123435,9.518133163452148,1.3613615036010742,-1.8638768196105957,-10.66689395904541,-13.479798316955566, 1.9783846139907837
41,129112083,0.1695229,-0.7110056,-0.30364007,-0.61117584,9.507575988769531,1.2659850120544434,-1.9145296812057495,-6.712274551391602,-13.79097843170166, 3.071701765060425
42,129128750,0.16858488,-0.71255535,-0.30308345,-0.6099053,9.543472290039062,1.175193428993225,-1.937047004699707,-5.41482400894165,-13.993216514587402, 3.739694595336914
43,129145417,0.1678037,-0.71411264,-0.30264854,-0.6085136,9.500351905822754,1.330009937286377,-1.8672325611114502,-3.67969012260437,-14.401240348815918, 3.8530306816101074
44,129162084,0.1669365,-0.7158253,-0.30214933,-0.60698617,9.576583862304688,1.3247928619384766,-1.7711354494094849,-4.748035907745361,-15.911688804626465, 4.382561683654785
45,129178751,0.16623978,-0.7177419,-0.30163112,-0.60516924,9.648539543151855,1.053992509841919,-1.773971676826477,-2.418853521347046,-17.715070724487305, 5.675057411193848
46,129195418,0.1661408,-0.7196608,-0.30163115,-0.6029132,9.64893913269043,0.907636821269989,-1.7949138879776,3.4808666706085205,-19.3282527923584, 6.055804252624512
47,129212085,0.16692676,-0.72149694,-0.30238035,-0.60012,9.674413681030273,0.7480889558792114,-1.8750444650650024,11.39115047454834,-20.83199119567871, 6.533089637756348
48,129228752,0.16861731,-0.72323513,-0.3038308,-0.5968134,9.659173965454102,0.9115397334098816,-2.1332919597625732,20.31616973876953,-21.910263061523438, 6.963904857635498
49,129245419,0.17059922,-0.7248719,-0.3056445,-0.593328,9.650232315063477,1.1502803564071655,-2.2976675033569336,23.10430908203125,-22.285015106201172, 6.432557582855225
50,129262086,0.17267096,-0.7262841,-0.30757508,-0.5899948,9.745049476623535,0.9124011993408203,-2.4994301795959473,23.95956802368164,-20.551715850830078, 5.567074775695801
51,129278753,0.17527454,-0.72742707,-0.3101517,-0.5864594,9.6001615524292,0.6368857026100159,-2.360546827316284,30.318206787109375,-20.042171478271484, 4.033756256103516
52,129295420,0.17866018,-0.7283555,-0.31362703,-0.5824234,9.477113723754883,0.6858846545219421,-2.3382534980773926,39.440589904785156,-21.07402229309082, 2.6783454418182373
53,129312087,0.18292764,-0.72924805,-0.31722286,-0.578018,9.533283233642578,1.0243897438049316,-2.63373064994812,44.38944625854492,-21.130016326904297, 6.13236665725708
54,129328754,0.18698047,-0.73046815,-0.32013527,-0.5735573,9.443686485290527,1.4892590045928955,-2.675856828689575,40.45071792602539,-22.28360939025879, 9.463269233703613
55,129345421,0.19055901,-0.73208356,-0.32219055,-0.5691523,9.55205249786377,1.4326540231704712,-2.7843964099884033,33.24753952026367,-23.568050384521484, 13.03925895690918
56,129362088,0.19373065,-0.73397434,-0.32336336,-0.56496596,9.844911575317383,1.5099326372146606,-2.9508745670318604,27.69837188720703,-23.20050811767578, 16.078020095825195
57,129378755,0.19689977,-0.7358616,-0.3241878,-0.5609283,10.128052711486816,1.1285427808761597,-3.079084634780884,25.378084182739258,-22.015396118164062, 17.920948028564453
58,129395422,0.20025375,-0.7377497,-0.32479832,-0.55689335,10.417694091796875,0.8231634497642517,-2.8755009174346924,25.927692413330078,-21.257158279418945, 19.62314224243164
59,129412089,0.20354863,-0.73966014,-0.32513484,-0.55295414,10.273382186889648,0.4147087335586548,-2.776944160461426,24.235994338989258,-20.662601470947266, 20.73819351196289
60,129428756,0.20663804,-0.74155223,-0.32530332,-0.549162,10.025557518005371,-0.04659527167677879,-2.8936946392059326,22.224769592285156,-20.128612518310547, 20.531160354614258
61,129445423,0.20954314,-0.74330074,-0.3254205,-0.5456164,10.049286842346191,-0.1260855495929718,-2.842741012573242,19.684993743896484,-18.75649642944336, 19.675233840942383
62,129462090,0.21164517,-0.7450853,-0.32504702,-0.54258513,9.751372337341309,0.04504640772938728,-2.983339786529541,12.764525413513184,-17.385766983032227, 18.347007751464844
63,129478757,0.21307075,-0.7468683,-0.32428324,-0.54002684,9.608145713806152,-0.12820598483085632,-3.1998472213745117,7.267611503601074,-15.903277397155762, 16.916461944580078
64,129495424,0.21465634,-0.7483519,-0.32373276,-0.5376704,9.295571327209473,-0.466179758310318,-3.4466207027435303,8.886412620544434,-13.703598976135254, 15.381548881530762
65,129512091,0.21690503,-0.74937075,-0.32382277,-0.5352891,9.094597816467285,-0.3666752874851227,-3.4817912578582764,15.47000503540039,-11.534637451171875, 13.420228958129883
66,129528758,0.21963367,-0.7499997,-0.3243844,-0.5329507,8.874961853027344,-0.1301441341638565,-3.5762455463409424,19.801008224487305,-9.471750259399414, 11.881661415100098
67,129545425,0.22243257,-0.7504423,-0.32513547,-0.5307044,8.760303497314453,0.2972742021083832,-3.503610134124756,21.03670883178711,-8.376471519470215, 10.547531127929688
68,129562092,0.22464223,-0.7510168,-0.32567632,-0.52862525,8.539358139038086,0.5254821181297302,-3.4951651096343994,17.896564483642578,-8.92624568939209, 9.109113693237305
69,129578759,0.22612227,-0.7518548,-0.3258194,-0.52671146,8.484818458557129,0.37727585434913635,-3.5364770889282227,10.738166809082031,-10.004611015319824, 9.33919906616211
70,129595426,0.2271166,-0.75289965,-0.32581764,-0.52478886,8.319925308227539,0.42463135719299316,-3.5968306064605713,8.061264038085938,-11.600207328796387, 8.621709823608398
71,129612093,0.22716478,-0.7543393,-0.32565552,-0.52279717,8.30814266204834,0.6049731373786926,-3.6712889671325684,1.6411035060882568,-15.191267967224121, 7.264428615570068
72,129628760,0.22655144,-0.7562306,-0.3247814,-0.5208712,8.562129974365234,0.11311620473861694,-3.482057809829712,-4.058170795440674,-16.78679084777832, 9.133289337158203
73,129645427,0.22595859,-0.7580085,-0.32395953,-0.5190533,8.469093322753906,-0.49925047159194946,-3.3160595893859863,-5.879542827606201,-15.812878608703613, 9.31973648071289
74,129662094,0.22624208,-0.7593916,-0.3235534,-0.51715803,8.624458312988281,-1.0489702224731445,-3.801481246948242,2.4603517055511475,-13.50822639465332, 8.889901161193848
75,129678761,0.22770709,-0.76029676,-0.32376465,-0.51504856,8.855283737182617,-0.5154707431793213,-3.739718198776245,10.615264892578125,-11.200227737426758, 9.58297061920166
76,129695428,0.22836733,-0.7613682,-0.32346034,-0.5133618,8.866002082824707,-0.09861741214990616,-3.722675323486328,5.396400451660156,-10.573095321655273, 8.297091484069824
77,129712095,0.22857413,-0.76239985,-0.322955,-0.5120554,8.972643852233887,-0.16507264971733093,-3.743103265762329,0.627620279788971,-9.10100269317627, 7.4336724281311035
78,129728762,0.22843924,-0.76341695,-0.3222059,-0.5110709,9.120708465576172,-0.4767369031906128,-3.7794644832611084,-2.9958291053771973,-7.715303897857666, 7.095188140869141
79,129745429,0.22851221,-0.7642168,-0.32180977,-0.5100918,9.216273307800293,-0.6322745680809021,-3.8561320304870605,-0.9320975542068481,-6.991308689117432, 5.7082719802856445
80,129762096,0.22871561,-0.76481795,-0.32172748,-0.5091502,9.277297973632812,-0.5970006585121155,-3.801095485687256,1.7839696407318115,-6.315747261047363, 3.6878769397735596
81,129778763,0.22915626,-0.7652829,-0.32177117,-0.5082253,9.418462753295898,-0.5378496646881104,-3.7545626163482666,4.4777727127075195,-5.451138973236084, 3.15153431892395
82,129795430,0.22977442,-0.7655515,-0.32207572,-0.5073481,9.263091087341309,-0.6083595752716064,-3.7794864177703857,5.709859371185303,-4.520078182220459, 2.2068355083465576
83,129812097,0.23053166,-0.76565075,-0.32241246,-0.5066405,9.1697998046875,-0.7861355543136597,-3.7338175773620605,6.555654048919678,-2.7886595726013184, 1.8063806295394897
84,129828764,0.23166214,-0.76559323,-0.32277483,-0.50598025,9.283849716186523,-0.6773455739021301,-3.6741671562194824,9.054020881652832,-1.224402666091919, 2.37833833694458
85,129845431,0.23269872,-0.7655294,-0.32320577,-0.5053257,9.143033981323242,-0.6526194214820862,-3.7159996032714844,8.017230033874512,-1.479453444480896, 1.9610940217971802
86,129862098,0.2341168,-0.7653518,-0.32372385,-0.50460774,9.226532936096191,-0.7307178974151611,-3.799562454223633,10.786530494689941,-0.7186798453330994, 2.5984673500061035
87,129878765,0.2360261,-0.7648739,-0.32454103,-0.50391763,8.986573219299316,-0.5508705973625183,-3.7908520698547363,14.18244743347168,1.1041451692581177, 2.255206346511841
88,129895432,0.23785298,-0.76430184,-0.32527873,-0.50345063,8.906429290771484,-0.455392062664032,-3.8088598251342773,14.024954795837402,2.5148422718048096, 1.430707335472107
89,129912099,0.23927002,-0.76372784,-0.3257851,-0.50332284,8.798656463623047,-0.28945988416671753,-3.8777003288269043,9.907245635986328,3.796347141265869, 0.84140944480896
90,129928766,0.24036273,-0.76328963,-0.32613125,-0.50324285,8.72861385345459,-0.23580984771251678,-3.9518041610717773,7.148037910461426,3.14064884185791, 0.8718500733375549
91,129945433,0.24121511,-0.7629695,-0.32628343,-0.5032216,8.614253044128418,-0.25321701169013977,-3.992149591445923,5.014537811279297,2.8403656482696533, 1.191957712173462
92,129962100,0.24191883,-0.7626948,-0.32627213,-0.5033076,8.629785537719727,-0.20402659475803375,-4.041098117828369,3.6018052101135254,3.2083425521850586, 1.378225564956665
93,129978767,0.24249615,-0.7623812,-0.3262428,-0.50352407,8.577153205871582,-0.22787685692310333,-4.160617351531982,2.6208391189575195,3.8102035522460938, 0.7654932141304016
94,129995434,0.2428893,-0.7620473,-0.3261929,-0.5038721,8.419122695922852,-0.033746276050806046,-4.090721607208252,1.081477165222168,4.251087188720703, 0.09076500684022903
95,130012101,0.24287201,-0.7618424,-0.32590744,-0.5043746,8.530450820922852,-0.15757106244564056,-4.1265459060668945,-2.2844226360321045,4.1244072914123535, -0.09434439241886139
96,130028768,0.2426393,-0.7616069,-0.32548353,-0.50511557,8.756850242614746,-0.4420836865901947,-4.005973815917969,-4.338740825653076,5.277132511138916, -0.5674750804901123
97,130045435,0.2425072,-0.7612588,-0.3251262,-0.5059333,8.929490089416504,-0.6808230876922607,-3.8987669944763184,-3.7857236862182617,6.22249698638916, -0.8581023216247559
98,130062102,0.2426633,-0.7607295,-0.32495958,-0.5067607,8.94459056854248,-0.8205348253250122,-3.79612398147583,-1.3727514743804932,7.248196601867676, -1.2799180746078491
99,130078769,0.24308617,-0.7600196,-0.32489127,-0.5076662,8.958407402038574,-0.6510464549064636,-3.675516128540039,0.9433607459068298,8.712733268737793, -1.6050843000411987
100,130095436,0.24348594,-0.75930315,-0.3248042,-0.5086016,8.960431098937988,-0.4439074695110321,-3.618412971496582,0.29023677110671997,8.885848045349121, -1.5138006210327148
101,130112103,0.24355343,-0.7586879,-0.324641,-0.50959057,9.005671501159668,-0.13184162974357605,-3.5832395553588867,-2.869736909866333,8.238780975341797, -1.7995742559432983
102,130128770,0.24317178,-0.7582915,-0.32420847,-0.51063746,9.176003456115723,-0.2245868295431137,-3.5199785232543945,-5.944376468658447,7.190645694732666, -1.827799677848816
103,130145437,0.24257089,-0.7580261,-0.32374296,-0.51161146,9.194156646728516,-0.5107422471046448,-3.452136993408203,-7.315501689910889,5.9078850746154785, -1.9741251468658447
104,130162104,0.24209316,-0.7578445,-0.3233244,-0.5123711,9.243674278259277,-0.8764649033546448,-3.382654905319214,-6.16381311416626,4.6770782470703125, -1.2532680034637451
105,130178771,0.2418685,-0.75761527,-0.32308018,-0.5129699,9.274609565734863,-0.9507622122764587,-3.33282470703125,-3.801769495010376,4.260845184326172, -1.1437863111495972
106,130195438,0.24202417,-0.7572819,-0.3230992,-0.51337665,9.266607284545898,-0.8163662552833557,-3.4094693660736084,-0.30340802669525146,4.01515531539917, -1.1256011724472046
107,130212105,0.24223335,-0.7569007,-0.32319105,-0.51378196,9.182515144348145,-0.4718070924282074,-3.3787267208099365,0.21748384833335876,4.163453578948975, -1.4162800312042236
108,130228772,0.24194553,-0.7566881,-0.3230395,-0.5143258,9.105559349060059,-0.1944698542356491,-3.3730552196502686,-3.782778739929199,3.575526475906372, -1.7801979780197144
109,130245439,0.24086833,-0.75678897,-0.32240015,-0.5150838,9.111348152160645,-0.1979473978281021,-3.2940969467163086,-10.605237007141113,2.6294326782226562, -1.6788747310638428
110,130262106,0.23957238,-0.7570687,-0.32145488,-0.5158671,9.379408836364746,-0.4760199785232544,-3.3293731212615967,-13.130855560302734,2.1312782764434814, -0.5103076696395874
111,130278773,0.23881017,-0.75714487,-0.32077828,-0.51652956,9.47715950012207,-0.586965799331665,-3.338963031768799,-8.913233757019043,2.946646213531494, -0.22984842956066132
112,130295440,0.23871289,-0.7571028,-0.32045865,-0.5168346,9.37426471710205,-0.584466814994812,-3.2810356616973877,-3.1764490604400635,2.3663511276245117, 0.5730393528938293
113,130312107,0.23883474,-0.7570437,-0.32031575,-0.5169534,9.323468208312988,-0.543493390083313,-3.2479088306427,-0.7736572027206421,1.6233904361724854, 0.6086665987968445
114,130328774,0.2389485,-0.75702715,-0.32025024,-0.5169657,9.193953514099121,-0.5360475778579712,-3.308856725692749,-0.4171924293041229,0.7536728382110596, 0.4464869499206543
115,130345441,0.23890994,-0.75702995,-0.32023805,-0.51698697,9.18956470489502,-0.3864686191082001,-3.3739161491394043,-1.2612076997756958,0.3038114309310913, -0.2855687737464905
116,130362108,0.23851255,-0.75712436,-0.32008493,-0.5171271,9.176143646240234,-0.27561450004577637,-3.3817834854125977,-3.9480061531066895,0.026259424164891243, -0.8583841919898987
117,130378775,0.23783354,-0.7573275,-0.31975853,-0.51734406,9.15700626373291,-0.2985188663005829,-3.437807559967041,-6.368458271026611,-0.30085963010787964, -0.8393411636352539
118,130395442,0.23706973,-0.75756174,-0.31940997,-0.5175672,9.120023727416992,-0.43841925263404846,-3.5265135765075684,-6.9573845863342285,-0.5324370265007019, -0.9605020880699158
119,130412109,0.23644352,-0.7576974,-0.3192564,-0.5177496,9.131591796875,-0.6647508144378662,-3.5188941955566406,-5.185982704162598,-0.4088939428329468, -1.685610294342041
120,130428776,0.23647772,-0.7576335,-0.31947073,-0.51769537,9.226366996765137,-0.7153113484382629,-3.4851462841033936,0.2763930559158325,-0.07332915812730789, -1.2793415784835815
121,130445443,0.23678505,-0.75745505,-0.3198533,-0.5175796,9.223892211914062,-0.46606430411338806,-3.373015880584717,2.5690371990203857,0.3419743776321411, -1.3438984155654907
122,130462110,0.23692271,-0.75733745,-0.3201313,-0.51751685,9.278310775756836,-0.2489638775587082,-3.3730170726776123,0.8211110830307007,0.19748032093048096, -1.2616560459136963
123,130478777,0.23657227,-0.7574151,-0.32002422,-0.51762974,9.250738143920898,-0.26241692900657654,-3.3598978519439697,-3.528059959411621,-0.04785733297467232, -0.9428548216819763
124,130495444,0.23607108,-0.75758255,-0.31975442,-0.5177802,9.208802223205566,-0.4677235186100006,-3.4077377319335938,-4.973819732666016,-0.2524387538433075, -0.5445516109466553
125,130512111,0.23585838,-0.7577026,-0.3196016,-0.5177959,9.20606803894043,-0.586187481880188,-3.4084677696228027,-2.668804883956909,-0.34789732098579407, -0.027905037626624107
126,130528778,0.23603381,-0.7577307,-0.3197161,-0.5176041,9.075027465820312,-0.5682030916213989,-3.4694230556488037,0.9858136773109436,-0.6901598572731018, 0.04787653684616089
127,130545445,0.23637842,-0.75769156,-0.32001677,-0.5173183,9.13313102722168,-0.6318374276161194,-3.480001449584961,2.75032377243042,-0.865350604057312, -0.295621782541275
128,130562112,0.2369586,-0.75754994,-0.32041234,-0.51701534,9.168045997619629,-0.6704121828079224,-3.479498863220215,4.459472179412842,-0.22444410622119904, -0.14936047792434692
129,130578779,0.23758811,-0.7573568,-0.3208282,-0.5167511,9.103004455566406,-0.6314501762390137,-3.451575517654419,4.817985534667969,0.23347894847393036, -0.2921128273010254
130,130595446,0.23817329,-0.7571447,-0.32117924,-0.5165747,9.115052223205566,-0.44038283824920654,-3.485102891921997,4.199913024902344,0.7668505311012268, -0.31990259885787964
131,130612113,0.23858877,-0.757013,-0.32136366,-0.516461,9.0761137008667,-0.41481631994247437,-3.4716861248016357,2.2952628135681152,0.7120266556739807, 0.07300260663032532
132,130628780,0.23897402,-0.75691456,-0.32150033,-0.51634246,9.116316795349121,-0.4446772336959839,-3.500385046005249,1.7100894451141357,0.5887014865875244, 0.37227416038513184
133,130645447,0.23952891,-0.7567861,-0.32163852,-0.51618755,9.127798080444336,-0.4344275891780853,-3.508467674255371,2.974306583404541,0.8730152249336243, 0.8618481159210205
134,130662114,0.2402597,-0.7566227,-0.32186767,-0.5159444,9.14266586303711,-0.4448085129261017,-3.481360912322998,4.622881889343262,0.7741631865501404, 1.016741156578064
135,130678781,0.2410862,-0.7564278,-0.32223788,-0.5156134,9.228071212768555,-0.4873608946800232,-3.370936870574951,5.66533088684082,0.4153675436973572, 0.7692582011222839
136,130695448,0.24210176,-0.75622153,-0.32265764,-0.5151774,9.249003410339355,-0.6110479831695557,-3.3816959857940674,7.079408168792725,0.23876799643039703, 1.3216218948364258
137,130712115,0.2433324,-0.75594956,-0.3231783,-0.51467025,9.286788940429688,-0.6137727499008179,-3.3992059230804443,8.735143661499023,0.40590375661849976, 1.5497545003890991
138,130728782,0.24464525,-0.75563735,-0.32368875,-0.51418537,9.271798133850098,-0.4964146316051483,-3.39190936088562,8.925342559814453,0.8647681474685669, 1.8343881368637085
139,130745449,0.24578296,-0.75540555,-0.32406473,-0.5137465,9.185059547424316,-0.4946883022785187,-3.399083375930786,7.2093424797058105,0.6534121036529541, 2.045193910598755
140,130762116,0.24682494,-0.7552711,-0.32430765,-0.5132913,9.110054969787598,-0.4803664982318878,-3.4026522636413574,6.4250807762146,0.21969936788082123, 2.523024082183838
141,130778783,0.24769105,-0.7551809,-0.3244489,-0.51291716,9.21059799194336,-0.4317198395729065,-3.419170379638672,4.923138618469238,0.2622164189815521, 2.3806941509246826
142,130795450,0.24853653,-0.75510436,-0.32455707,-0.51255226,9.23493480682373,-0.468572735786438,-3.4120538234710693,4.714869022369385,0.2664169371128082, 2.475883722305298
143,130812117,0.24924102,-0.75507075,-0.32461572,-0.5122225,9.215180397033691,-0.3996197581291199,-3.3885605335235596,3.5430238246917725,0.06928875297307968, 2.315419912338257
144,130828784,0.2496397,-0.75515497,-0.32443067,-0.51202136,9.213868141174316,-0.40127113461494446,-3.4005706310272217,0.7405847311019897,0.046852029860019684, 2.5041215419769287
145,130845451,0.2498412,-0.7553219,-0.3241067,-0.5118821,9.125993728637695,-0.5562787055969238,-3.4154767990112305,-1.1771084070205688,-0.12277446687221527, 2.6640217304229736
146,130862118,0.24995844,-0.7555684,-0.32368582,-0.51172715,9.046777725219727,-0.6076674461364746,-3.3791282176971436,-2.0169618129730225,-0.5077206492424011, 3.057663679122925
147,130878785,0.2500009,-0.7558835,-0.3232161,-0.511538,9.10047435760498,-0.6281417012214661,-3.393676519393921,-2.579967498779297,-1.0115993022918701, 3.2393856048583984
148,130895452,0.24998939,-0.7562531,-0.32266927,-0.5113427,9.2003755569458,-0.7256483435630798,-3.387948513031006,-3.158635139465332,-1.2267714738845825, 3.556201934814453
149,130912119,0.2502159,-0.7565573,-0.32223076,-0.51105815,9.192395210266113,-0.8571116924285889,-3.448970317840576,-1.300574541091919,-1.1185194253921509, 3.85251522064209
150,130928786,0.25085035,-0.7567226,-0.32202095,-0.5106345,9.17711353302002,-0.824262797832489,-3.449845790863037,2.145672082901001,-0.8442587852478027, 4.017909526824951
151,130945453,0.2516614,-0.75683194,-0.32190394,-0.5101471,9.168651580810547,-0.6172402501106262,-3.383472204208374,3.600806713104248,-0.7466999292373657, 4.133998870849609
152,130962120,0.2523106,-0.7570275,-0.3216643,-0.50968695,9.211877822875977,-0.6677409410476685,-3.352806568145752,2.1767401695251465,-1.0613646507263184, 4.325517654418945
153,130978787,0.2529847,-0.7572388,-0.32140255,-0.5092039,9.222702980041504,-0.8770885467529297,-3.4106972217559814,2.2287213802337646,-1.1476027965545654, 4.607168197631836
154,130995454,0.25379345,-0.75739855,-0.32122466,-0.50867593,9.156537055969238,-0.8554645776748657,-3.4144062995910645,3.3663477897644043,-1.0507609844207764, 4.6063995361328125
155,131012121,0.25464913,-0.7575611,-0.32110173,-0.5080836,9.164763450622559,-0.7868343591690063,-3.362011432647705,3.9395604133605957,-1.3907569646835327, 4.589892387390137
156,131028788,0.25537863,-0.75778294,-0.32084712,-0.5075472,9.167957305908203,-0.6971721053123474,-3.399508237838745,2.6211206912994385,-1.3621731996536255, 4.849489688873291
157,131045455,0.25595677,-0.7580661,-0.32050747,-0.5070475,9.192011833190918,-0.6914216876029968,-3.3878173828125,1.3191502094268799,-1.5714161396026611, 4.84552001953125
158,131062122,0.25635487,-0.7584418,-0.32009876,-0.50654227,9.14521312713623,-0.7392767071723938,-3.3775486946105957,-0.057372450828552246,-2.2000157833099365, 4.809841632843018
159,131078789,0.25670406,-0.7588747,-0.3196837,-0.5059789,9.16315746307373,-0.8659740090370178,-3.3379578590393066,-0.267268568277359,-2.8066399097442627, 4.8844895362854
160,131095456,0.25712654,-0.7593712,-0.31928694,-0.50526965,9.192994117736816,-0.802200973033905,-3.3025639057159424,0.20607338845729828,-3.6550989151000977, 5.501371383666992
161,131112123,0.25766358,-0.75995,-0.31884784,-0.5044025,9.199594497680664,-0.8606815338134766,-3.3903768062591553,1.1458547115325928,-4.470966815948486, 6.468865871429443
162,131128790,0.25833744,-0.7605454,-0.3183935,-0.50344616,9.166077613830566,-0.7699705362319946,-3.37740159034729,1.9366854429244995,-4.670770645141602, 7.226155757904053
163,131145457,0.25895357,-0.76125705,-0.3178322,-0.5024079,9.188037872314453,-0.6246626973152161,-3.3385865688323975,1.4800751209259033,-5.464048385620117, 7.896008014678955
164,131162124,0.2594548,-0.76209265,-0.3172109,-0.50127375,9.252657890319824,-0.5984001159667969,-3.3209071159362793,0.4352431297302246,-6.531355857849121, 8.35382080078125
165,131178791,0.25995627,-0.7630578,-0.31656936,-0.49994937,9.349693298339844,-0.7105614542961121,-3.283841848373413,0.455336332321167,-7.944102764129639, 9.136878967285156
166,131195458,0.26070526,-0.76409626,-0.31600356,-0.49832878,9.359539031982422,-0.8987113833427429,-3.258711576461792,2.5937933921813965,-9.370553016662598, 10.265480995178223
167,131212125,0.2617064,-0.765194,-0.31556958,-0.49639106,9.320427894592285,-0.9351338148117065,-3.1941301822662354,4.948538303375244,-10.949580192565918, 11.137776374816895
168,131228792,0.26265582,-0.7664632,-0.3150811,-0.4942368,9.319405555725098,-0.9051505923271179,-3.187488079071045,4.800549030303955,-12.727080345153809, 11.953414916992188
169,131245459,0.2634162,-0.76794654,-0.31455508,-0.49185908,9.350796699523926,-1.0110207796096802,-3.18764328956604,3.565030336380005,-14.981541633605957, 12.46537971496582
170,131262126,0.26426262,-0.76952845,-0.31404015,-0.4892545,9.326420783996582,-1.0390851497650146,-3.1908767223358154,4.474257946014404,-16.388530731201172, 13.28207015991211
171,131278793,0.26503503,-0.7713095,-0.31342742,-0.48641697,9.260270118713379,-1.1264691352844238,-3.2788867950439453,4.015112400054932,-18.316381454467773, 14.358577728271484
172,131295460,0.2656251,-0.773261,-0.31271145,-0.4834485,9.343886375427246,-1.1828482151031494,-3.3115885257720947,2.9505441188812256,-19.843557357788086, 14.787325859069824
173,131312127,0.26610798,-0.7753341,-0.31199157,-0.4803175,9.331526756286621,-1.1165858507156372,-3.2797467708587646,2.551792860031128,-21.37547492980957, 14.984109878540039
174,131328794,0.2665482,-0.77756155,-0.3112531,-0.47694007,9.383760452270508,-1.0169726610183716,-3.2419426441192627,2.31152081489563,-23.268871307373047, 15.814536094665527
175,131345461,0.26697543,-0.7799973,-0.3104423,-0.47323787,9.298318862915039,-1.1131689548492432,-3.403369903564453,2.4798107147216797,-25.646215438842773, 17.144758224487305
176,131362128,0.2672693,-0.7826125,-0.30969092,-0.4692297,9.214085578918457,-1.1903209686279297,-3.385619878768921,2.4838459491729736,-28.32661247253418, 17.25780487060547
177,131378795,0.2675484,-0.78534186,-0.30916288,-0.46483812,9.301482200622559,-1.190694808959961,-3.2523069381713867,3.822628974914551,-31.252866744995117, 16.920866012573242
178,131395462,0.2678458,-0.7882578,-0.30887303,-0.4598977,9.623636245727539,-1.0842418670654297,-3.0135796070098877,5.4102959632873535,-35.2523307800293, 17.15447425842285
179,131412129,0.26829925,-0.7914584,-0.30876055,-0.45417672,9.883047103881836,-1.104743480682373,-2.8034374713897705,8.377161026000977,-40.52179718017578, 18.543350219726562
180,131428796,0.26919362,-0.7948588,-0.3089743,-0.44751468,9.951994895935059,-1.101298213005066,-2.6583003997802734,13.26873779296875,-46.01280212402344, 20.40228843688965
181,131445463,0.27072388,-0.798488,-0.30939698,-0.43977195,10.066722869873047,-1.044135570526123,-2.6371188163757324,19.499465942382812,-51.82025146484375, 23.60556983947754
182,131462130,0.27258632,-0.8024309,-0.30986643,-0.43102676,10.147590637207031,-1.3067865371704102,-2.980226755142212,23.194358825683594,-57.820220947265625, 26.821048736572266
183,131478797,0.27489403,-0.8065528,-0.3104174,-0.421363,10.331226348876953,-1.3882966041564941,-3.3253045082092285,27.442184448242188,-62.7384147644043, 29.852792739868164
184,131495464,0.27726054,-0.8108874,-0.3109171,-0.4109974,10.307429313659668,-1.40160071849823,-3.9004483222961426,28.67830467224121,-67.14229583740234, 32.13596725463867
185,131512131,0.279671,-0.81540614,-0.31120497,-0.4000609,10.630491256713867,-1.8302154541015625,-5.1569132804870605,29.158201217651367,-70.44549560546875, 34.9814453125
186,131528798,0.27986687,-0.8203263,-0.3095676,-0.39103374,10.428093910217285,-1.0337305068969727,-5.883023262023926,6.5491156578063965,-61.934173583984375, 36.922786712646484
187,131545465,0.27852166,-0.8266203,-0.3087825,-0.37918064,9.17337703704834,-2.219271183013916,-5.083368301391602,3.517584800720215,-86.51178741455078, 36.422157287597656
188,131562132,0.27296004,-0.83320683,-0.30661628,-0.37046716,8.9202880859375,-0.2567562162876129,-4.932282447814941,-31.32291603088379,-75.7679672241211, 27.908021926879883
189,131578799,0.2699001,-0.8388669,-0.30472723,-0.3613831,8.832345962524414,-3.279517412185669,-5.450940132141113,-13.753884315490723,-70.82035827636719, 31.54109764099121
190,131595466,0.26999786,-0.8427409,-0.30449346,-0.35238212,8.216490745544434,-2.946664810180664,-5.56972599029541,11.592812538146973,-62.37574768066406, 25.959972381591797
191,131612133,0.2721513,-0.84532785,-0.30484995,-0.34412375,7.6918206214904785,-2.242339849472046,-5.701756954193115,25.337411880493164,-51.6466064453125, 23.747812271118164
192,131628800,0.27460146,-0.8475465,-0.3049466,-0.33655107,7.356076240539551,-1.9147512912750244,-6.009378433227539,25.699398040771484,-45.685523986816406, 23.925979614257812
193,131645467,0.27645966,-0.84945726,-0.30456966,-0.33049968,6.556424140930176,-1.465057611465454,-5.336532115936279,18.563629150390625,-36.442138671875, 21.8322811126709
194,131662134,0.2756741,-0.85110825,-0.30391672,-0.32749557,5.628715515136719,-0.19707472622394562,-4.38297700881958,-3.364492177963257,-23.060192108154297, 11.138625144958496
195,131678801,0.27173087,-0.8526634,-0.3027509,-0.32782575,5.6652069091796875,-0.4382477104663849,-4.742040157318115,-29.72238540649414,-8.966870307922363, 0.5768447518348694
196,131695468,0.26594716,-0.8539917,-0.30065346,-0.3310255,5.871710777282715,-1.1142648458480835,-4.7719244956970215,-48.10422134399414,6.277180194854736, -3.896364212036133
197,131712135,0.2604264,-0.85462224,-0.29843026,-0.33576518,5.820822238922119,-2.2475059032440186,-5.656148433685303,-48.722381591796875,17.674116134643555, -6.801505088806152
198,131728802,0.25690526,-0.85429394,-0.29677653,-0.34074256,6.089441299438477,-2.6711583137512207,-5.699411392211914,-34.42685317993164,24.40007209777832, -7.954919815063477
199,131745469,0.25496092,-0.8530179,-0.29576573,-0.34623414,5.977463245391846,-1.7991633415222168,-4.888617038726807,-23.04871940612793,31.75033187866211, -10.920306205749512
200,131762136,0.2519,-0.8511409,-0.29456,-0.3540339,5.976193428039551,-1.102085828781128,-3.3319661617279053,-33.69662094116211,44.7918586730957, -17.715713500976562
201,131778803,0.24669527,-0.84868944,-0.29268992,-0.3649664,6.512928009033203,-0.94039386510849,-2.2539422512054443,-53.20014190673828,61.2747688293457, -25.629758834838867
202,131795470,0.24072124,-0.8453666,-0.28996375,-0.37858933,7.114566802978516,-1.4039299488067627,-2.085176467895508,-63.771461486816406,78.9508056640625, -28.877397537231445
203,131812137,0.23553799,-0.84090656,-0.28680745,-0.39387774,7.361940860748291,-1.9909502267837524,-2.3869292736053467,-61.746646881103516,93.7475357055664, -29.362253189086914
204,131828804,0.2323047,-0.8349619,-0.283911,-0.4102047,7.899271488189697,-2.024386167526245,-2.3164896965026855,-49.43870162963867,107.08143615722656, -30.243045806884766
205,131845471,0.23048419,-0.82743835,-0.28121957,-0.4279468,8.462274551391602,-1.5100239515304565,-1.9711377620697021,-41.015281677246094,121.96839904785156, -32.830142974853516
206,131862138,0.22938035,-0.8184577,-0.27833644,-0.44725898,8.940234184265137,-1.3632643222808838,-2.107182264328003,-38.237709045410156,136.74203491210938, -34.96833419799805
207,131878805,0.22931844,-0.808035,-0.27548835,-0.46754554,9.441737174987793,-1.3257263898849487,-2.2243175506591797,-31.856828689575195,148.47410583496094, -36.28660583496094
208,131895472,0.22968212,-0.7962079,-0.27284062,-0.4887304,9.974516868591309,-1.183351755142212,-2.2516326904296875,-28.3298397064209,158.35939025878906, -40.137054443359375
209,131912139,0.23025125,-0.78287715,-0.27045923,-0.5108226,10.388545989990234,-1.006978988647461,-2.0288753509521484,-25.623153686523438,168.24742126464844, -45.184478759765625
210,131928806,0.23051313,-0.768244,-0.2679148,-0.53374785,10.872210502624512,-0.9199411869049072,-2.025056838989258,-27.314367294311523,176.9026336669922, -49.149871826171875
211,131945473,0.23068237,-0.75243574,-0.26522315,-0.55703044,11.351011276245117,-1.2218096256256104,-2.210137128829956,-27.11175537109375,183.0961456298828, -51.46844482421875
212,131962140,0.23095363,-0.7355593,-0.26263338,-0.5802041,11.73311710357666,-1.1530495882034302,-2.1499152183532715,-24.27247428894043,186.61058044433594, -53.425235748291016
213,131978807,0.23101804,-0.7178579,-0.26006854,-0.6030549,11.795109748840332,-0.8880832195281982,-1.9088608026504517,-23.292436599731445,187.842041015625, -55.40060043334961
214,131995474,0.23040856,-0.6996679,-0.25711942,-0.625513,11.871979713439941,-0.9627904891967773,-1.7719931602478027,-26.69590950012207,187.3439178466797, -56.58992385864258
215,132012141,0.22973096,-0.68105084,-0.25391677,-0.64724016,11.995658874511719,-1.1614201068878174,-1.7269471883773804,-26.105619430541992,185.97976684570312, -55.313961029052734
216,132028808,0.22952807,-0.6620588,-0.250666,-0.6679534,12.02391529083252,-1.1453427076339722,-1.6145801544189453,-21.69414710998535,183.87098693847656, -52.097232818603516
217,132045475,0.22929326,-0.64333445,-0.24694547,-0.68743265,11.963476181030273,-1.1508197784423828,-1.5687302350997925,-21.421396255493164,177.84518432617188, -47.7328987121582
218,132062142,0.22883038,-0.62538993,-0.24278198,-0.7053944,11.690632820129395,-0.9770122766494751,-1.5485780239105225,-23.0792236328125,167.89071655273438, -43.16512680053711
219,132078809,0.2280064,-0.6087268,-0.23848912,-0.7215178,11.234684944152832,-0.7082897424697876,-1.9307920932769775,-24.152477264404297,153.5286865234375, -39.35796356201172
220,132095476,0.2267242,-0.593899,-0.2345999,-0.7354204,10.632720947265625,-0.6309362649917603,-2.4098854064941406,-23.155691146850586,133.95050048828125, -36.831729888916016
221,132112143,0.22516577,-0.5817926,-0.23100668,-0.74662834,10.091804504394531,-0.7178182005882263,-2.817554235458374,-22.670795440673828,108.51273345947266, -30.872222900390625
222,132128810,0.22331455,-0.57254535,-0.22793625,-0.75522685,9.440815925598145,-0.4558331072330475,-3.043734312057495,-21.427120208740234,82.3839340209961, -25.9219913482666
223,132145477,0.22135125,-0.5667325,-0.22507556,-0.76102495,8.817290306091309,-1.007438063621521,-3.6641743183135986,-21.721586227416992,53.29388427734375, -17.695781707763672
224,132162144,0.22015685,-0.56424016,-0.22343884,-0.76370126,8.394133567810059,-1.3010151386260986,-4.155631065368652,-12.675910949707031,23.362972259521484, -8.655603408813477
225,132178811,0.21955043,-0.5648442,-0.22341453,-0.7634361,8.477201461791992,-0.8078076839447021,-4.5819478034973145,-2.0066654682159424,-5.524889945983887, -2.673248767852783
226,132195478,0.22001591,-0.5682571,-0.22551826,-0.7601438,8.297603607177734,-0.8024604916572571,-5.567879676818848,13.56000804901123,-33.28768539428711, 3.456712245941162
227,132212145,0.22262676,-0.5735038,-0.23157163,-0.7535951,8.432886123657227,-0.35737523436546326,-4.524723529815674,44.85205078125,-57.89204025268555, 6.930574893951416
228,132228812,0.22297028,-0.5779013,-0.2368747,-0.7484685,11.360840797424316,4.762297630310059,6.625212669372559,30.897003173828125,-50.06999206542969, -5.487958908081055
229,132245479,0.21453752,-0.58227825,-0.23408708,-0.7484178,12.214669227600098,5.090198993682861,5.888030052185059,-53.79204559326172,-31.864517211914062, -26.128076553344727
230,132262146,0.2141796,-0.5888351,-0.23581386,-0.74282736,10.78022289276123,-2.777972459793091,-0.9856555461883545,7.209421157836914,-59.09550857543945, 9.159942626953125
231,132278813,0.21746062,-0.5973743,-0.23937573,-0.73386264,11.111109733581543,-1.560507893562317,0.08796180039644241,33.34434509277344,-79.6070785522461, 28.20771026611328
232,132295480,0.2179871,-0.6055619,-0.24254377,-0.7259127,9.417243003845215,1.2917956113815308,1.6134339570999146,18.876359939575195,-77.53485107421875, 13.711761474609375
233,132312147,0.2166613,-0.6130065,-0.24488008,-0.7192461,8.733633041381836,1.3587050437927246,1.5376129150390625,5.963606357574463,-70.34088134765625, 4.796133041381836
234,132328814,0.21287487,-0.620791,-0.2448248,-0.71369725,10.142855644226074,0.6374703049659729,0.3697751760482788,-18.65618133544922,-67.91400909423828, 1.652374505996704
235,132345481,0.20800743,-0.6282547,-0.24496989,-0.708533,10.578428268432617,-0.6513093709945679,-2.5345170497894287,-22.482637405395508,-66.77494812011719, -5.606398582458496
236,132362148,0.20468627,-0.63504297,-0.24671876,-0.7028187,11.348872184753418,-1.1113624572753906,-0.927893340587616,-6.1303911209106445,-65.38900756835938, -5.410612106323242
237,132378815,0.20106943,-0.6407829,-0.24936281,-0.6977011,9.650169372558594,0.10518903285264969,-0.47969716787338257,-2.659644842147827,-59.40559005737305, -13.447741508483887
238,132395482,0.19952872,-0.6452624,-0.25377786,-0.6924027,9.385937690734863,0.384272962808609,0.16862544417381287,17.008495330810547,-53.00825500488281, -13.225128173828125
239,132412149,0.1983974,-0.64923996,-0.25770313,-0.6875429,9.939920425415039,1.0331469774246216,-0.30580422282218933,16.396217346191406,-47.29301452636719, -10.592652320861816
240,132428816,0.19898264,-0.6527885,-0.26280156,-0.68206215,10.351305961608887,-0.26984289288520813,-1.073058843612671,31.270248413085938,-46.5871467590332, -7.616688251495361
241,132445483,0.19890131,-0.656005,-0.26761985,-0.67710817,9.977306365966797,1.0259225368499756,-0.36995306611061096,26.443323135375977,-43.45182418823242, -10.856879234313965
242,132462150,0.19653982,-0.6594519,-0.27075797,-0.67319065,9.627010345458984,1.2184512615203857,-0.35171008110046387,6.097268104553223,-41.74787139892578, -14.876026153564453
243,132478817,0.1934272,-0.6630773,-0.27311322,-0.66956985,9.892492294311523,0.7595435976982117,-0.6952785849571228,-1.741470456123352,-41.57154846191406, -14.848114013671875
244,132495484,0.19130085,-0.666465,-0.27605432,-0.6655996,10.11640739440918,0.17330683767795563,-0.8039871454238892,6.405797958374023,-40.9900016784668, -12.959881782531738
245,132512151,0.19115013,-0.66928774,-0.28031006,-0.66101587,10.022482872009277,0.5683527588844299,-1.030496597290039,23.362375259399414,-39.19345474243164, -10.238614082336426
246,132528818,0.19223244,-0.6717195,-0.28512055,-0.6561603,9.795324325561523,1.5231081247329712,-1.3190492391586304,32.57843017578125,-37.01674270629883, -7.601364612579346
247,132545485,0.19281591,-0.67409384,-0.28890604,-0.65188426,9.820606231689453,2.151602029800415,-1.2271976470947266,24.57820701599121,-33.692962646484375, -5.973123550415039
248,132562152,0.19276091,-0.6765206,-0.29145265,-0.6482428,9.893555641174316,1.7735872268676758,-1.4057267904281616,14.73254108428955,-30.6070556640625, -3.7786567211151123
249,132578819,0.19266675,-0.67877626,-0.29354507,-0.64496046,9.681924819946289,1.5195403099060059,-1.299653172492981,12.027692794799805,-27.63886833190918, -2.624708652496338
250,132595486,0.19226542,-0.6809826,-0.29519594,-0.641994,9.670613288879395,1.3528637886047363,-1.030252456665039,8.060125350952148,-25.978439331054688, -2.4183571338653564
251,132612153,0.19157581,-0.68333113,-0.29636472,-0.63916016,9.658780097961426,1.3328924179077148,-1.1224979162216187,4.122354507446289,-25.942960739135742, -1.3008594512939453
252,132628820,0.19028853,-0.6860281,-0.29688138,-0.6364099,9.635441780090332,1.7752325534820557,-1.0092390775680542,-2.1830530166625977,-27.448755264282227, -0.24375669658184052
253,132645487,0.18800628,-0.68925744,-0.2962852,-0.63387173,9.554636001586914,1.8339964151382446,-1.0987128019332886,-12.872797966003418,-29.366107940673828, 1.5010058879852295
254,132662154,0.18520714,-0.69289804,-0.29497504,-0.6313324,9.499088287353516,1.6271196603775024,-1.145737648010254,-18.960386276245117,-31.304908752441406, 3.515519380569458
255,132678821,0.18279605,-0.6967307,-0.29371256,-0.62839895,9.617829322814941,0.9631232023239136,-1.4409916400909424,-16.347604751586914,-33.300315856933594, 5.899690628051758
256,132695488,0.18146789,-0.70053655,-0.29336187,-0.6247056,9.500493049621582,0.6688126921653748,-1.4050532579421997,-5.65648889541626,-35.78947448730469, 7.119345664978027
257,132712155,0.18087372,-0.7044212,-0.29387775,-0.6202513,9.452680587768555,0.931808590888977,-1.299303650856018,3.031132936477661,-39.40562057495117, 7.200430870056152
258,132728822,0.1803707,-0.7086274,-0.2945411,-0.61527187,9.490765571594238,1.163642406463623,-1.4509921073913574,4.759377956390381,-43.33974075317383, 8.18266773223877
259,132745489,0.17981686,-0.71329975,-0.29492798,-0.6098255,9.685776710510254,0.8324748873710632,-1.7159051895141602,3.7086408138275146,-47.36613464355469, 10.852721214294434
260,132762156,0.17950478,-0.7181356,-0.29521307,-0.60407686,9.852340698242188,0.5007180571556091,-2.0027434825897217,4.873301982879639,-48.93296813964844, 13.073243141174316
261,132778823,0.17921051,-0.7230058,-0.2955957,-0.5981387,9.722213745117188,0.6893471479415894,-2.0866029262542725,5.700051307678223,-50.10564041137695, 12.95939826965332
262,132795490,0.17855766,-0.72801524,-0.29577428,-0.59213936,9.708169937133789,1.0691968202590942,-2.252286195755005,3.024665594100952,-51.47111511230469, 12.857837677001953
263,132812157,0.17779662,-0.7332349,-0.2956324,-0.5859666,9.856890678405762,0.8394831418991089,-2.462918519973755,1.2714344263076782,-53.03142547607422, 14.67841625213623
264,132828824,0.17781866,-0.73865664,-0.2957301,-0.57906044,9.822256088256836,0.2187148779630661,-3.0123090744018555,7.424746990203857,-56.253990173339844, 17.94165802001953
265,132845491,0.17845185,-0.74394315,-0.29609758,-0.5718654,9.940138816833496,1.1480400562286377,-2.5469515323638916,12.343732833862305,-56.2650032043457, 19.068700790405273
266,132862158,0.17836279,-0.7495176,-0.29588747,-0.56467783,10.123252868652344,1.1171869039535522,-2.5501205921173096,6.012706756591797,-58.1415901184082, 19.78431510925293
267,132878825,0.1785416,-0.7551473,-0.29573208,-0.557152,10.30996322631836,0.8822715282440186,-2.7370288372039795,8.23039436340332,-59.64934539794922, 21.093812942504883
268,132895492,0.17912729,-0.7608951,-0.29561907,-0.54914635,10.661697387695312,1.0756183862686157,-2.479088544845581,11.336994171142578,-61.84892654418945, 23.27950096130371
269,132912159,0.18026374,-0.7669132,-0.2956811,-0.54029816,10.783040046691895,0.904779314994812,-2.7517433166503906,16.26506996154785,-66.42717742919922, 26.057043075561523
270,132928826,0.18200278,-0.7731168,-0.2956151,-0.530827,11.112677574157715,0.3979683816432953,-2.7223639488220215,20.00843620300293,-69.06855010986328, 30.141921997070312
271,132945493,0.18474913,-0.7794351,-0.29543313,-0.5206422,11.730255126953125,0.14714378118515015,-2.6039540767669678,26.24489974975586,-71.15435791015625, 35.56938552856445
272,132962160,0.18777339,-0.7862238,-0.29434067,-0.50986004,12.261723518371582,1.04097580909729,-1.8581264019012451,25.085695266723633,-74.40535736083984, 43.16324996948242
273,132978827,0.18896037,-0.79378814,-0.29280353,-0.49845836,12.563492774963379,0.43621885776519775,-1.6532220840454102,13.858691215515137,-83.74662780761719, 41.53986358642578
274,132995494,0.19036196,-0.8018166,-0.2916956,-0.4855579,13.070483207702637,0.37561485171318054,-0.4966215491294861,18.914474487304688,-93.79175567626953, 42.8464241027832
275,133012161,0.19221066,-0.8102283,-0.29155755,-0.47072262,13.954330444335938,0.2350873202085495,0.44444358348846436,27.992597579956055,-106.31926727294922, 42.33266830444336
276,133028828,0.19607867,-0.8185689,-0.29273847,-0.45365492,15.069753646850586,0.22407971322536469,1.4729995727539062,48.0694465637207,-116.48738861083984, 44.37782287597656
277,133045495,0.20298022,-0.82599837,-0.2954111,-0.43503857,15.90198040008545,0.5996829867362976,2.1870431900024414,74.12680053710938,-118.59963989257812, 45.768802642822266
278,133062162,0.21214055,-0.8324547,-0.29934445,-0.4152218,14.586506843566895,1.6728404760360718,2.926114082336426,94.5126953125,-120.05829620361328, 45.17438507080078
279,133078829,0.22305523,-0.8393821,-0.30249265,-0.392661,12.251941680908203,0.523334264755249,-1.8095473051071167,107.281494140625,-132.73468017578125, 59.81849670410156
280,133095496,0.23565643,-0.8472276,-0.30351847,-0.36680815,12.120585441589355,-0.3358754515647888,-6.4780473709106445,116.72278594970703,-147.63941955566406, 83.72315979003906
281,133112163,0.24681252,-0.8555492,-0.3019678,-0.34049216,12.411155700683594,-0.3506642282009125,-7.1706438064575195,102.00106811523438,-150.42971801757812, 96.95658874511719
282,133128830,0.25817722,-0.86224884,-0.29885694,-0.31710577,11.709676742553711,2.425579309463501,-4.453078269958496,96.2574691772461,-126.36619567871094, 98.41663360595703
283,133145497,0.2652726,-0.867743,-0.29584372,-0.29854566,9.705812454223633,4.883277416229248,-1.0478330850601196,63.452491760253906,-104.18999481201172, 77.687255859375
284,133162164,0.26562715,-0.87220055,-0.29343915,-0.2874058,9.460582733154297,3.4273831844329834,-1.9128074645996094,11.400466918945312,-72.7891616821289, 44.80699920654297
285,133178831,0.26822555,-0.8732442,-0.2928347,-0.28239635,9.80843734741211,1.5454365015029907,-0.8711695671081543,22.38221549987793,-28.20145034790039, 20.54279327392578
286,133195498,0.27195963,-0.87028265,-0.2942439,-0.2864733,6.214562892913818,6.751585960388184,2.9391024112701416,22.248767852783203,32.50856018066406, -14.015534400939941
287,133212165,0.26520514,-0.8674578,-0.29445192,-0.30080128,4.308544158935547,6.641971111297607,1.5430409908294678,-63.73421859741211,74.40396881103516, -46.1797981262207
288,133228832,0.25140798,-0.86448,-0.2918955,-0.322902,5.03380823135376,2.7810003757476807,0.5359190106391907,-126.77976989746094,111.72216796875, -58.62334442138672
289,133245499,0.23562916,-0.8594891,-0.28737473,-0.35096082,6.43175745010376,0.4122273623943329,0.041369497776031494,-151.3597869873047,150.88160705566406, -65.69151306152344
290,133262166,0.22187568,-0.8506601,-0.28180948,-0.3843594,6.909025192260742,-0.942825436592102,-0.7595511078834534,-146.26296997070312,197.23956298828125, -70.93265533447266
291,133278833,0.21262887,-0.8374733,-0.27619544,-0.42088467,7.554867744445801,-2.340322256088257,-1.5580514669418335,-119.48483276367188,235.72665405273438, -72.0452880859375
292,133295500,0.20749518,-0.8200469,-0.27074096,-0.4595307,8.416608810424805,-2.177398681640625,-2.02962327003479,-93.2332534790039,267.698974609375, -72.33222961425781
293,133312167,0.20508015,-0.7987261,-0.26535532,-0.4995656,9.907625198364258,-1.6676747798919678,-3.116121530532837,-74.771484375,292.7402038574219, -73.46833038330078
294,133328834,0.20520453,-0.77375835,-0.26015443,-0.539916,10.940924644470215,-1.9328843355178833,-4.394784927368164,-55.660125732421875,311.3529052734375, -72.94058227539062
295,133345501,0.20693874,-0.745604,-0.25565743,-0.5795608,12.283529281616211,-1.6586276292800903,-5.068301677703857,-38.75351333618164,321.3554992675781, -75.49879455566406
296,133362168,0.20925367,-0.71474034,-0.25153184,-0.61813533,13.321867942810059,-1.6158266067504883,-5.632415771484375,-28.578989028930664,327.2462158203125, -78.40291595458984
297,133378835,0.2120392,-0.6813978,-0.2486778,-0.6549017,13.957635879516602,-1.5431877374649048,-6.3131422996521,-14.175224304199219,328.021240234375, -84.41219329833984
298,133395502,0.21442074,-0.6464467,-0.24826369,-0.6888366,14.668648719787598,-0.9019313454627991,-7.445323467254639,2.111224412918091,317.9495544433594, -96.35620880126953
299,133412169,0.2136578,-0.612865,-0.24854152,-0.71900916,14.595985412597656,0.13682059943675995,-8.032079696655273,-4.178569316864014,288.6185302734375, -106.4966049194336
300,133428836,0.20788507,-0.5841088,-0.24505064,-0.745353,13.715858459472656,0.1572410762310028,-8.601744651794434,-44.47348403930664,245.91766357421875, -101.55616760253906
301,133445503,0.19856477,-0.5620867,-0.23621611,-0.7673544,11.95096492767334,-1.5597611665725708,-10.456256866455078,-88.43106079101562,195.987060546875, -80.79794311523438
302,133462170,0.18898492,-0.54728544,-0.2250888,-0.78364456,9.941730499267578,-3.357192277908325,-12.049914360046387,-102.128173828125,138.95578002929688, -53.91984558105469
303,133478837,0.1802637,-0.53908616,-0.21556655,-0.79399145,7.810120582580566,-3.783134698867798,-12.39348030090332,-89.63919067382812,80.74676513671875, -37.57335662841797
304,133495504,0.1737604,-0.53767765,-0.20990926,-0.7979026,6.7630133628845215,-4.366019248962402,-12.582012176513672,-59.207489013671875,18.799360275268555, -21.918325424194336
305,133512171,0.17193249,-0.54319054,-0.20995224,-0.79454625,7.298949718475342,-3.5903327465057373,-12.263612747192383,-8.44550609588623,-45.62751388549805, 1.1573379039764404
306,133528838,0.17351203,-0.5545599,-0.21262,-0.785589,11.739011764526367,-1.7309598922729492,-5.0029520988464355,19.75875473022461,-96.2679672241211, 24.8925838470459
307,133545505,0.16052267,-0.56669736,-0.20391878,-0.7819873,20.951181411743164,12.549971580505371,14.723310470581055,-105.96561431884766,-87.46151733398438, -15.81638240814209
308,133562172,0.14899819,-0.58334523,-0.19037642,-0.7754128,9.500765800476074,-7.910045146942139,-8.073410034179688,-127.15000915527344,-116.16989135742188, 20.851009368896484
309,133578839,0.15787879,-0.5998457,-0.19385616,-0.7600524,12.994616508483887,-5.953556060791016,-1.4226878881454468,57.131744384765625,-141.02743530273438, 69.89925384521484
310,133595506,0.16125429,-0.61413544,-0.199059,-0.74646544,8.456197738647461,1.3109850883483887,-2.9593353271484375,43.485923767089844,-131.24949645996094, 28.90306282043457
311,133612173,0.16641626,-0.62559175,-0.2098975,-0.7327238,11.236050605773926,-3.459301710128784,-4.678538799285889,83.27679443359375,-121.04491424560547, 10.563655853271484
312,133628840,0.17391454,-0.63518757,-0.22106664,-0.7193193,12.574172019958496,-1.1485261917114258,-2.3159594535827637,96.61101531982422,-107.0634994506836, 17.666208267211914
313,133645507,0.17349085,-0.6433798,-0.22812769,-0.7098743,10.164859771728516,2.35915207862854,-0.980339527130127,37.323543548583984,-89.8718032836914, -10.535101890563965
314,133662174,0.1689427,-0.6504832,-0.23053321,-0.70369357,8.859031677246094,4.19578742980957,-0.8678200244903564,-7.497399806976318,-70.99503326416016, -15.628188133239746
315,133678841,0.1618794,-0.65935385,-0.22793168,-0.69792193,10.228309631347656,1.3824211359024048,-0.8323472142219543,-45.69685363769531,-75.85554504394531, -2.955134153366089
316,133695508,0.15850829,-0.66687393,-0.227414,-0.6916917,9.983098983764648,0.7438886165618896,-0.2776065468788147,-16.753555297851562,-67.95929718017578, 3.740255117416382
317,133712175,0.15585613,-0.6745419,-0.22718549,-0.6849008,9.7881498336792,1.0186978578567505,-0.9748137593269348,-11.37764835357666,-70.42684936523438, 6.682058334350586
318,133728842,0.15292911,-0.6815445,-0.22724678,-0.67857873,10.475727081298828,1.06754469871521,-1.2666422128677368,-11.31899356842041,-65.8469009399414, 2.516186237335205
319,133745509,0.14756021,-0.6881063,-0.22524068,-0.6737973,10.137336730957031,2.8873252868652344,-1.0403285026550293,-34.362693786621094,-58.195255279541016, -1.4789011478424072
320,133762176,0.14039701,-0.6945662,-0.2204527,-0.6702741,9.785244941711426,1.0928826332092285,-1.5483033657073975,-57.58820724487305,-51.717933654785156, 2.0192389488220215
321,133778843,0.13559751,-0.7002269,-0.21869814,-0.6659332,9.462862968444824,-0.6812850832939148,-1.4531497955322266,-30.31793212890625,-51.26602554321289, -1.9670538902282715
322,133795510,0.13554497,-0.7049551,-0.2210334,-0.66015947,9.81109619140625,-0.17114807665348053,-1.4049177169799805,14.271797180175781,-50.56498718261719, -0.027751628309488297
323,133812177,0.1389198,-0.709133,-0.22568935,-0.65337294,9.261857032775879,1.2777429819107056,-1.6329056024551392,43.45859909057617,-49.938568115234375, 4.348084926605225
324,133828844,0.1406204,-0.71372426,-0.22845684,-0.6470172,9.591964721679688,2.245943307876587,-1.0884060859680176,25.745515823364258,-50.49253463745117, 6.2666850090026855
325,133845511,0.13919802,-0.71920115,-0.22793663,-0.6414195,9.561429977416992,1.8471330404281616,-1.1600717306137085,-6.247807502746582,-52.45979690551758, 9.207531929016113
326,133862178,0.13605332,-0.7252472,-0.22556637,-0.63610226,9.561726570129395,1.2276201248168945,-1.6933808326721191,-23.90321922302246,-54.52996063232422, 11.42487907409668
327,133878845,0.13237298,-0.7313189,-0.22266161,-0.6309297,9.729670524597168,0.7423810958862305,-2.1450912952423096,-29.15853500366211,-54.2572021484375, 11.679609298706055
328,133895512,0.12903747,-0.73707306,-0.22004957,-0.6258204,9.740236282348633,0.4009694457054138,-2.292635917663574,-25.96333122253418,-52.306156158447266, 11.176273345947266
329,133912179,0.12637413,-0.7424598,-0.2181445,-0.62064195,9.861791610717773,0.17784589529037476,-2.3689522743225098,-19.08368682861328,-50.70875549316406, 10.000834465026855
330,133928846,0.12487196,-0.74746525,-0.2173243,-0.6152017,9.847700119018555,0.1263667643070221,-2.3571770191192627,-7.803096771240234,-49.65876007080078, 9.07776927947998
331,133945513,0.12439595,-0.75225854,-0.21749331,-0.60936826,9.831151008605957,0.3930993676185608,-2.418034315109253,2.42653751373291,-50.154354095458984, 8.358620643615723
332,133962180,0.124605246,-0.7570956,-0.2181997,-0.6030498,9.96298599243164,0.4198911488056183,-2.4104018211364746,8.915570259094238,-52.349090576171875, 8.942937850952148
333,133978847,0.1259451,-0.76206404,-0.21949464,-0.5960023,9.986140251159668,0.4223322868347168,-2.82914400100708,18.228761672973633,-55.57532501220703, 11.40237045288086
334,133995514,0.1274163,-0.7672151,-0.22085725,-0.5885307,9.9190092086792,1.4528535604476929,-2.3471641540527344,19.68408966064453,-58.480716705322266, 12.243687629699707
335,134012181,0.12821966,-0.7728216,-0.22171412,-0.5806459,10.212501525878906,1.541947603225708,-2.1505653858184814,14.360679626464844,-63.16282272338867, 13.304895401000977
336,134028848,0.12948298,-0.7787317,-0.22249562,-0.5721076,10.304704666137695,0.6312326192855835,-2.603904962539673,17.25048065185547,-67.17655944824219, 16.624982833862305
337,134045515,0.13216908,-0.78471494,-0.22358957,-0.56281596,10.436328887939453,-0.034301575273275375,-2.909919023513794,27.19625473022461,-69.68672943115234, 21.352476119995117
338,134062182,0.13616596,-0.7905992,-0.22479641,-0.553063,10.68755054473877,-0.009416161105036736,-3.2273714542388916,35.51185607910156,-69.96257019042969, 26.09031867980957
339,134078849,0.14041698,-0.79646844,-0.22568159,-0.54312915,11.07728099822998,0.44173458218574524,-3.1592423915863037,35.97187423706055,-70.2712173461914, 28.96173667907715
340,134095516,0.14424716,-0.8025359,-0.226089,-0.53292865,11.436429977416992,0.8048099279403687,-2.6942684650421143,32.11712646484375,-72.74127197265625, 30.593400955200195
341,134112183,0.14722331,-0.80924296,-0.225921,-0.52193034,12.071410179138184,0.8265772461891174,-1.8579027652740479,25.916553497314453,-80.32953643798828, 32.45456314086914
342,134128850,0.15084496,-0.81675714,-0.22499704,-0.509441,13.778462409973145,0.6031148433685303,-1.1935683488845825,28.30833625793457,-89.8536376953125, 41.772422790527344
343,134145517,0.15450779,-0.8253249,-0.22347477,-0.49500054,14.045587539672852,1.3535977602005005,0.3882189393043518,28.380979537963867,-103.933349609375, 48.96063232421875
344,134162184,0.15736698,-0.8347921,-0.22289218,-0.47820213,15.724172592163086,0.9411262273788452,1.7084944248199463,29.700984954833984,-122.74099731445312, 44.8234748840332
345,134178851,0.16279069,-0.8442621,-0.22416466,-0.45877162,17.570287704467773,1.2730348110198975,3.2154078483581543,54.56113815307617,-136.08871459960938, 45.50027847290039
346,134195518,0.1715671,-0.85259676,-0.22827776,-0.437645,18.17708396911621,1.0340155363082886,5.263996124267578,86.88015747070312,-140.53802490234375, 39.78432846069336
347,134212185,0.18481535,-0.86010015,-0.23336981,-0.41425836,15.076620101928711,0.8445550799369812,3.5159659385681152,120.57748413085938,-145.60874938964844, 48.92039489746094
348,134228852,0.2031183,-0.86750764,-0.2383129,-0.3864978,12.994733810424805,-0.9711107015609741,-3.915156602859497,157.19996643066406,-163.0307159423828, 69.6639175415039
349,134245519,0.22534153,-0.8743272,-0.2414938,-0.35560396,13.873270034790039,-0.8748664259910583,-8.357698440551758,181.8658447265625,-171.29104614257812, 94.04803466796875
350,134262186,0.24713975,-0.87941116,-0.24191101,-0.32716557,12.111410140991211,2.9481277465820312,-7.166434288024902,171.16714477539062,-148.67564392089844, 102.9758071899414
351,134278853,0.26272953,-0.88360167,-0.24133258,-0.3032824,9.985709190368652,5.551955699920654,-1.2216236591339111,125.353271484375,-127.72109985351562, 85.85895538330078
352,134295520,0.2655137,-0.88765407,-0.24091099,-0.2890243,9.182923316955566,5.046141624450684,0.11716786026954651,32.193328857421875,-90.49542236328125, 40.64613723754883
353,134312187,0.268032,-0.88831764,-0.24293049,-0.28290614,11.807024955749512,-1.7422549724578857,-1.7635910511016846,28.15949058532715,-39.00190353393555, 4.793308734893799
354,134328854,0.27893037,-0.88243854,-0.24831307,-0.28607908,6.43904447555542,6.020218849182129,4.212194919586182,82.4093017578125,38.244056701660156, -27.48565673828125
355,134345521,0.27835456,-0.8768361,-0.25353205,-0.2989967,3.2596449851989746,8.528246879577637,1.1478830575942993,-4.675745964050293,77.52628326416016, -67.2364730834961
356,134362188,0.26592454,-0.8732077,-0.2533076,-0.32035604,4.654662609100342,3.1704065799713135,0.3078870475292206,-105.79256439208984,114.13700866699219, -71.4792251586914
357,134378855,0.24919194,-0.867965,-0.25083864,-0.3487414,7.087157726287842,0.6625181436538696,-0.15754853188991547,-145.86793518066406,156.50233459472656, -83.15875244140625
358,134395522,0.23112488,-0.85938793,-0.24637437,-0.38384083,6.537006855010986,-0.637806236743927,-1.2028049230575562,-164.51747131347656,205.69480895996094, -91.73880767822266
359,134412189,0.21564509,-0.84683853,-0.2409416,-0.42226684,7.125803470611572,-1.7823593616485596,-1.7132775783538818,-151.13075256347656,241.7755584716797, -91.24644470214844
360,134428856,0.20268862,-0.8301546,-0.2349695,-0.463196,8.290231704711914,-1.4924829006195068,-2.242884635925293,-136.04884338378906,273.3607177734375, -91.38609313964844
361,134445523,0.19161716,-0.80928105,-0.22885507,-0.5059375,9.988616943359375,-1.2310829162597656,-3.364551544189453,-122.85204315185547,300.32379150390625, -93.90745544433594
362,134462190,0.18387267,-0.7839061,-0.22335173,-0.5493601,11.674240112304688,-1.6603690385818481,-5.209199905395508,-97.36579132080078,324.2405700683594, -93.74836730957031
363,134478857,0.18024473,-0.75482786,-0.2191729,-0.59136295,12.674656867980957,-2.1386523246765137,-6.26128625869751,-63.31428527832031,335.26544189453125, -89.26005554199219
364,134495524,0.18034625,-0.7224613,-0.21706857,-0.6311943,13.51293659210205,-2.240838050842285,-6.460735321044922,-28.174482345581055,340.466552734375, -87.15707397460938
365,134512191,0.18375595,-0.68693066,-0.21882088,-0.66818976,14.279109954833984,-2.4919705390930176,-6.713653564453125,13.158385276794434,340.32586669921875, -93.19500732421875
366,134528858,0.1885496,-0.64921534,-0.22520864,-0.70160526,15.033255577087402,-1.7916045188903809,-7.588031768798828,49.1456298828125,329.7399597167969, -107.52828979492188
367,134545525,0.1909806,-0.61189926,-0.23361246,-0.7311164,14.884245872497559,0.10123715549707413,-8.154147148132324,53.847694396972656,304.16888427734375, -122.27067565917969
368,134562192,0.18742108,-0.57877654,-0.23880807,-0.75687647,13.36602783203125,1.3528581857681274,-8.492033958435059,13.013223648071289,261.9453430175781, -127.23210906982422
369,134578859,0.17717244,-0.552,-0.2361437,-0.77983475,12.497211456298828,0.18672460317611694,-8.827010154724121,-58.11222839355469,216.97341918945312, -116.7330322265625
370,134595526,0.16549526,-0.53127134,-0.22908978,-0.7986739,11.770691871643066,-1.894587516784668,-9.795132637023926,-87.76136779785156,172.0049591064453, -92.90508270263672
371,134612193,0.1549947,-0.51702905,-0.22342622,-0.81162727,8.983790397644043,-3.4158248901367188,-10.91160774230957,-73.94010925292969,115.22847747802734, -74.6308364868164
372,134628860,0.14704454,-0.5096405,-0.22104673,-0.8184028,7.812675476074219,-5.146856784820557,-10.989952087402344,-44.36293411254883,55.517086029052734, -54.990596771240234
373,134645527,0.14343776,-0.5095441,-0.22283138,-0.81861895,6.903419494628906,-4.430652618408203,-10.282768249511719,-3.1161906719207764,-6.030501365661621, -27.468042373657227
374,134662194,0.14219289,-0.51698667,-0.22515324,-0.8135185,6.5267486572265625,-3.1257734298706055,-9.82967758178711,8.891252517700195,-63.93423843383789, 0.7024194598197937
375,134678861,0.14168383,-0.5298259,-0.22591265,-0.8050926,7.472230911254883,-2.9274473190307617,-7.763428211212158,2.6349523067474365,-103.21760559082031, 21.952808380126953
376,134695528,0.1394805,-0.5436852,-0.22098847,-0.79756874,14.008843421936035,1.2258187532424927,9.643392562866211,-37.39432907104492,-102.62667846679688, 33.96476364135742
377,134712195,0.11283905,-0.54974526,-0.19831589,-0.8035663,22.11198616027832,17.620704650878906,21.025375366210938,-239.1751708984375,-29.474401473999023, -58.516990661621094
378,134728862,0.10593075,-0.5662064,-0.18391788,-0.7964695,9.215919494628906,-20.6628475189209,-12.154349327087402,-109.06047821044922,-116.04965209960938, 43.68621063232422
379,134745529,0.12565775,-0.5823855,-0.19654834,-0.7787209,14.960243225097656,-7.9357733726501465,-3.525996208190918,156.38592529296875,-141.91409301757812, 91.60330200195312
380,134762196,0.13369955,-0.5986315,-0.20818861,-0.76185447,9.831840515136719,4.486667156219482,-0.055520087480545044,103.04087829589844,-153.64566040039062, 32.248905181884766
381,134778863,0.1409455,-0.609808,-0.22289167,-0.7473876,9.191536903381348,2.9860785007476807,-6.149075984954834,117.0207290649414,-121.17277526855469, 6.022539138793945
382,134795530,0.14470413,-0.6235933,-0.22928965,-0.73322487,12.266974449157715,3.3057470321655273,-3.110153913497925,56.70708084106445,-130.5682830810547, 26.63367462158203
383,134812197,0.13588208,-0.63616353,-0.22292942,-0.72604054,10.377349853515625,4.064603328704834,-1.1459492444992065,-71.35820770263672,-101.64432525634766, 9.069189071655273
384,134828864,0.12744097,-0.6451592,-0.21690841,-0.7214427,9.882965087890625,0.5878008604049683,-1.3246902227401733,-68.62831115722656,-72.21664428710938, 1.6224738359451294
385,134845531,0.12504078,-0.6539227,-0.21627955,-0.7141242,10.191405296325684,-0.6952879428863525,-1.3829244375228882,-10.825414657592773,-78.84932708740234, 9.7119722366333
386,134862198,0.12932092,-0.66089594,-0.22111142,-0.70540947,10.159363746643066,-1.073183536529541,-1.2832826375961304,49.638404846191406,-71.10176086425781, 16.488656997680664
387,134878865,0.13653338,-0.6671968,-0.22827204,-0.69577235,9.991399765014648,1.6993098258972168,-0.10414209216833115,76.25804901123047,-69.65355682373047, 19.909940719604492
388,134895532,0.13793005,-0.674595,-0.23000745,-0.6877457,10.346081733703613,3.2595365047454834,-0.31582191586494446,20.06767463684082,-71.56365203857422, 17.18825912475586
389,134912199,0.1334011,-0.68188506,-0.2267443,-0.6825132,9.903097152709961,3.9193947315216064,-1.1323516368865967,-35.36975860595703,-62.73381423950195, 9.55014705657959
390,134928866,0.12174627,-0.6895291,-0.21647255,-0.68034357,9.260979652404785,3.0620498657226562,-1.0032293796539307,-106.7706298828125,-54.72218704223633, 6.741983413696289
391,134945533,0.11048817,-0.69662666,-0.20668179,-0.6780757,9.896706581115723,-0.2822722792625427,-1.3217960596084595,-102.03619384765625,-52.447975158691406, 5.61311149597168
392,134962200,0.10669511,-0.70247376,-0.20417465,-0.6733943,9.851648330688477,-1.8040311336517334,-1.9355015754699707,-27.942092895507812,-53.10601806640625, 5.587039947509766
393,134978867,0.109872624,-0.7072934,-0.20775327,-0.6667104,9.081907272338867,0.26042622327804565,-1.5884259939193726,37.46696090698242,-52.70293045043945, 8.477014541625977
394,134995534,0.11496319,-0.7117841,-0.21238019,-0.65957695,9.312824249267578,2.0355288982391357,-0.998320460319519,52.465492248535156,-51.44651794433594, 12.011341094970703
395,135012201,0.117513716,-0.7169507,-0.21392332,-0.6530003,9.80426025390625,2.380309581756592,-1.0258150100708008,24.704328536987305,-53.069129943847656, 16.136064529418945
396,135028868,0.11740166,-0.7229572,-0.21268502,-0.64677286,9.769401550292969,1.653218150138855,-1.2900619506835938,-2.098794937133789,-56.796897888183594, 18.855670928955078
397,135045535,0.115585454,-0.72930574,-0.20987247,-0.64086425,9.68713092803955,1.1927244663238525,-1.6657602787017822,-18.310806274414062,-57.96397018432617, 19.353303909301758
398,135062202,0.11231745,-0.7357745,-0.20593305,-0.63530517,9.6251859664917,0.9550857543945312,-1.8285919427871704,-31.15391731262207,-57.94673156738281, 18.5086612701416
399,135078869,0.108835086,-0.7421631,-0.20198044,-0.62972456,9.810562133789062,0.5996320843696594,-2.137814998626709,-32.202423095703125,-58.00731658935547, 17.548250198364258
400,135095536,0.10660082,-0.7482829,-0.19922593,-0.6237133,9.814379692077637,0.5112776756286621,-2.3623597621917725,-19.845809936523438,-58.212379455566406, 16.79054832458496
401,135112203,0.10559479,-0.7541882,-0.19746746,-0.6172983,9.778169631958008,0.5093551278114319,-2.401442050933838,-8.543766021728516,-58.426448822021484, 16.937408447265625
402,135128870,0.10562019,-0.7599501,-0.19651045,-0.610495,9.838435173034668,0.28558483719825745,-2.5954275131225586,0.838385283946991,-59.0241813659668, 17.24793243408203
403,135145537,0.10673479,-0.765583,-0.19633862,-0.603276,9.967949867248535,0.43262773752212524,-2.6141726970672607,10.482316970825195,-59.76380157470703, 17.843971252441406
404,135162204,0.10891171,-0.7713211,-0.19695283,-0.59532505,10.085487365722656,0.915049135684967,-2.948861598968506,20.246238708496094,-63.20907974243164, 18.792797088623047
405,135178871,0.111132786,-0.7772603,-0.1977573,-0.58686304,10.502854347229004,1.645412802696228,-2.384927988052368,21.802915573120117,-66.83712768554688, 18.622682571411133
406,135195538,0.11316248,-0.7835579,-0.19820054,-0.5778824,10.852884292602539,0.9229470491409302,-2.1798336505889893,19.756105422973633,-71.05524444580078, 20.67276382446289
407,135212205,0.116461836,-0.7899922,-0.19866174,-0.56822777,11.08625602722168,-0.6220853328704834,-2.7812695503234863,27.482738494873047,-73.53431701660156, 26.335094451904297
408,135228872,0.12148769,-0.79632664,-0.19957352,-0.5579206,11.032065391540527,-0.8312283158302307,-3.0049493312835693,39.59294509887695,-74.70887756347656, 31.013916015625
409,135245539,0.1260364,-0.8031117,-0.20010576,-0.54688627,11.801416397094727,1.0824757814407349,-1.4508883953094482,36.146751403808594,-80.77266693115234, 32.481563568115234
410,135262206,0.129488,-0.8109143,-0.19969241,-0.5345784,12.595292091369629,1.1469690799713135,-1.4986817836761475,27.406925201416016,-92.34940338134766, 36.08869934082031
411,135278873,0.13357802,-0.8198971,-0.19792287,-0.52033895,14.332940101623535,1.6171929836273193,-0.20193041861057281,27.586851119995117,-105.4030532836914, 49.346309661865234
412,135295540,0.13639416,-0.8301514,-0.19646266,-0.50363463,15.080144882202148,1.1586798429489136,0.7604727745056152,23.7034912109375,-125.9070816040039, 47.05147171020508
413,135312207,0.14164689,-0.8406613,-0.19712968,-0.4841125,17.70353889465332,0.5280741453170776,1.9366697072982788,48.548885345458984,-141.62994384765625, 46.34654235839844
414,135328874,0.15126786,-0.8503989,-0.20082307,-0.46217978,19.3031005859375,0.9615511298179626,3.842691421508789,87.8953628540039,-150.08450317382812, 44.70594024658203
415,135345541,0.16479667,-0.85866,-0.20699768,-0.43897307,17.921072006225586,2.3889524936676025,6.194278717041016,121.93197631835938,-150.1042938232422, 41.91960906982422
416,135362208,0.18062495,-0.86629206,-0.21250041,-0.41443548,12.14492130279541,1.772273302078247,0.46436256170272827,136.09483337402344,-152.11154174804688, 53.4699592590332
417,135378875,0.20033239,-0.87442654,-0.21665467,-0.38510558,10.71099853515625,-3.769517183303833,-10.796156883239746,161.75242614746094,-174.78945922851562, 79.27438354492188
418,135395542,0.22761436,-0.8804945,-0.21880427,-0.3536189,12.946825981140137,-1.501910924911499,-11.114983558654785,208.06187438964844,-168.22669982910156, 111.28914642333984
419,135412209,0.25088543,-0.88499475,-0.21863873,-0.3256352,10.497503280639648,4.045424938201904,-4.413102626800537,175.31764221191406,-145.5889892578125, 107.7210922241211
420,135428876,0.26014635,-0.88885707,-0.21818988,-0.30765322,9.802037239074707,6.3453521728515625,2.1348001956939697,75.4843978881836,-103.8576889038086, 59.883888244628906
421,135445543,0.26171228,-0.889867,-0.2211581,-0.30121884,11.060144424438477,1.1446404457092285,-0.02125953882932663,23.47711181640625,-44.93528747558594, -2.1712210178375244
422,135462210,0.27133477,-0.885449,-0.22588508,-0.30221513,6.148467540740967,4.087871551513672,2.6726491451263428,74.88390350341797,20.826345443725586, -17.849916458129883
423,135478877,0.27503097,-0.87983674,-0.23079433,-0.31141534,2.4666175842285156,8.085967063903809,1.6796801090240479,28.67755699157715,63.69070816040039, -48.409542083740234
424,135495544,0.2655045,-0.87631667,-0.23078544,-0.32911196,3.4704842567443848,5.3355393409729,1.190086841583252,-79.2661361694336,98.92928314208984, -59.69060134887695
425,135512211,0.24825539,-0.87226075,-0.22846958,-0.35402313,6.048834323883057,2.26074481010437,-0.8385624885559082,-141.49314880371094,135.5711669921875, -77.28227996826172
426,135528878,0.22791402,-0.86550915,-0.22460014,-0.3853625,7.051399230957031,-0.13534347712993622,-1.4931795597076416,-169.33499145507812,178.48516845703125, -90.7072525024414
427,135545545,0.20815754,-0.8549333,-0.22025013,-0.4210102,7.317367076873779,-0.9357670545578003,-1.4252601861953735,-167.80360412597656,215.9178466796875, -98.97369384765625
428,135562212,0.18971454,-0.8402587,-0.21549304,-0.45993125,7.776134967803955,-1.0578562021255493,-1.5128707885742188,-160.3666534423828,249.60459899902344, -103.69371032714844
429,135578879,0.17292032,-0.8220463,-0.2103649,-0.50008553,9.4788236618042,-1.4452303647994995,-2.573767900466919,-149.23614501953125,270.8480529785156, -103.20661926269531
430,135595546,0.16028292,-0.79953396,-0.20532306,-0.54120016,11.264471054077148,-2.556694984436035,-4.88783597946167,-121.7221450805664,296.9803771972656, -96.78144073486328
431,135612213,0.15440065,-0.7730654,-0.20257263,-0.58094317,11.757984161376953,-2.9302501678466797,-5.394252777099609,-69.75389099121094,311.18475341796875, -88.33377075195312
432,135628880,0.15344353,-0.74341446,-0.20175953,-0.61893725,12.627963066101074,-2.8001790046691895,-5.66516637802124,-30.015697479248047,319.42401123046875, -81.55310821533203
433,135645547,0.15663528,-0.71108,-0.20367819,-0.6544816,13.442730903625488,-3.288696527481079,-5.547893047332764,9.054415702819824,321.2232971191406, -79.0174789428711
434,135662214,0.16220959,-0.67628866,-0.20962623,-0.6872982,13.92465877532959,-2.5608956813812256,-5.495026588439941,45.310142517089844,317.9718017578125, -88.52365112304688
435,135678881,0.16636899,-0.64042014,-0.218313,-0.7173028,14.77708625793457,-0.7088788747787476,-5.946019649505615,56.93114471435547,304.9211730957031, -106.38345336914062
436,135695548,0.1658671,-0.6063147,-0.22532712,-0.744378,14.351292610168457,0.4462086260318756,-6.880967140197754,30.522565841674805,278.26214599609375, -116.01736450195312
437,135712215,0.1598263,-0.57690644,-0.22705363,-0.7681678,13.039713859558105,0.216592937707901,-7.481117248535156,-19.91377830505371,237.9979705810547, -111.29776000976562
438,135728882,0.14994636,-0.5532184,-0.22244935,-0.7886585,12.229616165161133,-1.1829521656036377,-8.431289672851562,-69.728271484375,195.70042419433594, -93.91079711914062
439,135745549,0.13986994,-0.5359703,-0.21514085,-0.80429286,10.128092765808105,-2.9647510051727295,-9.959187507629395,-84.3569564819336,144.84243774414062, -69.84638214111328
440,135762216,0.13104048,-0.5256055,-0.20858818,-0.814284,8.440149307250977,-4.441598415374756,-10.811835289001465,-73.85261535644531,87.15859985351562, -50.146854400634766
441,135778883,0.12548727,-0.5222102,-0.20458223,-0.8183494,7.460082530975342,-4.885319709777832,-10.93286418914795,-45.5347900390625,29.197351455688477, -25.700439453125
442,135795550,0.123307325,-0.5266496,-0.20322391,-0.8161714,6.4687418937683105,-3.683988094329834,-10.642606735229492,-16.504179000854492,-34.77239990234375, 0.15068668127059937
443,135812217,0.12345984,-0.5371084,-0.20263462,-0.80945146,7.6823883056640625,-2.5407474040985107,-9.587047576904297,-2.5026943683624268,-82.32898712158203, 22.69407081604004
444,135828884,0.12567641,-0.5502485,-0.20251243,-0.8002632,13.682536125183105,0.2670705020427704,3.7358405590057373,8.87867546081543,-103.83072662353516, 38.26887512207031
445,135845551,0.10758043,-0.5580275,-0.18755218,-0.8011594,21.0383358001709,16.810138702392578,18.733264923095703,-159.02944946289062,-51.6468505859375, -33.542579650878906
446,135862218,0.100770675,-0.57265365,-0.17571613,-0.7943784,7.567342758178711,-13.109058380126953,-9.572577476501465,-93.69363403320312,-106.65128326416016, 31.230066299438477
447,135878885,0.11722224,-0.59014684,-0.18381943,-0.7773008,15.067225456237793,-6.480918884277344,-2.910238265991211,117.2930679321289,-148.5186767578125, 90.30469512939453
448,135895552,0.124351375,-0.6064814,-0.19061942,-0.76182777,9.392645835876465,4.290769100189209,0.5502691268920898,71.41466522216797,-146.5105438232422, 42.9510498046875
449,135912219,0.12829012,-0.61747605,-0.1975865,-0.75048316,7.751786231994629,2.030686140060425,-3.9669251441955566,58.12688446044922,-105.6462631225586, 15.024993896484375
450,135928886,0.13316952,-0.6309996,-0.20524967,-0.7361916,12.554787635803223,0.3512823283672333,-3.4280455112457275,67.47820281982422,-130.52793884277344, 22.960853576660156
451,135945553,0.12889138,-0.6429591,-0.2027429,-0.7272457,11.093291282653809,1.4633265733718872,-1.5460680723190308,-29.84984588623047,-103.00489044189453, 13.620989799499512
452,135962220,0.12201049,-0.6520627,-0.20043837,-0.7209385,9.854484558105469,1.0451716184616089,-1.2631157636642456,-41.49756622314453,-80.85812377929688, -6.599009990692139
453,135978887,0.116180874,-0.66091114,-0.19908956,-0.7141865,10.083451271057129,1.094732403755188,-1.3417322635650635,-31.224090576171875,-80.9369125366211, -5.644561290740967
454,135995554,0.11334351,-0.6691785,-0.1981806,-0.70716226,10.162689208984375,-0.5591090321540833,-1.2232277393341064,-14.634175300598145,-75.57205963134766, 6.476775646209717
455,136012221,0.114937805,-0.6764648,-0.20104001,-0.6991195,9.847704887390137,-0.10384531319141388,-0.5617192983627319,26.229747772216797,-72.38597869873047, 10.134564399719238
456,136028888,0.11623088,-0.6836367,-0.20352802,-0.6911642,10.344752311706543,1.8224680423736572,-0.9192175269126892,23.012062072753906,-71.55879974365234, 10.179839134216309
457,136045555,0.11411977,-0.69050133,-0.2031844,-0.68476367,10.249098777770996,2.9719836711883545,-1.5058205127716064,-8.37694263458252,-65.29463958740234, 5.645606517791748
458,136062222,0.10744399,-0.6971836,-0.19824907,-0.68050605,9.888103485107422,2.584174871444702,-1.4299530982971191,-54.520118713378906,-57.03727722167969, 4.035234451293945
459,136078889,0.09925698,-0.70339257,-0.1915245,-0.67727804,9.812322616577148,0.15738648176193237,-1.6079994440078735,-71.19110870361328,-50.62635803222656, 4.153960227966309
460,136095556,0.09568191,-0.70842594,-0.18959162,-0.67307717,9.595593452453613,-0.3996698558330536,-1.8185971975326538,-24.491735458374023,-47.05272674560547, 1.5740505456924438
461,136112223,0.09647577,-0.7129936,-0.1911362,-0.66768235,9.62024211883545,0.2772834300994873,-1.4391987323760986,14.745046615600586,-47.30583953857422, 5.025364398956299
462,136128890,0.09957849,-0.7173015,-0.19407994,-0.661737,9.563075065612793,0.9823217391967773,-1.0106117725372314,33.38236999511719,-46.71012878417969, 8.783422470092773
463,136145557,0.10206846,-0.7218847,-0.19647816,-0.655638,9.691056251525879,1.5314534902572632,-1.0325056314468384,27.89508056640625,-49.173789978027344, 9.156959533691406
464,136162224,0.10396148,-0.72678703,-0.19813491,-0.64939636,9.693997383117676,1.5988922119140625,-1.5015215873718262,21.5592041015625,-51.613800048828125, 10.679817199707031
465,136178891,0.104780264,-0.731975,-0.19871354,-0.64323187,9.750173568725586,1.5783324241638184,-1.6099992990493774,11.067808151245117,-53.20225143432617, 11.609126091003418
466,136195558,0.10405421,-0.73725593,-0.1979424,-0.6375308,9.663822174072266,1.494719386100769,-1.837253451347351,-3.3758139610290527,-52.42418670654297, 11.368409156799316
467,136212225,0.10240188,-0.74252313,-0.19637631,-0.632147,9.686224937438965,0.7782366275787354,-2.06892728805542,-11.97765827178955,-51.4531364440918, 11.098896980285645
468,136228892,0.101381876,-0.74753183,-0.19566253,-0.6266057,9.779365539550781,0.10569577664136887,-2.290651321411133,-4.6498637199401855,-50.885292053222656, 9.25982666015625
469,136245559,0.10200921,-0.75223064,-0.19645996,-0.62060225,9.816222190856934,0.2455512285232544,-2.40476393699646,11.165291786193848,-50.76911163330078, 8.491914749145508
470,136262226,0.10383612,-0.7568942,-0.19804153,-0.6140921,9.908330917358398,0.4332830011844635,-2.6013646125793457,21.424850463867188,-52.176490783691406, 9.859676361083984
471,136278893,0.106509544,-0.7616663,-0.19988246,-0.60709757,9.872245788574219,0.6597496271133423,-2.6171271800994873,27.507625579833984,-54.19667434692383, 12.576050758361816
472,136295560,0.109880395,-0.766528,-0.20185596,-0.5996797,9.757854461669922,1.1348906755447388,-2.6826467514038086,32.230342864990234,-55.93573760986328, 15.22557258605957
473,136312227,0.11294199,-0.77183694,-0.203282,-0.5917672,9.720396995544434,1.8514999151229858,-2.649348497390747,28.693273544311523,-60.413448333740234, 17.83393096923828
474,136328894,0.11454705,-0.7777492,-0.20361602,-0.58354604,10.106789588928223,1.802338719367981,-2.2930965423583984,16.485599517822266,-65.7053451538086, 18.795764923095703
475,136345561,0.116439685,-0.78400034,-0.20376144,-0.57468855,10.580974578857422,0.5518894195556641,-2.590632915496826,17.892986297607422,-69.93292236328125, 21.943756103515625
476,136362228,0.12063609,-0.7902174,-0.20469983,-0.5648909,10.837031364440918,-0.4319038987159729,-3.2166881561279297,34.79165267944336,-72.29012298583984, 27.47857093811035
477,136378895,0.12648132,-0.7963148,-0.20612715,-0.55443406,11.373713493347168,0.062344592064619064,-2.797820568084717,46.67753601074219,-73.50627136230469, 31.598976135253906
478,136395562,0.13148835,-0.80307454,-0.20675492,-0.54317117,12.27297592163086,1.411151647567749,-1.5006117820739746,39.608787536621094,-80.95648956298828, 34.41997146606445
479,136412229,0.1355746,-0.8109579,-0.20560071,-0.53075004,13.66494083404541,1.6405432224273682,-1.3284995555877686,28.505104064941406,-91.27645111083984, 43.4746208190918
480,136428896,0.13835655,-0.82032704,-0.20319921,-0.51636386,13.932930946350098,1.844447374343872,-0.06552687287330627,18.07909393310547,-108.37332153320312, 49.61460494995117
481,136445563,0.14021833,-0.8307677,-0.20181917,-0.49943298,15.874588012695312,0.34109625220298767,0.9028340578079224,19.05675506591797,-128.8348846435547, 44.52021789550781
482,136462230,0.14565861,-0.84142834,-0.20272638,-0.47925395,18.117340087890625,-0.24593739211559296,2.476318836212158,51.65248489379883,-145.44424438476562, 47.18722152709961
483,136478897,0.1557153,-0.85114235,-0.20679834,-0.45666644,19.4051456451416,0.30855292081832886,4.301010608673096,93.09994506835938,-153.0740203857422, 45.18950271606445
484,136495564,0.17044507,-0.8588584,-0.21311273,-0.43346724,16.943864822387695,2.7243833541870117,5.5081400871276855,130.5040283203125,-146.2298583984375, 44.569419860839844
485,136512231,0.18690422,-0.866091,-0.21838364,-0.40897682,11.669148445129395,1.659220576286316,-0.7589777708053589,140.0745391845703,-148.7458038330078, 56.72697067260742
486,136528898,0.20667323,-0.8739048,-0.22216564,-0.37976232,11.40503978729248,-2.837743043899536,-9.829733848571777,161.96128845214844,-171.6717529296875, 81.87931060791016
487,136545565,0.23014651,-0.8798141,-0.22304143,-0.35101613,13.331043243408203,-0.067464679479599,-9.449803352355957,178.62139892578125,-154.07888793945312, 105.45396423339844
488,136562232,0.25013536,-0.88394713,-0.22155857,-0.32708088,10.754137992858887,3.1279871463775635,-3.5579276084899902,147.27340698242188,-122.28211975097656, 100.99661254882812
489,136578899,0.26111722,-0.8867456,-0.22191964,-0.3102454,10.296088218688965,6.0090861320495605,1.268744707107544,88.1588134765625,-93.02696228027344, 55.31684494018555
490,136595566,0.26285934,-0.88821167,-0.22333534,-0.30349106,10.774466514587402,1.7008274793624878,-2.0541319847106934,21.096555709838867,-44.74413299560547, 9.095758438110352
491,136612233,0.27004066,-0.8851455,-0.22572665,-0.30437374,7.172091007232666,5.4987359046936035,3.021378755569458,52.82236862182617,17.914878845214844, -6.247673034667969
492,136628900,0.26777643,-0.88123226,-0.22847606,-0.31547543,3.7475175857543945,9.788287162780762,2.930445909500122,-18.187175750732422,66.52430725097656, -48.44572830200195
493,136645567,0.25205502,-0.87893325,-0.22682045,-0.33540618,3.7843847274780273,5.266009330749512,0.9080343246459961,-126.1056900024414,103.47847747802734, -64.62828063964844
494,136662234,0.23129372,-0.8753233,-0.22289029,-0.3614313,5.381674289703369,1.5540286302566528,-0.4625694453716278,-169.04879760742188,139.410888671875, -75.10702514648438
495,136678901,0.21001859,-0.8683728,-0.21787725,-0.39287496,6.627250671386719,-1.2754446268081665,-1.4953203201293945,-177.8394775390625,181.25680541992188, -83.61727142333984
496,136695568,0.19382448,-0.8564188,-0.21387534,-0.42806154,7.04483699798584,-2.045328140258789,-1.4512416124343872,-143.1599578857422,223.2696075439453, -88.85374450683594
497,136712235,0.18155819,-0.83994746,-0.21071081,-0.4659678,7.6412672996521,-1.4835076332092285,-1.8176512718200684,-115.555419921875,257.2437438964844, -92.5197525024414
498,136728902,0.1706259,-0.819837,-0.20765121,-0.50560415,9.030909538269043,-1.1727999448776245,-2.3054416179656982,-105.49100494384766,280.7059326171875, -96.30760955810547
499,136745569,0.1616465,-0.7958313,-0.20478402,-0.546431,11.031412124633789,-1.666440486907959,-4.007628917694092,-90.95008850097656,303.5347900390625, -97.58263397216797
500,136762236,0.15672144,-0.7679282,-0.20308997,-0.58692384,12.05345344543457,-1.96219801902771,-5.0365519523620605,-59.55491256713867,320.7744445800781, -93.90445709228516
501,136778903,0.15603627,-0.73676175,-0.20313132,-0.62575775,12.901172637939453,-2.438577651977539,-5.604614734649658,-24.326400756835938,329.25994873046875, -88.7442626953125
502,136795570,0.15830778,-0.70255154,-0.20516159,-0.6627738,13.786107063293457,-2.5707099437713623,-5.642087459564209,5.017585277557373,335.1795654296875, -88.4202651977539
503,136812237,0.16236721,-0.66597176,-0.21062997,-0.69696045,14.879817008972168,-2.7328832149505615,-6.0626420974731445,35.89995193481445,331.1275329589844, -97.16749572753906
504,136828904,0.16596742,-0.6285584,-0.21930602,-0.7275123,15.266765594482422,-1.281248927116394,-6.858396530151367,55.368526458740234,314.2684631347656, -111.23078918457031
505,136845571,0.16500579,-0.5938264,-0.22650744,-0.75421333,14.611998558044434,0.40783587098121643,-7.573389530181885,31.008413314819336,279.0452575683594, -119.2505111694336
506,136862238,0.15750898,-0.56493753,-0.22683215,-0.7775498,13.258489608764648,0.6247222423553467,-8.298124313354492,-32.75141906738281,232.6665496826172, -112.14723205566406
507,136878905,0.1455741,-0.5429767,-0.2190291,-0.79750305,12.023538589477539,-1.5327980518341064,-9.888872146606445,-95.68830108642578,184.42213439941406, -89.83995819091797
508,136895572,0.13405347,-0.52810204,-0.2089577,-0.81208044,9.813383102416992,-3.477118968963623,-11.511359214782715,-105.58262634277344,128.45870971679688, -63.066368103027344
509,136912239,0.12438038,-0.52048254,-0.20044944,-0.82063866,7.8776421546936035,-5.077950477600098,-12.101917266845703,-88.18582153320312,67.39039611816406, -42.482608795166016
510,136928906,0.11886454,-0.5203245,-0.19608934,-0.82260734,6.673684120178223,-5.105098247528076,-11.742117881774902,-47.20187759399414,3.980165958404541, -17.98680877685547
511,136945573,0.11737536,-0.5276423,-0.19499348,-0.8184097,6.6706624031066895,-3.6354634761810303,-10.773552894592285,-12.127954483032227,-57.515193939208984, 8.194494247436523
512,136962240,0.11816551,-0.53975457,-0.19455576,-0.81046295,8.552347183227539,-3.5602526664733887,-8.718613624572754,0.9957347512245178,-95.49674224853516, 28.058860778808594
513,136978907,0.117442176,-0.5506114,-0.1946745,-0.80320376,19.701135635375977,6.706465721130371,21.627378463745117,-1.42012357711792,-88.36016082763672, 15.293168067932129
514,136995574,0.09298645,-0.5554512,-0.16959167,-0.8087437,13.153707504272461,9.449893951416016,-0.9569308757781982,-242.74571228027344,-18.197261810302734, -38.721771240234375
515,137012241,0.1027935,-0.57552445,-0.17288588,-0.79266375,15.0654878616333,-16.484363555908203,-7.007436752319336,61.38742446899414,-163.64752197265625, 75.07567596435547
516,137028908,0.11718867,-0.5918936,-0.18082589,-0.77667934,10.476484298706055,0.8699984550476074,-1.5596339702606201,107.42655181884766,-140.84288024902344, 77.1078109741211
517,137045575,0.117522955,-0.6067144,-0.18320145,-0.76454115,9.361873626708984,3.5607993602752686,-0.963257908821106,16.937002182006836,-129.89462280273438, 19.624530792236328
518,137062242,0.12316903,-0.61915016,-0.19336699,-0.7510604,9.316174507141113,1.4462968111038208,-4.007089614868164,83.65261840820312,-122.55766296386719, 13.142589569091797
519,137078909,0.12170686,-0.6327544,-0.1923591,-0.7401401,12.596209526062012,2.005150556564331,-2.9036262035369873,-8.714320182800293,-117.64990234375, 23.385311126708984
520,137095576,0.11241615,-0.64463323,-0.18609203,-0.732926,10.343957901000977,0.5126113891601562,-1.1596956253051758,-73.0051040649414,-98.67510223388672, 1.0551135540008545
521,137112243,0.10634607,-0.6536156,-0.18405999,-0.7263602,9.729425430297852,0.5943809151649475,-1.3870855569839478,-35.98278045654297,-80.3486557006836, -5.686686992645264
522,137128910,0.1030392,-0.6628729,-0.18328002,-0.7186036,10.142072677612305,0.45798754692077637,-0.9791263341903687,-16.00994300842285,-84.48521423339844, 3.708233118057251
523,137145577,0.10434228,-0.6710807,-0.18515907,-0.7102673,10.072981834411621,-1.1452183723449707,-1.157172441482544,19.611352920532227,-78.01607513427734, 13.452187538146973
524,137162244,0.10851196,-0.6786559,-0.18935966,-0.7012804,10.2402925491333,1.1301469802856445,-0.1654515564441681,45.45906066894531,-75.94538879394531, 16.3834171295166
525,137178911,0.10844472,-0.68655854,-0.19001135,-0.693378,10.012689590454102,3.3918964862823486,-0.48733192682266235,6.9209184646606445,-75.34158325195312, 12.130622863769531
526,137195578,0.102592535,-0.6941866,-0.18540901,-0.68789774,9.833995819091797,3.6635122299194336,-1.4834715127944946,-48.39853286743164,-66.24591064453125, 7.210653781890869
527,137212245,0.09227464,-0.7016674,-0.17557292,-0.68434095,9.736062049865723,1.2353270053863525,-1.754115343093872,-96.82227325439453,-58.369384765625, 9.55669116973877
528,137228912,0.08554973,-0.7080843,-0.16919395,-0.6801996,9.849990844726562,-1.211705207824707,-1.6654884815216064,-61.840396881103516,-54.03545379638672, 8.884970664978027
529,137245579,0.08420019,-0.71365505,-0.16843449,-0.6747123,9.46322250366211,-0.49564293026924133,-1.3176944255828857,-7.322887420654297,-53.68265151977539, 6.463707447052002
530,137262246,0.08694221,-0.71892107,-0.17066842,-0.66818094,9.528972625732422,0.28223562240600586,-1.1428332328796387,28.02616310119629,-54.39092254638672, 10.99804401397705
531,137278913,0.09034063,-0.72412914,-0.17310882,-0.6614447,9.716621398925781,1.3252506256103516,-1.164145827293396,32.49549102783203,-54.497501373291016, 13.040201187133789
532,137295580,0.092302606,-0.7296376,-0.17431316,-0.65477055,9.744805335998535,1.5309967994689941,-1.3302356004714966,19.462635040283203,-56.505149841308594, 12.982332229614258
533,137312247,0.09255977,-0.73537344,-0.17416385,-0.64832515,9.704790115356445,1.4474633932113647,-1.6046321392059326,4.397555828094482,-57.57197952270508, 12.230554580688477
534,137328914,0.09136083,-0.74128824,-0.1725931,-0.6421501,9.608616828918457,1.381959080696106,-1.701475739479065,-9.737663269042969,-57.84748840332031, 12.975744247436523
535,137345581,0.08937623,-0.7472642,-0.17024064,-0.6361026,9.71347427368164,0.8429389595985413,-2.097862720489502,-17.382497787475586,-57.91422653198242, 13.491728782653809
536,137362248,0.08854755,-0.7530522,-0.16896589,-0.6297003,9.795206069946289,0.20965585112571716,-2.3329219818115234,-6.199312210083008,-58.22789001464844, 13.011601448059082
537,137378915,0.08905644,-0.7587241,-0.16878997,-0.62282985,9.814538955688477,0.4014674425125122,-2.2767908573150635,6.098586082458496,-59.26644515991211, 13.26034927368164
538,137395582,0.09027011,-0.7645955,-0.16901769,-0.6153686,9.929366111755371,0.8231925964355469,-2.171994924545288,12.068280220031738,-62.637691497802734, 14.763954162597656
539,137412249,0.09175297,-0.77084357,-0.16896664,-0.60731566,10.135136604309082,0.926678478717804,-2.3719921112060547,12.75853157043457,-66.86338806152344, 18.174659729003906
540,137428916,0.093886584,-0.7773488,-0.16890314,-0.59865355,10.303285598754883,0.7722231149673462,-2.795293092727661,16.70240592956543,-70.40884399414062, 21.642581939697266
541,137445583,0.09671443,-0.78417003,-0.16942646,-0.589083,10.536609649658203,0.9346163868904114,-2.6480600833892822,23.67986488342285,-76.14359283447266, 22.318336486816406
542,137462250,0.09922166,-0.7910173,-0.1698126,-0.5793195,10.897905349731445,0.8624998331069946,-2.4240524768829346,21.607101440429688,-77.58106994628906, 21.91933822631836
543,137478917,0.10334212,-0.79781765,-0.17080416,-0.5688881,11.147704124450684,-0.7422151565551758,-3.2002768516540527,33.604915618896484,-79.57042694091797, 25.45547866821289
544,137495584,0.109185025,-0.80489516,-0.1725154,-0.5571903,11.924381256103516,-0.07432985305786133,-1.8148385286331177,47.15979766845703,-86.10175323486328, 29.45871925354004
545,137512251,0.115750894,-0.81260824,-0.17410302,-0.5440204,12.525117874145508,1.031949758529663,-1.623063087463379,51.9592399597168,-95.75934600830078, 34.76515579223633
546,137528918,0.123171754,-0.82109016,-0.17414181,-0.5294473,14.485503196716309,1.3868446350097656,-1.5557610988616943,52.015869140625,-104.25257110595703, 48.6593132019043
547,137545585,0.12836492,-0.8306575,-0.17240569,-0.5136216,14.585867881774902,1.9659788608551025,0.07730630040168762,33.56259536743164,-116.48151397705078, 52.94255447387695
548,137562252,0.13196759,-0.84099776,-0.17122191,-0.49597463,16.687885284423828,0.9687214493751526,1.392791748046875,27.9141788482666,-132.0457000732422, 46.71443176269531
549,137578919,0.13887006,-0.851125,-0.17231134,-0.47603625,18.737154006958008,0.9902421832084656,2.7527835369110107,57.64471435546875,-142.8304443359375, 46.66538619995117
550,137595586,0.15063179,-0.85981345,-0.17710747,-0.45460343,18.761707305908203,1.634849190711975,6.247864723205566,101.36660766601562,-144.75807189941406, 40.619876861572266
551,137612253,0.16523138,-0.8672576,-0.18336248,-0.43236715,14.711848258972168,2.9293322563171387,4.9674811363220215,124.97993469238281,-143.81138610839844, 40.213191986083984
552,137628920,0.18263686,-0.8757626,-0.18774022,-0.40550923,10.914795875549316,-2.2187514305114746,-6.630402565002441,140.7678985595703,-168.97206115722656, 66.38883209228516
553,137645587,0.2097459,-0.88262665,-0.19209264,-0.3742696,13.315375328063965,-2.8721725940704346,-11.14940071105957,206.87098693847656,-178.25088500976562, 97.0046615600586
554,137662254,0.2358277,-0.8878481,-0.19275881,-0.34489962,12.007421493530273,3.0217158794403076,-7.171632766723633,191.03976440429688,-158.6998748779297, 111.8812255859375
555,137678921,0.25118414,-0.8924837,-0.19221206,-0.32161167,10.006258010864258,6.4768781661987305,0.26893481612205505,115.56964111328125,-132.42144775390625, 83.26116180419922
556,137695588,0.24997418,-0.8971073,-0.19139332,-0.30996817,9.817180633544922,5.049510478973389,0.874973475933075,-2.037864923477173,-82.40470123291016, 28.241031646728516
557,137712255,0.24936181,-0.89759,-0.19359282,-0.30769002,11.674187660217285,-0.23327487707138062,2.0165469646453857,2.89762806892395,-20.275779724121094, -10.582725524902344
558,137728922,0.25792158,-0.89224553,-0.19924435,-0.3125323,5.220346927642822,4.479129791259766,3.38550066947937,67.31573486328125,42.20044708251953, -32.41301345825195
559,137745589,0.25819987,-0.8861642,-0.20399958,-0.326237,2.8794379234313965,7.164574146270752,2.31685733795166,3.7648298740386963,88.35324096679688, -61.383880615234375
560,137762256,0.24590266,-0.8816405,-0.203987,-0.34732074,4.790912628173828,4.41444730758667,1.5969865322113037,-96.64855194091797,120.62242889404297, -71.4060287475586
561,137778923,0.22772893,-0.8753205,-0.20168254,-0.3758698,6.940629959106445,1.5803680419921875,-0.3557613790035248,-145.18666076660156,165.7700653076172, -86.66446685791016
562,137795590,0.20743361,-0.86578554,-0.19760571,-0.4102916,7.28579568862915,-1.0831305980682373,-1.1083011627197266,-165.6653289794922,209.22781372070312, -95.13627624511719
563,137812257,0.18923894,-0.8518987,-0.19323455,-0.44846168,7.996312141418457,-1.9153518676757812,-1.3730874061584473,-152.89471435546875,247.06417846679688, -98.74150848388672
564,137828924,0.17368227,-0.83356565,-0.18869446,-0.4892828,9.098759651184082,-1.9702355861663818,-1.9681589603424072,-135.71896362304688,280.0050964355469, -99.00677490234375
565,137845591,0.1596479,-0.8110914,-0.18378955,-0.5318506,10.544875144958496,-1.9459401369094849,-2.9162817001342773,-125.5599136352539,306.3441162109375, -99.28810119628906
566,137862258,0.14863296,-0.7843693,-0.1795406,-0.574838,11.6763334274292,-2.255378246307373,-4.247162342071533,-102.19676208496094,327.30694580078125, -97.7662124633789
567,137878925,0.14153822,-0.75362355,-0.17666094,-0.6170979,12.95681095123291,-3.0046157836914062,-5.425610065460205,-70.63300323486328,342.7369079589844, -93.9129409790039
568,137895592,0.13979848,-0.7192806,-0.17654382,-0.65720946,14.064308166503906,-4.0386433601379395,-6.50300931930542,-25.04379653930664,350.71044921875, -87.8193130493164
569,137912259,0.14337134,-0.68225026,-0.18178445,-0.6934939,14.490478515625,-4.045795440673828,-7.22678279876709,32.68799591064453,345.2706604003906, -89.93489837646484
570,137928926,0.14799133,-0.64421785,-0.19163185,-0.7255064,14.820805549621582,-2.397433280944824,-7.900110244750977,65.90770721435547,326.8387756347656, -103.63455963134766
571,137945593,0.14895372,-0.60810226,-0.20136449,-0.7533108,15.435864448547363,-0.6008095741271973,-8.383410453796387,52.71622085571289,293.9996337890625, -114.58686828613281
572,137962260,0.14400123,-0.5774442,-0.2055452,-0.77689993,13.803735733032227,0.14391767978668213,-9.390933990478516,-0.5475472211837769,245.678466796875, -110.1450424194336
573,137978927,0.1346472,-0.55398095,-0.20252801,-0.7962149,11.698162078857422,-1.3075989484786987,-11.141312599182129,-57.58497619628906,191.2837371826172, -90.69263458251953
574,137995594,0.124283426,-0.5382538,-0.19489703,-0.8104639,9.511425018310547,-2.9893758296966553,-12.468305587768555,-86.81465148925781,132.63418579101562, -63.21684265136719
575,138012261,0.1144258,-0.5299257,-0.18674764,-0.81927466,7.494312286376953,-4.54841947555542,-12.781997680664062,-86.87596893310547,72.5505142211914, -43.96181106567383
576,138028928,0.10894501,-0.5291434,-0.18279786,-0.82141554,6.692415237426758,-5.763731479644775,-13.056983947753906,-44.64719009399414,8.217182159423828, -19.726776123046875
577,138045595,0.10887137,-0.5358324,-0.18420054,-0.8167626,6.519408702850342,-3.595708131790161,-11.658801078796387,8.197738647460938,-55.74586486816406, 5.749841213226318
578,138062262,0.111560896,-0.54838955,-0.18541498,-0.80774057,10.717674255371094,-3.0362486839294434,-4.610076427459717,18.455324172973633,-101.0124282836914, 32.61268615722656
579,138078929,0.099024616,-0.5585116,-0.17556448,-0.8046342,24.672260284423828,15.454474449157715,21.904705047607422,-106.07676696777344,-76.0162582397461, -17.90966033935547
580,138095596,0.0885759,-0.5731171,-0.15912464,-0.798981,8.21509075164795,-10.060962677001953,-11.776815414428711,-134.5318603515625,-103.74514770507812, 26.21553611755371
581,138112263,0.10390726,-0.59217024,-0.16527386,-0.78180724,15.264938354492188,-6.4778218269348145,-2.4793519973754883,101.10751342773438,-158.97897338867188, 90.60847473144531
582,138128930,0.10844258,-0.6107039,-0.16899097,-0.76597875,8.244537353515625,4.068079948425293,-1.498296856880188,42.94436264038086,-161.16287231445312, 40.814781188964844
583,138145597,0.110178165,-0.6245721,-0.17482889,-0.7531307,9.384561538696289,-0.8075762391090393,-4.571008682250977,42.343570709228516,-128.8726806640625, 9.540040016174316
584,138162264,0.1156141,-0.6384346,-0.18181261,-0.738904,12.76198959350586,-0.24206595122814178,-2.424276351928711,65.82071685791016,-131.11917114257812, 24.784610748291016
585,138178931,0.1111158,-0.65044385,-0.18200487,-0.72900665,10.22230052947998,2.945216655731201,-1.8803895711898804,-16.239824295043945,-109.66988372802734, -1.6579948663711548
586,138195598,0.103043616,-0.6598611,-0.17858449,-0.7225463,9.511408805847168,3.089200735092163,-1.180481195449829,-52.673927307128906,-82.98480987548828, -9.255773544311523
587,138212265,0.09680331,-0.6699624,-0.17450327,-0.71507245,10.123834609985352,-0.6550344228744507,-1.7408539056777954,-46.90379333496094,-88.24056243896484, 4.436346054077148
588,138228932,0.097873695,-0.6779223,-0.17693728,-0.7067783,10.591575622558594,-2.230910301208496,-1.742302656173706,21.2123966217041,-77.02877044677734, 8.328816413879395
589,138245599,0.10097123,-0.6854585,-0.18098505,-0.69799435,9.996932029724121,1.2814593315124512,-0.1333080679178238,39.38679885864258,-75.85208892822266, 10.42455768585205
590,138262266,0.101481274,-0.69284934,-0.18291673,-0.6900748,10.240371704101562,1.9041060209274292,-1.5342381000518799,16.057823181152344,-72.83382415771484, 7.194794178009033
591,138278933,0.09757585,-0.699818,-0.1812028,-0.68403184,10.14604377746582,2.9376487731933594,-1.4704046249389648,-24.34803581237793,-64.88707733154297, 1.7828083038330078
592,138295600,0.08847548,-0.7063192,-0.17406376,-0.680432,9.825976371765137,2.7009968757629395,-1.3800126314163208,-77.60015869140625,-53.752098083496094, 1.2700903415679932
593,138312267,0.08060729,-0.71236455,-0.16804142,-0.67661023,10.000533103942871,-0.8885807394981384,-1.7519750595092773,-65.85685729980469,-51.888877868652344, 1.2421633005142212
594,138328934,0.079903625,-0.7172485,-0.16869237,-0.6713518,10.097297668457031,-1.474182367324829,-2.1832973957061768,2.581775426864624,-48.929351806640625, 1.326653003692627
595,138345601,0.084965,-0.72138816,-0.17388465,-0.6649396,9.142960548400879,0.6560719609260559,-1.5787773132324219,53.721988677978516,-46.97941970825195, 5.273103713989258
596,138362268,0.090409905,-0.725581,-0.1788003,-0.6583229,9.507782936096191,2.2666075229644775,-1.121044397354126,54.571380615234375,-47.6142692565918, 8.562838554382324
597,138378935,0.09312862,-0.730432,-0.18090656,-0.6519735,9.628572463989258,2.0150954723358154,-1.1672056913375854,27.51329803466797,-50.869625091552734, 10.886855125427246
598,138395602,0.094130434,-0.735774,-0.18149284,-0.64562905,9.705911636352539,1.4960389137268066,-1.5320669412612915,11.75489616394043,-54.21249771118164, 11.440587043762207
599,138412269,0.09425812,-0.7412735,-0.18101561,-0.63942367,9.780562400817871,1.1190129518508911,-2.003139019012451,2.3353724479675293,-54.6121711730957, 13.05392074584961
600,138428936,0.09365502,-0.74674,-0.17959973,-0.63352394,9.749289512634277,0.9219993352890015,-2.1231460571289062,-5.875346660614014,-53.20661163330078, 14.39055347442627
601,138445603,0.09281864,-0.7521707,-0.17798829,-0.6276499,9.819293022155762,0.7075172662734985,-2.31540846824646,-7.933633804321289,-53.076690673828125, 14.321836471557617
602,138462270,0.09260461,-0.7575955,-0.17693317,-0.6214246,9.897306442260742,0.6466939449310303,-2.315762758255005,-1.880543828010559,-54.458961486816406, 14.348939895629883
603,138478937,0.093139775,-0.76298296,-0.17645448,-0.6148548,9.970096588134766,0.5342414975166321,-2.550776481628418,4.92899751663208,-55.553916931152344, 14.721487998962402
604,138495604,0.0946287,-0.76845944,-0.17677891,-0.6076718,10.114324569702148,0.3867970108985901,-2.6731956005096436,14.015873908996582,-58.5107421875, 15.038358688354492
605,138512271,0.097297296,-0.77391684,-0.1779757,-0.59992576,10.28258991241455,0.7919177412986755,-2.546617031097412,24.590354919433594,-60.5506591796875, 15.69589614868164
606,138528938,0.100503765,-0.7795417,-0.17929065,-0.59166646,10.289536476135254,1.3058522939682007,-2.267106533050537,28.458641052246094,-63.4122428894043, 17.833147048950195
607,138545605,0.103250325,-0.7857923,-0.18004623,-0.5826262,10.538900375366211,1.1458686590194702,-2.0057754516601562,24.25292205810547,-70.35150909423828, 20.279706954956055
608,138562272,0.10598816,-0.79263806,-0.18043709,-0.5726553,10.79016399383545,0.41397783160209656,-2.2808279991149902,23.47821807861328,-77.5518569946289, 23.62190818786621
609,138578939,0.11011176,-0.7996341,-0.18106703,-0.5618503,10.545966148376465,-0.5077352523803711,-3.1779510974884033,32.90324401855469,-81.181884765625, 28.5684871673584
610,138595606,0.1149019,-0.80685115,-0.18177593,-0.55022436,11.190192222595215,0.339482843875885,-1.9337571859359741,37.73091506958008,-85.80915069580078, 31.593780517578125
611,138612273,0.119061336,-0.8149112,-0.18172432,-0.5373275,11.972902297973633,1.5235745906829834,-1.3986366987228394,32.284080505371094,-96.28981018066406, 35.48680114746094
612,138628940,0.12285585,-0.8241635,-0.18071212,-0.5224985,13.80028247833252,1.0072311162948608,-0.9691998958587646,28.138179779052734,-111.2584457397461, 42.615089416503906
613,138645607,0.12790132,-0.8342133,-0.178723,-0.5057546,15.395270347595215,2.167437791824341,0.6536992788314819,33.43365478515625,-122.68196105957031, 55.27154541015625
614,138662274,0.13152978,-0.8452681,-0.17756021,-0.48651266,16.833955764770508,1.3584643602371216,1.7142540216445923,30.380264282226562,-143.09327697753906, 49.07307052612305
615,138678941,0.13855907,-0.85592365,-0.1791601,-0.4648634,19.184791564941406,0.6394083499908447,3.948429584503174,62.69966125488281,-154.24224853515625, 46.112396240234375
616,138695608,0.15090841,-0.86505765,-0.18421926,-0.44154912,19.340862274169922,2.0378530025482178,6.268013954162598,108.57920837402344,-156.11195373535156, 42.49554443359375
617,138712275,0.16773702,-0.8729898,-0.18952146,-0.4169353,13.65938949584961,2.190141201019287,2.7053351402282715,138.869384765625,-154.99119567871094, 54.52867126464844
618,138728942,0.18862662,-0.8811881,-0.19405647,-0.3876469,11.708905220031738,-2.53067684173584,-8.475502014160156,166.85447692871094,-177.77951049804688, 76.5784683227539
619,138745609,0.21640408,-0.887614,-0.19689772,-0.35572833,14.554924011230469,-1.3209707736968994,-12.130538940429688,209.89883422851562,-177.61868286132812, 106.26766204833984
620,138762276,0.2405101,-0.8925165,-0.19616355,-0.32724497,11.585108757019043,4.400076866149902,-5.366117477416992,176.3514862060547,-152.5535430908203, 111.97322082519531
621,138778943,0.25099832,-0.89683545,-0.19544081,-0.30739078,10.1605224609375,7.292184352874756,1.978481650352478,82.1465835571289,-116.68131256103516, 66.28272247314453
622,138795610,0.24766868,-0.90028656,-0.19657654,-0.29916957,11.098477363586426,1.20684814453125,-0.9232394695281982,-13.226461410522461,-64.96968841552734, 4.483847618103027
623,138812277,0.25659966,-0.89723194,-0.20108971,-0.2978166,8.713321685791016,0.1793575882911682,1.725883960723877,71.42076110839844,1.6718549728393555, -11.640263557434082
624,138828944,0.26583347,-0.8903023,-0.2089855,-0.30499178,3.089733839035034,8.11048412322998,3.0181217193603516,75.2587890625,56.60059356689453, -52.257198333740234
625,138845611,0.2605321,-0.88516045,-0.21278988,-0.3214577,2.3165462017059326,6.345783710479736,0.771097719669342,-38.87735366821289,96.29448699951172, -72.02516174316406
626,138862278,0.24580072,-0.8807884,-0.21304017,-0.34410504,5.025289535522461,2.669895648956299,0.1718488484621048,-114.5296630859375,124.78339385986328, -81.14045715332031
627,138878945,0.22622778,-0.8740333,-0.21093294,-0.37469223,6.767183780670166,0.6031944751739502,-1.7022918462753296,-157.04942321777344,175.38328552246094, -95.22473907470703
628,138895612,0.20523253,-0.8638343,-0.20769097,-0.41052967,6.996316432952881,-0.39957287907600403,-1.2971596717834473,-170.8030548095703,215.49935913085938, -105.24881744384766
629,138912279,0.18396106,-0.8497867,-0.20330617,-0.45020872,7.995565414428711,-0.5707701444625854,-1.6779804229736328,-175.75405883789062,250.3874969482422, -110.19097900390625
630,138928946,0.16272947,-0.83230376,-0.19727238,-0.49180654,9.401803016662598,-0.9627380967140198,-2.5071773529052734,-178.988525390625,274.36175537109375, -107.69672393798828
631,138945613,0.14470027,-0.81039727,-0.19061099,-0.53477675,11.230746269226074,-1.9244906902313232,-4.715653896331787,-159.71051025390625,302.2159118652344, -100.85077667236328
632,138962280,0.13290825,-0.78440714,-0.18533772,-0.57679397,11.738022804260254,-2.6844818592071533,-5.977400779724121,-114.53966522216797,318.722900390625, -90.09616088867188
633,138978947,0.12814933,-0.7549084,-0.18292707,-0.61662716,12.370580673217773,-3.126176118850708,-6.248724460601807,-59.25685119628906,327.2374267578125, -80.16455841064453
634,138995614,0.12962733,-0.7222547,-0.18469618,-0.65378344,13.317577362060547,-3.6143438816070557,-5.853996276855469,-3.011486291885376,330.9347229003906, -77.07313537597656
635,139012281,0.13536756,-0.6864829,-0.19150105,-0.6882911,14.006156921386719,-2.637798547744751,-5.683194637298584,46.94549560546875,332.79254150390625, -84.57319641113281
636,139028948,0.14067459,-0.64924705,-0.20170781,-0.7197244,14.881190299987793,-1.2633559703826904,-6.118433475494385,66.42184448242188,321.54278564453125, -101.78971099853516
637,139045615,0.14157678,-0.61325926,-0.21102741,-0.7478882,14.846336364746094,0.1296856701374054,-7.255889892578125,45.67470932006836,295.58502197265625, -114.76018524169922
638,139062282,0.13665028,-0.58165705,-0.21519163,-0.77246016,13.632573127746582,0.047857217490673065,-8.339473724365234,-4.500012397766113,254.5254669189453, -113.14765930175781
639,139078949,0.12612185,-0.5561169,-0.21156569,-0.79376805,12.618966102600098,-1.3465890884399414,-9.894380569458008,-69.1742172241211,208.40707397460938, -99.72982788085938
640,139095616,0.114893556,-0.53792053,-0.20384905,-0.80986845,10.200357437133789,-3.359088182449341,-12.059895515441895,-92.98738098144531,151.06642150878906, -72.7447509765625
641,139112283,0.103919305,-0.52783215,-0.19470695,-0.82017297,7.180648326873779,-4.64348840713501,-12.769100189208984,-98.27659606933594,86.11253356933594, -50.164310455322266
642,139128950,0.095713735,-0.5261375,-0.18599537,-0.82427204,6.8335862159729,-6.420497894287109,-13.511024475097656,-83.49439239501953,19.80714225769043, -20.492921829223633
643,139145617,0.09299568,-0.53243405,-0.18156858,-0.82152224,6.456171989440918,-5.291712284088135,-13.00841999053955,-35.85503387451172,-45.90276336669922, 9.769463539123535
644,139162284,0.093740195,-0.54414505,-0.18017724,-0.81403655,9.228035926818848,-2.6679368019104004,-8.65324592590332,-3.5824480056762695,-91.30001068115234, 27.94856834411621
645,139178951,0.08303517,-0.55319464,-0.17511153,-0.81019574,25.077354431152344,15.224282264709473,23.328624725341797,-69.7922134399414,-74.47764587402344, -28.06309700012207
646,139195618,0.07296782,-0.5637734,-0.15994866,-0.8070019,9.564580917358398,-6.581817626953125,-12.371418952941895,-125.29539489746094,-74.17462158203125, 15.486026763916016
647,139212285,0.09145509,-0.58291394,-0.16917613,-0.78944737,16.004362106323242,-8.527803421020508,-2.892989158630371,132.25975036621094,-158.0575714111328, 95.93836975097656
648,139228952,0.10088302,-0.6009033,-0.17551386,-0.7732615,8.867777824401855,3.0747182369232178,-0.5765498280525208,79.44319152832031,-154.9799041748047, 56.01435089111328
649,139245619,0.10640513,-0.61209565,-0.18351886,-0.7617992,8.315980911254883,-0.3846784234046936,-4.969064235687256,71.16053771972656,-105.18910217285156, 16.883258819580078
650,139262286,0.11738202,-0.6248503,-0.19684991,-0.74634707,13.744709968566895,-0.6358444094657898,-1.6692256927490234,125.90288543701172,-127.14764404296875, 27.899656295776367
651,139278953,0.117590874,-0.6356093,-0.19964013,-0.73642206,10.287362098693848,2.833324670791626,-1.226586103439331,19.66701316833496,-99.20661163330078, 10.729109764099121
652,139295620,0.11198832,-0.6448693,-0.19826624,-0.72958416,9.880703926086426,1.9670015573501587,-0.7119160890579224,-29.85999870300293,-82.73191833496094, -5.0269622802734375
653,139312287,0.10774325,-0.6538274,-0.19671407,-0.72263765,9.77231502532959,1.183825969696045,-1.1466796398162842,-24.367280960083008,-79.7138671875, 2.2672600746154785
654,139328954,0.106938176,-0.66194314,-0.19646697,-0.7153997,10.322164535522461,-0.06991253048181534,-1.1377230882644653,-1.4084055423736572,-73.15445709228516, 12.578990936279297
655,139345621,0.10893062,-0.66947836,-0.19842629,-0.7075028,10.026247024536133,1.1503429412841797,-0.35796672105789185,23.49424171447754,-71.14427185058594, 15.988462448120117
656,139362288,0.108269624,-0.6767096,-0.19866611,-0.70062417,10.058465957641602,3.299724578857422,-0.8197636604309082,1.7528784275054932,-67.32621765136719, 9.822944641113281
657,139378955,0.10377127,-0.68377006,-0.1950668,-0.6954419,10.240700721740723,2.834291934967041,-1.2477216720581055,-36.79350280761719,-61.00511169433594, 7.737462043762207
658,139395622,0.096451625,-0.69024324,-0.188208,-0.6919823,9.784372329711914,1.8300347328186035,-0.985832154750824,-67.54064178466797,-51.56071090698242, 7.590268135070801
659,139412289,0.09118995,-0.69588757,-0.18380155,-0.6882166,9.519618034362793,-0.5880918502807617,-1.228005290031433,-45.16448974609375,-48.04026794433594, 4.8994460105896
660,139428956,0.092399314,-0.7006978,-0.18559495,-0.6826712,9.882964134216309,-0.5983371734619141,-1.57395339012146,17.909523010253906,-48.325279235839844, 5.907708168029785
661,139445623,0.09746215,-0.70502955,-0.19033335,-0.6761715,9.248851776123047,1.1082464456558228,-0.9404987692832947,51.82142639160156,-47.63922882080078, 9.781452178955078
662,139462290,0.10148415,-0.70990264,-0.19385834,-0.6694464,9.438310623168945,2.076232433319092,-0.5942276120185852,41.06803512573242,-51.81414794921875, 11.679813385009766
663,139478957,0.10271183,-0.71561706,-0.19465812,-0.66291124,9.685940742492676,1.7088584899902344,-0.6835628747940063,14.044316291809082,-56.603416442871094, 13.120302200317383
664,139495624,0.10215425,-0.7220089,-0.1938177,-0.65627944,9.61787223815918,1.5040053129196167,-1.133347511291504,-2.563777208328247,-61.41555404663086, 14.039778709411621
665,139512291,0.10052838,-0.72866267,-0.19173892,-0.6497548,9.65997314453125,1.5180277824401855,-1.649649739265442,-13.781011581420898,-62.63458251953125, 15.65382194519043
666,139528958,0.098093264,-0.73544276,-0.18868032,-0.643352,9.566981315612793,1.283105492591858,-1.7410484552383423,-22.46102523803711,-62.98707580566406, 17.044723510742188
667,139545625,0.095957525,-0.74209124,-0.18577349,-0.6368528,9.683344841003418,0.9980999827384949,-2.2421064376831055,-20.060012817382812,-62.61513900756836, 17.508338928222656
668,139562292,0.09472237,-0.7485019,-0.18354478,-0.6301461,9.764079093933105,0.5990222692489624,-2.5017428398132324,-12.073662757873535,-61.93577194213867, 17.834156036376953
669,139578959,0.09455266,-0.7546275,-0.18223928,-0.6232065,9.793144226074219,0.508162260055542,-2.4151155948638916,-2.110823631286621,-61.160484313964844, 17.493486404418945
670,139595626,0.0947971,-0.7607696,-0.18126789,-0.6159427,9.884719848632812,0.7150760889053345,-2.3919777870178223,1.8665344715118408,-62.62027359008789, 17.767148971557617
671,139612293,0.09564301,-0.7671856,-0.18033701,-0.60807693,10.240433692932129,0.21767668426036835,-2.746000051498413,5.758159160614014,-66.21600341796875, 20.8387508392334
672,139628960,0.09729464,-0.77359426,-0.17982225,-0.59979165,10.313325881958008,0.7888065576553345,-2.41530704498291,12.275106430053711,-67.6811752319336, 22.27497673034668
673,139645627,0.098979495,-0.78021955,-0.17944059,-0.590984,10.534161567687988,1.2993628978729248,-2.340682029724121,13.504179954528809,-71.41644287109375, 22.32421875
674,139662294,0.10108103,-0.78716415,-0.17897817,-0.58148307,10.56748104095459,0.6775435209274292,-2.5792386531829834,16.05201530456543,-75.8828353881836, 25.32565689086914
675,139678961,0.10430419,-0.79420155,-0.17862052,-0.5713665,10.633292198181152,-0.17363770306110382,-3.0012025833129883,23.23796272277832,-78.29621124267578, 29.78683090209961
676,139695628,0.10881685,-0.8012407,-0.17863704,-0.5605905,11.051783561706543,0.053287796676158905,-2.6459014415740967,32.56169509887695,-80.60547637939453, 33.276004791259766
677,139712295,0.11297207,-0.80864143,-0.17814423,-0.54918236,11.840082168579102,1.3068331480026245,-1.9548968076705933,29.139240264892578,-85.56484985351562, 35.617225646972656
678,139728962,0.11675442,-0.8168495,-0.1769287,-0.53649044,12.343460083007812,0.6503501534461975,-1.9694156646728516,25.28874969482422,-95.6855239868164, 40.22599792480469
679,139745629,0.121806115,-0.82564676,-0.17484221,-0.52239954,14.355033874511719,1.2181776762008667,-1.0736899375915527,30.44132423400879,-103.51641082763672, 51.6461067199707
680,139762296,0.1259591,-0.8354672,-0.17216139,-0.50644815,14.63686752319336,2.16951060295105,0.6543357372283936,24.592796325683594,-118.4040756225586, 54.597206115722656
681,139778963,0.1295804,-0.84606534,-0.17072865,-0.4880928,17.185989379882812,1.10305917263031,2.0821661949157715,28.068527221679688,-136.7244110107422, 48.609344482421875
682,139795630,0.13729188,-0.8562542,-0.17217395,-0.4672649,18.863449096679688,0.8139413595199585,4.225176811218262,64.7977523803711,-147.62615966796875, 47.338523864746094
683,139812297,0.14926796,-0.86519307,-0.17570925,-0.4452939,17.607608795166016,1.7577978372573853,6.1297502517700195,99.16434478759766,-147.43093872070312, 48.35724639892578
684,139828964,0.16507362,-0.87369835,-0.17878486,-0.42123425,12.992884635925293,0.6135352849960327,1.0243831872940063,123.51969909667969,-153.61634826660156, 64.4828872680664
685,139845631,0.18486887,-0.88248694,-0.18072492,-0.3929113,12.51855754852295,-2.5721349716186523,-6.857254981994629,149.12901306152344,-173.96665954589844, 88.09001922607422
686,139862298,0.20977552,-0.8890082,-0.18154818,-0.3642793,13.94025993347168,0.4179820716381073,-8.594291687011719,180.39523315429688,-161.9728546142578, 106.2689208984375
687,139878965,0.23023236,-0.8940592,-0.17897584,-0.34002808,11.50398063659668,3.036367177963257,-5.701051235198975,141.3358917236328,-132.17491149902344, 107.77896881103516
688,139895632,0.24342391,-0.89809906,-0.17671826,-0.32083318,9.712699890136719,5.350131988525391,0.35162585973739624,92.80038452148438,-108.18578338623047, 79.6855697631836
689,139912299,0.2432184,-0.9020622,-0.17583933,-0.3101769,10.520400047302246,2.1481761932373047,-1.563033938407898,2.8934595584869385,-73.94022369384766, 27.3280086517334
