PacketCounter,SampleTimeFine,Quat_W,Quat_X,Quat_Y,Quat_Z,Acc_X,Acc_Y,Acc_Z,Gyr_X,Gyr_Y,Gyr_Z 
2,108372120,0.67836034,0.0557596,-0.7325923,0.0052027525,9.777385711669922,0.5563532114028931,-0.7121997475624084,-3.703007698059082,-2.0525505542755127, -1.5352509021759033
3,108388787,0.6785454,0.054704934,-0.7324977,0.0055427216,9.767654418945312,0.5581644177436829,-0.7389110326766968,-5.525171756744385,-0.5255342125892639, -1.8744912147521973
4,108405454,0.6787099,0.05411118,-0.73238665,0.0058771055,9.784646034240723,0.5953410267829895,-0.757211446762085,-4.327944278717041,-0.7995644211769104, -2.1398513317108154
5,108422121,0.67867786,0.054398622,-0.7323899,0.0064913644,9.831969261169434,0.6055038571357727,-0.7541287541389465,-2.6890134811401367,-1.7901870012283325, -2.255403518676758
6,108438788,0.67850393,0.05490655,-0.73250866,0.0069790143,9.812135696411133,0.6852347254753113,-0.7440193295478821,-1.239437222480774,-2.752366781234741, -2.4299027919769287
7,108455455,0.67824215,0.05561165,-0.7326947,0.007315506,9.800281524658203,0.716660737991333,-0.7667645215988159,-0.7878978848457336,-3.5186469554901123, -2.2545065879821777
8,108472122,0.67790645,0.05625789,-0.7329552,0.0073764743,9.771528244018555,0.6829345226287842,-0.7614548802375793,-0.23426660895347595,-3.94366455078125, -2.247873306274414
9,108488789,0.67755246,0.056858964,-0.73323715,0.0072768354,9.790216445922852,0.6763806939125061,-0.7666813135147095,0.35379457473754883,-4.0166730880737305, -2.664220094680786
10,108505456,0.6773581,0.057656404,-0.7333546,0.007278376,9.803841590881348,0.673280656337738,-0.7387405037879944,0.14208006858825684,-2.491591215133667, -3.1315245628356934
11,108522123,0.6771678,0.05834625,-0.73347706,0.007153292,9.803715705871582,0.7047518491744995,-0.7319561243057251,0.43310433626174927,-2.5879712104797363, -3.3844363689422607
12,108538790,0.6769757,0.05916389,-0.73358935,0.0070908284,9.813801765441895,0.6823890209197998,-0.703189492225647,0.21898221969604492,-2.721336841583252, -3.6220202445983887
13,108555457,0.6767452,0.060023464,-0.733733,0.0070179524,9.846577644348145,0.6826189160346985,-0.7113576531410217,0.05386991426348686,-3.2627127170562744, -3.9573421478271484
14,108572124,0.67648596,0.060750954,-0.7339141,0.0068093077,9.810380935668945,0.6924974322319031,-0.7498176693916321,0.2186492383480072,-3.6140801906585693, -4.150986671447754
15,108588791,0.6762292,0.061371453,-0.734102,0.00649085,9.768643379211426,0.6799888610839844,-0.7922388911247253,0.5675838589668274,-3.514357566833496, -4.322681427001953
16,108605458,0.6760115,0.06228699,-0.7342261,0.0063996715,9.811365127563477,0.7276310920715332,-0.7407296895980835,0.9983638525009155,-2.946190357208252, -4.713748455047607
17,108622125,0.6758654,0.06317416,-0.73428655,0.0062077995,9.81893539428711,0.7427712082862854,-0.6935374140739441,0.6235604286193848,-2.321932077407837, -5.104047775268555
18,108638792,0.67569554,0.06424646,-0.7343506,0.0060894387,9.864367485046387,0.7540605068206787,-0.6953122615814209,-0.015457263216376305,-2.6737611293792725, -5.535403728485107
19,108655459,0.67553836,0.064885505,-0.73444325,0.005578641,9.838617324829102,0.7642101049423218,-0.725824236869812,-0.0836382657289505,-2.6556143760681152, -5.517487525939941
20,108672126,0.67535913,0.06581222,-0.73452723,0.005332373,9.839798927307129,0.7999619245529175,-0.7138955593109131,0.24829591810703278,-2.8040528297424316, -5.554741382598877
21,108688793,0.6751442,0.06675588,-0.73464173,0.00507101,9.824067115783691,0.7738921642303467,-0.7114047408103943,0.654308557510376,-3.1135060787200928, -5.714975357055664
22,108705460,0.6749272,0.06771654,-0.73475534,0.004737094,9.882875442504883,0.7769405841827393,-0.7025233507156372,0.6732620596885681,-3.135277032852173, -6.200273036956787
23,108722127,0.6748178,0.068452805,-0.73479116,0.004194228,9.931947708129883,0.8382567763328552,-0.5867976546287537,-1.1439144611358643,-2.311610221862793, -6.151914596557617
24,108738794,0.67620087,0.0680041,-0.7335677,0.002523026,10.958288192749023,0.8764708042144775,0.04933066666126251,-14.909043312072754,10.279752731323242, -5.872141361236572
25,108755461,0.6806778,0.0662987,-0.7295769,-0.00012737297,10.265091896057129,0.9766624569892883,-0.29202425479888916,-24.709903717041016,37.81365203857422, -5.71957540512085
26,108772128,0.68541753,0.06411342,-0.72531766,-0.0026305076,9.519558906555176,0.84660804271698,-0.7870491743087769,-31.724395751953125,39.79768753051758, -2.3477835655212402
27,108788795,0.68846416,0.06270849,-0.7225411,-0.0044051786,9.370743751525879,0.7399265170097351,-0.7314899563789368,-20.318517684936523,25.385374069213867, -2.4602115154266357
28,108805462,0.69012684,0.06304173,-0.7209221,-0.004728064,9.351693153381348,0.7050780653953552,-0.6064921617507935,-10.779997825622559,13.448222160339355, -3.538512706756592
29,108822129,0.6909453,0.06351864,-0.7200927,-0.005143551,9.530130386352539,0.9794265031814575,-0.45279863476753235,-5.3511223793029785,6.181595325469971, -4.718104839324951
30,108838796,0.6913459,0.06400242,-0.71966296,-0.005490854,9.707300186157227,1.075148582458496,-0.343757301568985,-4.371550559997559,2.4133379459381104, -4.219001770019531
31,108855463,0.69153404,0.0643587,-0.71944654,-0.005946033,9.763962745666504,1.0586001873016357,-0.281728595495224,-4.866323947906494,0.4032784402370453, -3.94228196144104
32,108872130,0.6916252,0.06471915,-0.71932286,-0.006390633,9.722607612609863,0.9592450857162476,-0.2443276345729828,-5.0562424659729,-0.5249707698822021, -3.7969422340393066
33,108888797,0.691609,0.06522549,-0.71928906,-0.0067592133,9.67945384979248,0.9823318123817444,-0.28289979696273804,-3.7268142700195312,-1.4197503328323364, -4.12638521194458
34,108905464,0.6914881,0.06580391,-0.7193493,-0.0071234293,9.756208419799805,1.0068987607955933,-0.27286088466644287,-3.2184536457061768,-2.34828782081604, -4.416487693786621
35,108922131,0.6912293,0.06642203,-0.71953833,-0.0074258912,9.753105163574219,1.0260943174362183,-0.23073291778564453,-2.6008799076080322,-3.5936665534973145, -4.256138801574707
36,108938798,0.69086254,0.06705817,-0.71982867,-0.0076671494,9.773981094360352,1.0954962968826294,-0.2127646803855896,-1.8903199434280396,-4.557870864868164, -4.009105205535889
37,108955465,0.69053316,0.06749104,-0.7201006,-0.008000726,9.858002662658691,1.1473851203918457,-0.13725538551807404,-3.7479326725006104,-4.39715051651001, -3.3931453227996826
38,108972132,0.6903412,0.067592785,-0.72026896,-0.008543237,9.858415603637695,1.1885597705841064,-0.1484442800283432,-6.151735782623291,-3.3542654514312744, -2.7571308612823486
39,108988799,0.6902362,0.06760108,-0.72036254,-0.009057992,9.805941581726074,1.1951138973236084,-0.1809011548757553,-6.663235664367676,-2.6122653484344482, -2.1394808292388916
40,109005466,0.69014025,0.067556635,-0.7204516,-0.009594555,9.778963088989258,1.1608099937438965,-0.1697988659143448,-6.639362335205078,-2.5361056327819824, -1.9616382122039795
41,109022133,0.6900136,0.067716636,-0.72055304,-0.009954367,9.788212776184082,1.1212444305419922,-0.1375696063041687,-4.835768222808838,-2.676309823989868, -2.106055736541748
42,109038800,0.68987846,0.06798715,-0.72065294,-0.010239324,9.808553695678711,1.1284356117248535,-0.17861324548721313,-4.008131504058838,-2.702268123626709, -2.2893145084381104
43,109055467,0.68970054,0.06831735,-0.72078854,-0.01048763,9.781244277954102,1.1624021530151367,-0.16950635612010956,-3.553877353668213,-3.0774428844451904, -2.3899595737457275
44,109072134,0.68949497,0.06873834,-0.72094274,-0.0106456475,9.755934715270996,1.1797047853469849,-0.16659806668758392,-2.780488967895508,-3.280013084411621, -2.3856563568115234
45,109088801,0.6892097,0.06919174,-0.721169,-0.010865458,9.746356964111328,1.1538220643997192,-0.16953407227993011,-2.2328386306762695,-3.9834158420562744, -2.82757830619812
46,109105468,0.68892854,0.06970758,-0.7213857,-0.010996833,9.804413795471191,1.108389973640442,-0.16239343583583832,-1.592764139175415,-3.892131805419922, -2.7112836837768555
47,109122135,0.68867105,0.07038951,-0.72156626,-0.010958462,9.802437782287598,1.1345312595367432,-0.1855587661266327,-0.16987623274326324,-3.545412063598633, -2.7448744773864746
48,109138802,0.6884008,0.07108516,-0.7217577,-0.010816481,9.754115104675293,1.1104483604431152,-0.2070271223783493,0.7065199613571167,-3.5837929248809814, -2.335775852203369
49,109155469,0.6881132,0.07182781,-0.72196203,-0.010580042,9.778627395629883,1.132848858833313,-0.19167953729629517,0.7889031171798706,-3.7555384635925293, -2.09208345413208
50,109172136,0.6877951,0.072515815,-0.72219986,-0.010346181,9.746265411376953,1.1349374055862427,-0.18829719722270966,1.1437033414840698,-4.007760524749756, -1.8546414375305176
51,109188803,0.68739474,0.07322225,-0.72251326,-0.01007691,9.764616966247559,1.144136667251587,-0.19003024697303772,1.3097760677337646,-4.779612064361572, -1.7417020797729492
52,109205470,0.6868668,0.073870234,-0.72295254,-0.009848469,9.73844051361084,1.1525052785873413,-0.1824847012758255,1.472980260848999,-5.975892066955566, -1.6222574710845947
53,109222137,0.6862061,0.07458143,-0.72351056,-0.009558156,9.714668273925781,1.2135677337646484,-0.1996338665485382,1.788400650024414,-7.215316295623779, -1.570443034172058
54,109238804,0.6854179,0.07529085,-0.7241881,-0.009239014,9.733652114868164,1.2252517938613892,-0.24773645401000977,2.0808591842651367,-8.3982515335083, -1.3633002042770386
55,109255471,0.68444633,0.0761451,-0.7250226,-0.008810185,9.72228717803955,1.2318599224090576,-0.27108821272850037,3.4261415004730225,-9.98734188079834, -1.4824762344360352
56,109272138,0.6832125,0.077300206,-0.72607076,-0.0081588,9.683701515197754,1.2337087392807007,-0.3237726092338562,6.023950576782227,-12.178373336791992, -1.8152371644973755
57,109288805,0.6815572,0.07898424,-0.72745425,-0.0071891476,9.64029312133789,1.2400453090667725,-0.39866161346435547,10.500547409057617,-15.638545036315918, -2.7943875789642334
58,109305472,0.6794616,0.08127538,-0.72917277,-0.0058050854,9.702605247497559,1.2812941074371338,-0.43201687932014465,15.606832504272461,-19.15780258178711, -3.6961770057678223
59,109322139,0.677078,0.08378985,-0.73111343,-0.004233467,9.78477954864502,1.3324347734451294,-0.4670073688030243,18.125242233276367,-21.4793701171875, -3.8208112716674805
60,109338806,0.67463684,0.086331554,-0.73307985,-0.002482943,9.815958023071289,1.2829874753952026,-0.4504268765449524,19.195463180541992,-21.785831451416016, -3.0734565258026123
61,109355473,0.67234284,0.088794336,-0.7348949,-0.00061745796,9.815804481506348,1.257649302482605,-0.4144514203071594,19.441545486450195,-20.274234771728516, -2.212366819381714
62,109372140,0.67021954,0.09099642,-0.73656267,0.0010174209,9.801308631896973,1.2672874927520752,-0.4600692689418793,17.51445770263672,-18.83307456970215, -2.0829575061798096
63,109388807,0.6682995,0.092749335,-0.7380841,0.0022924761,9.851215362548828,1.3075001239776611,-0.5505995750427246,14.23250961303711,-17.28883171081543, -1.6192504167556763
64,109405474,0.6666275,0.09394285,-0.7394399,0.0033359646,9.8909330368042,1.2972713708877563,-0.6198890805244446,10.993603706359863,-15.347596168518066, -0.011538534425199032
65,109422141,0.66520506,0.0947881,-0.7406074,0.004271851,9.855608940124512,1.264849066734314,-0.6699811816215515,8.777691841125488,-13.285384178161621, 1.1374675035476685
66,109438808,0.6640128,0.095229946,-0.74161583,0.0049740323,9.80671215057373,1.2754119634628296,-0.6832706332206726,6.20898962020874,-11.46723461151123, 1.9433070421218872
67,109455475,0.66295606,0.09551994,-0.7425185,0.0056552812,9.779573440551758,1.2317426204681396,-0.7217201590538025,5.0425214767456055,-10.352555274963379, 2.585852861404419
68,109472142,0.6620541,0.09566981,-0.7432982,0.006296478,9.76660442352295,1.1925452947616577,-0.7532867789268494,4.4615349769592285,-8.99376106262207, 2.986691474914551
69,109488809,0.66126174,0.09570355,-0.74399394,0.006865166,9.744726181030273,1.198036551475525,-0.7767354846000671,4.048004627227783,-8.043106079101562, 3.115330696105957
70,109505476,0.6605267,0.09560378,-0.7446549,0.0073352433,9.747307777404785,1.2199599742889404,-0.8141589760780334,3.0534377098083496,-7.645148754119873, 3.300549268722534
71,109522143,0.6599045,0.09541898,-0.7452256,0.00777153,9.762755393981934,1.1876614093780518,-0.7698707580566406,2.353327512741089,-6.695199489593506, 3.5262227058410645
72,109538810,0.6593417,0.09517981,-0.74575114,0.00806155,9.754229545593262,1.1697044372558594,-0.7946834564208984,0.9553793668746948,-6.339412212371826, 3.153205394744873
73,109555477,0.65878516,0.09489385,-0.74627626,0.00830505,9.780006408691406,1.1597400903701782,-0.8303664326667786,0.3626822829246521,-6.364962100982666, 3.1954987049102783
74,109572144,0.6582869,0.094445735,-0.74677086,0.008468656,9.75418472290039,1.1572223901748657,-0.8393247127532959,0.0641150027513504,-5.88482666015625, 3.5201778411865234
75,109588811,0.65784913,0.09400071,-0.7472104,0.008683334,9.748659133911133,1.119297742843628,-0.8625192642211914,-0.1278330236673355,-5.354925155639648, 3.7509357929229736
76,109605478,0.65741444,0.0935765,-0.74764276,0.00894127,9.72693920135498,1.1276190280914307,-0.8307556509971619,0.4976996183395386,-5.2582879066467285, 3.785806894302368
77,109622145,0.6570419,0.09318192,-0.74801576,0.009254906,9.74715518951416,1.1225208044052124,-0.8611151576042175,0.6992330551147461,-4.675188064575195, 3.865346670150757
78,109638812,0.65673286,0.09285012,-0.7483231,0.009674822,9.758472442626953,1.1423754692077637,-0.8628095984458923,1.1037472486495972,-4.045411109924316, 4.028602600097656
79,109655479,0.6564178,0.092454866,-0.7486431,0.010077091,9.744830131530762,1.1311545372009277,-0.8520146012306213,0.9450638294219971,-4.13330078125, 4.252291202545166
80,109672146,0.6561072,0.09196221,-0.7489712,0.010429231,9.771918296813965,1.106683373451233,-0.8452064394950867,0.5717330574989319,-4.1548919677734375, 4.48819637298584
81,109688813,0.65579623,0.09148649,-0.7492967,0.01077848,9.743987083435059,1.1226426362991333,-0.8365281820297241,0.43219509720802307,-4.188406467437744, 4.414841651916504
82,109705480,0.65548736,0.09101674,-0.7496193,0.011106224,9.750215530395508,1.0327867269515991,-0.888139009475708,0.07922647893428802,-4.227067947387695, 4.325428009033203
83,109722147,0.6551984,0.090491876,-0.74993044,0.011436692,9.764679908752441,1.0010004043579102,-0.9063959717750549,0.6707774996757507,-3.996145248413086, 4.4845991134643555
84,109738814,0.65493876,0.09011639,-0.7501942,0.011963249,9.77421760559082,1.0542881488800049,-0.9052757620811462,1.5303012132644653,-3.6200737953186035, 4.680445671081543
85,109755481,0.6546951,0.089810826,-0.7504339,0.012540847,9.743097305297852,1.0793625116348267,-0.8751761317253113,1.6002496480941772,-3.470994710922241, 4.602481365203857
86,109772148,0.6544725,0.089467645,-0.75065917,0.013129468,9.76718521118164,1.0676255226135254,-0.8755565881729126,1.817035436630249,-3.2695891857147217, 4.7938714027404785
87,109788815,0.65426356,0.08915991,-0.75086635,0.013772115,9.75196361541748,1.0219393968582153,-0.8574873805046082,1.6190234422683716,-3.1689183712005615, 4.934715270996094
88,109805482,0.65407455,0.08858619,-0.7510905,0.014220923,9.766508102416992,0.9787956476211548,-0.8753176927566528,1.6809808015823364,-3.037436008453369, 5.109944820404053
89,109822149,0.6538748,0.08806327,-0.7513168,0.014699703,9.791620254516602,1.038083553314209,-0.8823021650314331,1.8054713010787964,-3.135929584503174, 5.02552604675293
90,109838816,0.6537328,0.087709196,-0.7514682,0.015374284,9.775553703308105,1.07610023021698,-0.8707029819488525,1.5159451961517334,-2.610907554626465, 5.288721561431885
91,109855483,0.65359944,0.08726993,-0.7516218,0.016016904,9.745672225952148,1.056970477104187,-0.8643368482589722,1.2272517681121826,-2.581465721130371, 5.551060199737549
92,109872150,0.6534738,0.08670874,-0.7517846,0.01654537,9.741450309753418,1.0341691970825195,-0.8923202753067017,1.1040418148040771,-2.568390369415283, 5.5314788818359375
93,109888817,0.65341395,0.08607953,-0.75189775,0.017051693,9.75284481048584,0.9886398315429688,-0.898838460445404,1.1181544065475464,-1.988979697227478, 5.689009189605713
94,109905484,0.653439,0.08551175,-0.75192773,0.017613776,9.76236629486084,1.0236455202102661,-0.8915700316429138,1.1283996105194092,-1.2147976160049438, 5.643828868865967
95,109922151,0.65354806,0.08504876,-0.7518695,0.018277775,9.812283515930176,1.048511028289795,-0.8490082621574402,0.87662672996521,-0.460734099149704, 5.687243461608887
96,109938818,0.6537245,0.0842075,-0.75180084,0.018685648,9.811043739318848,0.9623609781265259,-0.8384507894515991,0.115109883248806,0.00018569205712992698, 6.1471052169799805
97,109955485,0.65389436,0.08332482,-0.7517405,0.01911962,9.826993942260742,0.8655884265899658,-0.8104019165039062,-0.48639804124832153,-0.12121210992336273, 6.577437877655029
98,109972152,0.6540942,0.082530744,-0.75164104,0.019629598,9.85468864440918,0.8119878768920898,-0.8084262013435364,-0.7677919864654541,0.1277497559785843, 6.587772369384766
99,109988819,0.6542997,0.08204118,-0.7514965,0.020355614,9.8465576171875,0.8021703958511353,-0.7664087414741516,-1.1476155519485474,0.1949959099292755, 6.382205009460449
100,110005486,0.654504,0.081091695,-0.751413,0.020673972,9.845693588256836,0.7889089584350586,-0.77997225522995,-1.4369111061096191,0.01933118887245655, 6.378978252410889
101,110022153,0.6546755,0.0807486,-0.7512786,0.02144722,9.83385944366455,0.7619931101799011,-0.7717485427856445,-1.781888484954834,-0.1894059181213379, 6.055694580078125
102,110038820,0.65488386,0.07968193,-0.7512072,0.021581927,9.83322811126709,0.7099297046661377,-0.7460387945175171,-2.1572301387786865,-0.09320463240146637, 6.054325103759766
103,110055487,0.6550428,0.07887222,-0.7511454,0.021880098,9.825319290161133,0.694545328617096,-0.7786824107170105,-2.598140239715576,-0.546075701713562, 5.826345920562744
104,110072154,0.65519816,0.07813757,-0.75107676,0.0222265,9.814468383789062,0.6283209919929504,-0.8171128034591675,-2.474635124206543,-0.5783731937408447, 5.70710563659668
105,110088821,0.6553644,0.07736054,-0.7510035,0.02251616,9.760322570800781,0.5848338603973389,-0.8106577396392822,-1.768415927886963,-0.46279585361480713, 5.484889030456543
106,110105488,0.6555167,0.076822214,-0.7509124,0.022951448,9.757654190063477,0.6157596707344055,-0.7620866894721985,-0.47955942153930664,-0.4745008647441864, 4.963338375091553
107,110122155,0.65564466,0.076453656,-0.75082237,0.023473123,9.802202224731445,0.6176313757896423,-0.7068511843681335,-0.17520371079444885,-0.6695032119750977, 4.604299545288086
108,110138822,0.6556972,0.076103374,-0.7507973,0.023942161,9.800005912780762,0.5879105925559998,-0.7255929112434387,-0.29221534729003906,-1.4065600633621216, 4.306705474853516
109,110155489,0.65571254,0.07576827,-0.7508042,0.02435785,9.834511756896973,0.575989305973053,-0.7553971409797668,-0.4393218457698822,-1.79450261592865, 3.9969451427459717
110,110172156,0.65573317,0.075564675,-0.75079155,0.02482608,9.798449516296387,0.6282723546028137,-0.7407699227333069,0.18779875338077545,-1.7114921808242798, 3.5704941749572754
111,110188823,0.6557542,0.07541592,-0.75077426,0.025238626,9.786429405212402,0.7021287679672241,-0.7454746961593628,0.36720287799835205,-1.7382954359054565, 3.001558780670166
112,110205490,0.6558478,0.07523365,-0.75069845,0.02560629,9.788689613342285,0.7154666185379028,-0.7124170660972595,0.18321403861045837,-1.1264593601226807, 2.901963710784912
113,110222157,0.6559238,0.0750603,-0.75063825,0.025932644,9.805088996887207,0.6267959475517273,-0.6936153769493103,-0.3103618919849396,-1.356141209602356, 2.7328555583953857
114,110238824,0.65598965,0.07492124,-0.75058365,0.02624067,9.83612060546875,0.523159384727478,-0.690504252910614,0.03622275963425636,-1.4590530395507812, 2.43802809715271
115,110255491,0.65601385,0.074846834,-0.750559,0.026552534,9.831819534301758,0.5124559998512268,-0.6580917835235596,0.7280217409133911,-1.8236368894577026, 2.086660385131836
116,110272158,0.6560126,0.07490786,-0.75054014,0.026946649,9.81965160369873,0.5264025926589966,-0.7062616348266602,1.2091307640075684,-2.0264508724212646, 1.8385370969772339
117,110288825,0.655985,0.07500649,-0.7505394,0.027359085,9.769617080688477,0.5397802591323853,-0.7360767126083374,1.3584784269332886,-2.2743051052093506, 1.7538361549377441
118,110305492,0.6559739,0.0751754,-0.7505153,0.027814753,9.769828796386719,0.5961135029792786,-0.72635418176651,2.2954037189483643,-2.0744752883911133, 1.5118985176086426
119,110322159,0.6560033,0.07555455,-0.75043154,0.028350115,9.76849365234375,0.6826686263084412,-0.6805814504623413,3.296809434890747,-1.6382395029067993, 0.7984567284584045
120,110338826,0.6560193,0.07588858,-0.75036675,0.028798776,9.76861572265625,0.7279505133628845,-0.6508976221084595,2.7532050609588623,-1.8497618436813354, 0.6463940739631653
121,110355493,0.65604717,0.076183565,-0.75029576,0.02923627,9.85710620880127,0.7041646242141724,-0.6147103905677795,2.3650190830230713,-1.7959498167037964, 0.8242871165275574
122,110372160,0.6560482,0.07635111,-0.7502666,0.029519249,9.829687118530273,0.6411899328231812,-0.6291982531547546,1.2828953266143799,-2.1947264671325684, 0.781641960144043
123,110388827,0.65603524,0.07653346,-0.750248,0.029806081,9.835436820983887,0.629643440246582,-0.6729221343994141,1.2197216749191284,-2.354140281677246, 0.7572715282440186
124,110405494,0.65605295,0.07676489,-0.750195,0.030150007,9.81152629852295,0.5936701893806458,-0.680907130241394,1.3292670249938965,-2.069493055343628, 0.796113133430481
125,110422161,0.65607995,0.076929495,-0.7501451,0.030388024,9.770559310913086,0.6220883131027222,-0.665691077709198,1.0021544694900513,-2.0742573738098145, 0.5911090970039368
126,110438828,0.6561007,0.07714841,-0.75009507,0.030620297,9.772391319274902,0.6202968955039978,-0.655828595161438,0.7478588223457336,-2.1731607913970947, 0.3555490970611572
127,110455495,0.6561104,0.07735348,-0.75005996,0.03075358,9.80907154083252,0.6018382906913757,-0.6508635878562927,0.8037712574005127,-2.339797019958496, -0.09273077547550201
128,110472162,0.6560746,0.07760936,-0.75006104,0.030843189,9.821737289428711,0.558775782585144,-0.6241970658302307,0.7509963512420654,-2.803297281265259, -0.5108965635299683
129,110488829,0.6560251,0.07792052,-0.75006855,0.030930858,9.840768814086914,0.6133829951286316,-0.6413549780845642,0.9786419868469238,-2.946023941040039, -0.7967982888221741
130,110505496,0.6560295,0.07833189,-0.7500132,0.031140469,9.871668815612793,0.6349492073059082,-0.6525484919548035,1.462235450744629,-2.4016387462615967, -0.7253260612487793
131,110522163,0.6560545,0.07873934,-0.7499417,0.031304915,9.867149353027344,0.6397615671157837,-0.6571066975593567,1.426236629486084,-2.2619216442108154, -0.948643147945404
132,110538830,0.65662766,0.07939415,-0.7493596,0.031577606,10.269346237182617,0.7425667643547058,-0.35217389464378357,2.91556453704834,2.8450400829315186, -2.1268019676208496
133,110555497,0.6593877,0.078342944,-0.74710006,0.030198332,10.248713493347168,0.5775150060653687,-0.18527968227863312,-13.808131217956543,21.121015548706055, -2.228130578994751
134,110572164,0.6621897,0.07607459,-0.7449376,0.028027913,9.582486152648926,0.5917758941650391,-0.5290958881378174,-23.83941078186035,20.638973236083984, 0.510968804359436
135,110588831,0.6645152,0.073726706,-0.7431697,0.02613467,9.568800926208496,0.6075956225395203,-0.748357355594635,-23.16704559326172,16.50370979309082, 2.522108793258667
136,110605498,0.6662175,0.072161384,-0.7418396,0.024920225,9.633013725280762,0.6654372811317444,-0.59686678647995,-15.781580924987793,11.523111343383789, 1.9267244338989258
137,110622165,0.66725445,0.07136918,-0.7410063,0.024239678,9.557144165039062,0.6557965278625488,-0.5117247104644775,-9.622593879699707,5.953130722045898, 0.819280207157135
138,110638832,0.66776454,0.071274616,-0.7405633,0.024010226,9.630056381225586,0.5853278040885925,-0.4503856301307678,-3.685399293899536,1.5823720693588257, -0.415860652923584
139,110655499,0.66785693,0.071893886,-0.7404167,0.024119727,9.71157169342041,0.5644474625587463,-0.3508147895336151,1.550150990486145,-1.8714814186096191, -2.2904157638549805
140,110672166,0.6676101,0.07293256,-0.74053186,0.024297634,9.806365966796875,0.5483359694480896,-0.31358039379119873,3.7054216861724854,-4.876633167266846, -3.8997771739959717
141,110688833,0.66708916,0.07413525,-0.7408765,0.024458077,9.831846237182617,0.6565061211585999,-0.34362590312957764,4.461318016052246,-7.392007350921631, -4.652561187744141
142,110705500,0.6664605,0.075300604,-0.7413216,0.024547325,9.8626127243042,0.6670753955841064,-0.38809117674827576,3.8176190853118896,-8.469943046569824, -4.695232391357422
143,110722167,0.6657397,0.076428495,-0.7418542,0.024532052,9.866108894348145,0.7073805928230286,-0.3554701805114746,3.467339277267456,-9.394421577453613, -4.949911594390869
144,110738834,0.66500634,0.07758304,-0.7423938,0.02447607,9.865091323852539,0.7024729251861572,-0.38430967926979065,3.252808094024658,-9.555066108703613, -5.241641521453857
145,110755501,0.6642306,0.07893171,-0.742946,0.024470251,9.899752616882324,0.7203705310821533,-0.4003559350967407,4.449011325836182,-9.863008499145508, -5.984155178070068
146,110772168,0.66341424,0.08042302,-0.7435145,0.024493122,9.905142784118652,0.7302685976028442,-0.36045828461647034,5.434870719909668,-10.171116828918457, -6.576243877410889
147,110788835,0.66252047,0.082081504,-0.7441289,0.024529908,9.89919376373291,0.7228766083717346,-0.36602509021759033,6.293589115142822,-10.83082389831543, -7.3182573318481445
148,110805502,0.66156125,0.08389808,-0.74477947,0.024523655,9.87572956085205,0.7462249994277954,-0.3814791738986969,7.1061272621154785,-11.395586013793945, -8.31737232208252
149,110822169,0.6604772,0.08599072,-0.74550086,0.024577731,9.88211441040039,0.7974077463150024,-0.3141031265258789,8.46712589263916,-12.423991203308105, -9.35230827331543
150,110838836,0.6591869,0.088292964,-0.7463742,0.024547923,10.012435913085938,0.7654500007629395,-0.21574239432811737,9.381221771240234,-14.274707794189453, -10.707441329956055
151,110855503,0.65755975,0.09070535,-0.74752814,0.024278281,10.091392517089844,0.795784056186676,-0.11306492239236832,8.864232063293457,-17.484619140625, -12.130772590637207
152,110872170,0.65623873,0.09246495,-0.7485092,0.02313056,10.417940139770508,0.73683762550354,0.10020458698272705,1.4063761234283447,-15.615147590637207, -12.921034812927246
153,110888837,0.6554949,0.09456344,-0.7489355,0.02190552,10.305692672729492,0.7604727149009705,-0.10415535420179367,2.6034891605377197,-10.291438102722168, -15.512017250061035
154,110905504,0.6546818,0.09671807,-0.7494155,0.020344792,10.436888694763184,1.0060601234436035,-0.13857479393482208,1.2804126739501953,-11.17177677154541, -17.292593002319336
155,110922171,0.65394485,0.098930135,-0.7498215,0.01835426,10.961992263793945,1.176594614982605,0.1010323241353035,-1.007989525794983,-10.834805488586426, -19.53810691833496
156,110938838,0.6547306,0.10160276,-0.7488236,0.016374828,11.790874481201172,1.2533191442489624,0.72685706615448,1.0346717834472656,3.271574020385742, -23.115516662597656
157,110955505,0.6544766,0.10422809,-0.74873847,0.013702497,11.278067588806152,1.0113252401351929,0.6927992701530457,-2.6223628520965576,-6.857075214385986, -25.16412925720215
158,110972172,0.6520021,0.10741532,-0.75048983,0.010972632,11.368592262268066,1.0541898012161255,0.6538667678833008,1.2606825828552246,-26.742149353027344, -26.837799072265625
159,110988839,0.6481285,0.111267105,-0.7533155,0.008061107,11.233345985412598,1.0123180150985718,0.4221813380718231,4.342241287231445,-39.07489013671875, -30.207082748413086
160,111005506,0.6428567,0.11479491,-0.7573211,0.00473516,10.79092025756836,0.4361964762210846,-0.05195310711860657,2.8465728759765625,-51.833892822265625, -29.59646987915039
161,111022173,0.6369948,0.118333355,-0.76173025,0.0013866746,10.672894477844238,0.5495240688323975,-0.3916710615158081,3.6878654956817627,-56.71535873413086, -29.568801879882812
162,111038840,0.631169,0.12103385,-0.76614046,-0.0023477543,9.807921409606934,0.40733662247657776,-0.7054765820503235,-0.8152891397476196,-56.70371627807617, -27.19107437133789
163,111055507,0.62649995,0.1211966,-0.76990974,-0.0069510443,10.454143524169922,-0.43591153621673584,0.2853458821773529,-17.291290283203125,-48.6066780090332, -18.23602294921875
164,111072174,0.62459356,0.12025678,-0.7715877,-0.008580941,8.275691032409668,-1.4283217191696167,5.11735200881958,-8.634135246276855,-22.645782470703125, -1.381116509437561
165,111088841,0.6254792,0.11816814,-0.7711789,-0.009756373,7.155231475830078,-1.0034775733947754,5.826566219329834,-13.529497146606445,1.066929817199707, 4.913114547729492
166,111105508,0.6302892,0.11386349,-0.76787996,-0.01145931,7.868666648864746,-0.14542518556118011,5.962541580200195,-28.899633407592773,33.37919616699219, 12.108036994934082
167,111122175,0.6381527,0.10836302,-0.76216716,-0.010956092,8.190837860107422,-0.44684281945228577,5.684045314788818,-24.013277053833008,61.33575439453125, 26.07160758972168
168,111138842,0.64842385,0.10287943,-0.75424355,-0.008905096,8.680010795593262,0.18130210041999817,4.935755252838135,-18.06938362121582,84.35189819335938, 31.32563591003418
169,111155509,0.65995,0.0974171,-0.744948,-0.005329002,9.233274459838867,0.48181506991386414,4.134955406188965,-15.41055965423584,97.05750274658203, 37.776641845703125
170,111172176,0.6718343,0.092083514,-0.7349555,0.00017470866,9.771738052368164,0.2801394462585449,3.1160638332366943,-8.289395332336426,102.68688201904297, 45.67393493652344
171,111188843,0.6835854,0.08679111,-0.7246611,0.006694611,10.584346771240234,0.5288666486740112,2.345837116241455,1.535534381866455,104.43742370605469, 49.433406829833984
172,111205510,0.6948128,0.08272786,-0.7142594,0.014994948,11.002533912658691,0.8031966090202332,1.623152494430542,16.46377944946289,103.19569396972656, 51.6351432800293
173,111222177,0.7051001,0.080108285,-0.70413524,0.024704916,11.121275901794434,0.913794219493866,0.9511142373085022,30.742408752441406,97.82197570800781, 51.57597351074219
174,111238844,0.71439666,0.078985915,-0.69436413,0.035457943,11.089620590209961,1.164843201637268,0.6583570241928101,43.4815788269043,91.60739135742188, 49.823062896728516
175,111255511,0.7230119,0.07760023,-0.6849341,0.045797884,11.276383399963379,1.543351411819458,0.554961621761322,40.44340133666992,86.52989196777344, 49.50652313232422
176,111272178,0.7320314,0.07406438,-0.67508805,0.053859375,11.443002700805664,2.2045953273773193,-1.1782362461090088,18.87746238708496,90.00308227539062, 48.06828308105469
177,111288845,0.7406979,0.068669334,-0.6657076,0.05903065,11.704599380493164,2.4359498023986816,-2.6408917903900146,-3.9562389850616455,85.4020767211914, 42.64036178588867
178,111305512,0.7499381,0.062200587,-0.65541697,0.0644424,11.50253677368164,1.8638912439346313,-2.095134973526001,-8.296317100524902,93.48151397705078, 48.23872756958008
179,111322179,0.75857484,0.05624451,-0.64538383,0.06986128,9.422039985656738,1.6152254343032837,-1.3891798257827759,-5.544772624969482,89.46260833740234, 46.43550491333008
180,111338846,0.76545316,0.050481692,-0.6374315,0.07221063,8.660258293151855,2.2629220485687256,-2.607011079788208,-18.532817840576172,69.73568725585938, 31.296207427978516
181,111355513,0.77053857,0.04443621,-0.63177526,0.07180309,9.583281517028809,2.484243869781494,-4.081408500671387,-32.664398193359375,49.25746154785156, 19.81893539428711
182,111372180,0.77386385,0.038956814,-0.6281382,0.071132444,9.482940673828125,2.012028455734253,-4.809014797210693,-31.306217193603516,30.93228530883789, 17.57073974609375
183,111388847,0.7750971,0.03492727,-0.6269898,0.06991969,8.58115005493164,1.7758228778839111,-5.0427656173706055,-26.614337921142578,8.22032356262207, 10.216903686523438
184,111405514,0.7743269,0.032017116,-0.6283495,0.06760106,8.550918579101562,1.6152763366699219,-4.855362415313721,-26.15258026123047,-14.169873237609863, 1.159125566482544
185,111422181,0.7718884,0.029470103,-0.63182664,0.06414835,8.820496559143066,1.5397415161132812,-4.192272663116455,-29.736974716186523,-32.66998291015625, -5.116121292114258
186,111438848,0.7704837,0.027538668,-0.6338522,0.061870832,10.798980712890625,0.11455617845058441,2.2751660346984863,-20.933090209960938,-20.152029037475586, -2.213686466217041
187,111455515,0.76957357,0.027727518,-0.6346032,0.06531925,9.218214988708496,-3.295483112335205,6.373429298400879,15.697876930236816,-11.046541213989258, 18.449533462524414
188,111472182,0.7670413,0.03187442,-0.63720375,0.06784874,10.277444839477539,-1.4154367446899414,3.5725412368774414,32.132957458496094,-30.090360641479492, -2.754638910293579
189,111488849,0.7628049,0.035985913,-0.6423549,0.0649136,12.250555992126465,2.084470272064209,0.8715613484382629,7.213596820831299,-52.2512092590332, -30.110538482666016
190,111505516,0.75785846,0.03791331,-0.6481598,0.064046115,11.653908729553223,1.8347883224487305,1.648320198059082,4.776281356811523,-57.23104476928711, -9.001459121704102
191,111522183,0.75275445,0.037688233,-0.65399235,0.06507346,8.890563011169434,0.24347466230392456,2.0036067962646484,2.028543472290039,-56.5966796875, 10.658345222473145
192,111538850,0.74758494,0.035673037,-0.6602294,0.06278128,8.550222396850586,-0.4452265501022339,0.5677598714828491,-22.32147216796875,-59.05812454223633, 1.677968978881836
193,111555517,0.7432431,0.03415095,-0.66550124,0.059427273,11.018248558044434,-0.3895737826824188,0.78801029920578,-24.378122329711914,-50.761871337890625, -6.640013217926025
194,111572184,0.7392369,0.03461611,-0.669925,0.059425324,10.49979305267334,-0.7629151344299316,0.6219475269317627,1.3946021795272827,-44.867130279541016, 1.0462925434112549
195,111588851,0.735386,0.03553262,-0.6740239,0.06030633,10.324569702148438,0.33480027318000793,1.1439917087554932,7.861761093139648,-42.426116943359375, 3.2876100540161133
196,111605518,0.73166424,0.034917925,-0.6780199,0.061132506,10.149237632751465,0.781545102596283,1.1591644287109375,-0.1208798736333847,-40.67257308959961, 10.059667587280273
197,111622185,0.7280677,0.03248631,-0.6820704,0.060349934,10.194522857666016,0.5399174690246582,0.911876380443573,-16.81316375732422,-39.983150482177734, 10.447371482849121
198,111638852,0.72483385,0.029561877,-0.6857252,0.059357394,10.070582389831543,-0.11694519966840744,0.8074854612350464,-20.180644989013672,-36.13556671142578, 11.501579284667969
199,111655519,0.7219633,0.027371746,-0.6888271,0.0594763,9.890508651733398,-0.6638122200965881,0.6924344301223755,-11.127501487731934,-31.73126983642578, 13.318262100219727
200,111672186,0.71944046,0.026421983,-0.69137514,0.06089248,9.937026977539062,-0.6231417655944824,0.6654937267303467,1.3342915773391724,-27.58796501159668, 13.614904403686523
201,111688853,0.71695334,0.026806062,-0.69371974,0.06334546,9.72399616241455,-1.1478939056396484,0.7916582822799683,12.939051628112793,-26.77091407775879, 12.339712142944336
202,111705520,0.7145223,0.028408939,-0.6958901,0.066242054,9.612641334533691,-0.976650059223175,0.9486401081085205,21.129058837890625,-26.092620849609375, 8.623530387878418
203,111722187,0.71201897,0.029786697,-0.6982207,0.06804214,9.752973556518555,-0.31642764806747437,0.9629736542701721,14.719969749450684,-27.348400115966797, 4.35605001449585
204,111738854,0.70911497,0.029657668,-0.7011498,0.06830419,9.90466022491455,0.22603413462638855,1.0112898349761963,-0.2352534830570221,-31.828824996948242, 4.37917947769165
205,111755521,0.7058026,0.0274625,-0.70472455,0.06672351,9.827176094055176,0.13923108577728271,0.8902807235717773,-19.407669067382812,-36.37440490722656, 5.708369731903076
206,111772188,0.70235026,0.024048474,-0.70856434,0.06373801,9.786028861999512,-0.3321882486343384,0.569625198841095,-32.22084426879883,-38.07078170776367, 4.92852258682251
207,111788855,0.69898736,0.020409843,-0.71230143,0.060225613,9.917738914489746,-0.5248763561248779,0.39285802841186523,-35.83739471435547,-37.1410026550293, 3.411278486251831
208,111805522,0.6958211,0.017065134,-0.71575683,0.056869797,10.101303100585938,-0.7696717977523804,0.2861092686653137,-33.56456756591797,-34.933990478515625, 2.583299160003662
209,111822189,0.6929082,0.014180735,-0.71885306,0.054105546,10.189738273620605,-0.7946121692657471,-0.0474860817193985,-28.337242126464844,-32.08679962158203, 2.977322816848755
210,111838856,0.6904095,0.01263092,-0.7213739,0.052868176,9.9705171585083,-0.9309425354003906,-0.16548830270767212,-14.256717681884766,-27.6414737701416, 3.420363664627075
211,111855523,0.6882733,0.013276627,-0.72339785,0.052909553,9.698992729187012,-0.9124500155448914,-0.14738698303699493,2.6593017578125,-24.161739349365234, -1.5977107286453247
212,111872190,0.6862873,0.014686158,-0.72522426,0.053330224,9.665434837341309,-0.9504708647727966,-0.1697283387184143,8.222121238708496,-22.716896057128906, -3.692551851272583
213,111888857,0.68420464,0.01688345,-0.7270833,0.05411944,9.667243003845215,-0.8535317182540894,-0.12050341069698334,13.778624534606934,-23.598207473754883, -5.8602142333984375
214,111905524,0.68203187,0.019231431,-0.72900057,0.054964025,9.747697830200195,-0.7714535593986511,-0.04418734461069107,14.757793426513672,-24.371196746826172, -6.324396133422852
215,111922191,0.67971164,0.021497546,-0.73105156,0.055621136,9.774930953979492,-0.6404343247413635,-0.06859143078327179,13.407502174377441,-25.73836898803711, -6.727772235870361
216,111938858,0.67714804,0.023912335,-0.7333048,0.056241274,9.870750427246094,-0.49412718415260315,-0.1345394253730774,13.880705833435059,-27.976818084716797, -7.527369499206543
217,111955525,0.6744449,0.026699137,-0.7356236,0.057178654,9.835111618041992,-0.2557324469089508,-0.20691761374473572,17.216142654418945,-29.08639144897461, -7.856024742126465
218,111972192,0.6716954,0.029758766,-0.7379272,0.05833743,9.728818893432617,-0.2591797411441803,-0.37872087955474854,19.623252868652344,-29.324064254760742, -8.176956176757812
219,111988859,0.66899824,0.032950696,-0.7401516,0.059425525,9.733955383300781,-0.420859694480896,-0.4751133322715759,19.904783248901367,-28.761926651000977, -9.195808410644531
220,112005526,0.6661881,0.035962522,-0.74248505,0.06013649,9.755335807800293,-0.487470418214798,-0.4868623614311218,17.145496368408203,-29.850173950195312, -9.937094688415527
221,112022193,0.6629996,0.03913345,-0.7451174,0.060829528,9.7431058883667,-0.5910768508911133,-0.5642297267913818,17.759984970092773,-33.22370147705078, -10.600037574768066
222,112038860,0.65963006,0.04345252,-0.7477265,0.062492162,9.721888542175293,-0.8819372057914734,-0.7147307991981506,28.02617645263672,-34.267303466796875, -11.995770454406738
223,112055527,0.65611213,0.048552368,-0.750324,0.06460412,9.655512809753418,-0.9182302951812744,-0.9406875371932983,33.93220901489258,-35.177978515625, -13.925929069519043
224,112072194,0.6523119,0.053924885,-0.7531031,0.06646157,9.911834716796875,-0.2581779658794403,-0.6130936741828918,33.86797332763672,-37.650909423828125, -16.311019897460938
225,112088861,0.6479424,0.058616094,-0.7564499,0.06721975,10.05093002319336,0.03139087185263634,-0.5147731304168701,25.083011627197266,-43.25407409667969, -17.230690002441406
226,112105528,0.6429731,0.062312577,-0.7604293,0.06671011,10.024676322937012,0.10260213911533356,-0.9502697587013245,14.021027565002441,-49.26811981201172, -17.15388298034668
227,112122195,0.6376235,0.06527583,-0.7647879,0.06538304,10.045833587646484,0.1863691806793213,-1.2300084829330444,6.509109973907471,-52.95586013793945, -16.581472396850586
228,112138862,0.6314814,0.067640185,-0.76985335,0.06310302,9.997660636901855,0.2881656885147095,-1.2918741703033447,-1.0725979804992676,-60.38480758666992, -16.923429489135742
229,112155529,0.62398297,0.06924666,-0.77608573,0.059507582,10.122053146362305,0.24671420454978943,-1.4352741241455078,-11.184718132019043,-72.9222640991211, -17.48101234436035
230,112172196,0.6161408,0.07060246,-0.78253233,0.05503658,10.817464828491211,0.09029103070497513,-1.558247447013855,-16.8370304107666,-76.00306701660156, -19.65538787841797
231,112188863,0.6100341,0.07211043,-0.7874721,0.050459757,10.665675163269043,-0.3009951710700989,-1.4127836227416992,-17.01849937438965,-60.41447067260742, -22.319948196411133
232,112205530,0.60414064,0.073975205,-0.79214185,0.045311134,10.686334609985352,-0.19960154592990875,-1.5466352701187134,-18.618011474609375,-58.573081970214844, -26.88947868347168
233,112222197,0.598451,0.076962344,-0.7964212,0.040578667,11.154891967773438,0.34493884444236755,-1.4614903926849365,-11.657822608947754,-56.01689147949219, -31.565399169921875
234,112238864,0.5926777,0.08155381,-0.80048037,0.036239024,11.694472312927246,1.103086233139038,-1.2180863618850708,-2.77651309967041,-55.864078521728516, -38.8337287902832
235,112255531,0.5860114,0.08784814,-0.8048909,0.03200102,12.265753746032715,1.063572883605957,-0.928459107875824,5.172898769378662,-62.6563720703125, -47.34807205200195
236,112272198,0.57755923,0.094910875,-0.8103537,0.027283335,12.851398468017578,1.1133055686950684,-0.3464081287384033,6.505345821380615,-77.34284210205078, -52.490020751953125
237,112288865,0.56701374,0.102373526,-0.8170348,0.021664714,13.60476303100586,1.3235987424850464,0.6353456377983093,4.263334274291992,-94.65357971191406, -57.104007720947266
238,112305532,0.55391276,0.1092787,-0.8252541,0.013953585,13.9474458694458,1.784619927406311,1.6061348915100098,-8.028701782226562,-116.60861206054688, -60.674312591552734
239,112322199,0.53688323,0.115838185,-0.83565634,0.004075544,14.07129955291748,2.4194581508636475,2.495136022567749,-18.812408447265625,-149.0832977294922, -64.96389770507812
240,112338866,0.5156695,0.12203308,-0.84801567,-0.0078993,14.983525276184082,1.9553717374801636,3.783144950866699,-28.8111629486084,-182.33889770507812, -68.95752716064453
241,112355533,0.49433798,0.12585658,-0.859767,-0.024306817,16.277067184448242,0.3898348808288574,4.157169818878174,-62.874446868896484,-185.12857055664062, -71.45744323730469
242,112372200,0.47161752,0.12827566,-0.87128776,-0.044499695,13.904272079467773,-1.3780319690704346,-2.382533311843872,-88.76551055908203,-196.53533935546875, -76.67789459228516
243,112388867,0.44831634,0.1328964,-0.88176656,-0.061958667,14.701828956604004,-1.342526912689209,-7.594757556915283,-65.04460906982422,-193.71987915039062, -82.3890609741211
244,112405534,0.42927724,0.13857558,-0.88913894,-0.077137604,14.478076934814453,-1.070980191230774,-6.284257411956787,-53.22690200805664,-155.7889404296875, -83.07954406738281
245,112422201,0.41380283,0.14153598,-0.89471304,-0.090683095,10.898446083068848,-2.724616527557373,-1.577400803565979,-55.678043365478516,-128.6714630126953, -61.72229766845703
246,112438868,0.40324697,0.14226602,-0.8985804,-0.09851891,10.268818855285645,-5.016907691955566,6.003504753112793,-32.83306884765625,-89.5679931640625, -30.62148666381836
247,112455535,0.40157014,0.14184706,-0.8994004,-0.09848784,7.517282485961914,-7.008114337921143,9.357891082763672,1.7540562152862549,-19.76626968383789, 1.0289725065231323
248,112472202,0.406784,0.1416304,-0.89753604,-0.09432385,6.10378885269165,-6.510066509246826,7.945369243621826,19.239009857177734,33.97263717651367, 12.962773323059082
249,112488869,0.41985118,0.14131333,-0.8923868,-0.08603218,6.384608745574951,-4.1388468742370605,6.594099521636963,34.56871032714844,95.20719146728516, 26.821470260620117
250,112505536,0.44003397,0.13907187,-0.88404393,-0.074133486,6.367190361022949,-2.5769219398498535,5.5447211265563965,42.31663513183594,150.11764526367188, 50.04661178588867
251,112522203,0.46640763,0.13473256,-0.8720887,-0.061421037,7.292271137237549,-1.150640606880188,4.3937554359436035,33.15492248535156,198.0958709716797, 64.92048645019531
252,112538870,0.49738145,0.1274706,-0.8566014,-0.05096242,8.882208824157715,-0.17545802891254425,3.211557626724243,4.53024959564209,233.42764282226562, 73.86200714111328
253,112555537,0.530459,0.117515646,-0.83846325,-0.04222494,10.425392150878906,0.6136655807495117,1.5264126062393188,-17.567195892333984,252.20277404785156, 82.20625305175781
254,112572204,0.5641226,0.10529211,-0.818206,-0.03490459,11.959683418273926,1.1459747552871704,-0.017903149127960205,-35.086368560791016,261.3372497558594, 88.51714324951172
255,112588871,0.59766096,0.09178327,-0.79599255,-0.0278104,13.312013626098633,1.7945560216903687,-1.6172924041748047,-41.720035552978516,267.6468811035156, 93.36438751220703
256,112605538,0.6291596,0.076322466,-0.7732134,-0.021778721,14.404763221740723,1.807398796081543,-3.2182323932647705,-54.38640594482422,257.7434387207031, 98.88158416748047
257,112622205,0.6575886,0.060882222,-0.7507838,-0.0139536755,14.572701454162598,0.972835123538971,-4.049959182739258,-43.12592315673828,240.92799377441406, 106.20657348632812
258,112638872,0.68276286,0.046676345,-0.72914004,-0.0033359644,13.600809097290039,0.8917790055274963,-4.412288188934326,-21.75192642211914,221.99981689453125, 112.44153594970703
259,112655539,0.70433164,0.033009473,-0.70904523,0.0090659745,14.293779373168945,1.6402043104171753,-4.904452323913574,-9.149953842163086,197.43202209472656, 118.5369644165039
260,112672206,0.7235365,0.019062355,-0.68966436,0.022247266,15.448502540588379,2.2437901496887207,-6.207814693450928,-6.307073593139648,182.89227294921875, 124.05229949951172
261,112688873,0.74190265,0.0074842167,-0.6693937,0.03790402,15.12692642211914,2.005160093307495,-6.959023952484131,17.381601333618164,183.6371612548828, 125.27274322509766
262,112705540,0.75988114,0.0010090205,-0.64755976,0.056977853,14.004294395446777,2.8113608360290527,-7.065273761749268,59.50508499145508,189.09799194335938, 119.43487548828125
263,112722207,0.7766899,-0.0021130948,-0.6253413,0.075476065,13.58651351928711,4.247951507568359,-7.876123905181885,74.57564544677734,185.08523559570312, 102.24626159667969
264,112738874,0.7908207,-0.004711605,-0.60528404,0.09061887,13.037779808044434,5.615102291107178,-8.98308277130127,61.745086669921875,162.4007110595703, 83.78545379638672
265,112755541,0.8010991,-0.0078765955,-0.5896851,0.102224424,11.28073787689209,5.880683422088623,-10.433958053588867,41.00059509277344,123.26042175292969, 69.53266906738281
266,112772208,0.8065215,-0.010486689,-0.580881,0.1095017,9.841532707214355,5.384835720062256,-12.518121719360352,21.444028854370117,66.68865966796875, 46.81475830078125
267,112788875,0.807931,-0.009688049,-0.5782157,0.11322771,9.648860931396484,4.520478248596191,-13.043851852416992,21.262292861938477,15.020442962646484, 16.358736038208008
268,112805542,0.80644673,-0.0052037286,-0.5797882,0.11602825,9.217612266540527,3.364945411682129,-10.16351318359375,34.597171783447266,-22.17864418029785, -1.2494462728500366
269,112822209,0.8027958,0.0014272126,-0.58432937,0.11864324,8.014830589294434,3.2273964881896973,-7.474200248718262,43.346378326416016,-48.49638748168945, -9.064971923828125
270,112838876,0.7979066,0.0093815,-0.59084415,0.11899773,9.604345321655273,4.178075313568115,-3.3160505294799805,39.99040222167969,-65.1358413696289, -25.71781349182129
271,112855543,0.7958976,0.014215405,-0.5930125,0.12116681,15.073637008666992,-3.1346096992492676,10.424467086791992,33.607444763183594,-26.732481002807617, -5.6059651374816895
272,112872210,0.7884093,0.029478773,-0.60113835,0.12717976,10.498096466064453,0.9738970994949341,0.5748064517974854,101.93755340576172,-90.13215637207031, -22.015003204345703
273,112888877,0.7793767,0.037224982,-0.6144837,0.116603866,14.452248573303223,4.291471481323242,0.4738677740097046,-11.617437362670898,-121.52620697021484, -78.44168090820312
274,112905544,0.77106065,0.04016133,-0.6252854,0.11345003,11.44842529296875,1.21306312084198,0.16079656779766083,-4.180975914001465,-99.03255462646484, -19.476648330688477
275,112922211,0.7631524,0.040941,-0.6350638,0.11232251,9.712591171264648,-0.6075719594955444,-1.97944176197052,-6.20300817489624,-89.56642150878906, -0.06128011643886566
276,112938878,0.75749826,0.041839294,-0.6422164,0.10956406,10.07162094116211,-0.3446858823299408,0.9926220178604126,-11.283309936523438,-66.42987823486328, -11.656902313232422
277,112955545,0.7516257,0.043707214,-0.64914536,0.10843819,10.38730239868164,0.8458536863327026,1.0051517486572266,1.217345952987671,-66.49446105957031, -7.367211818695068
278,112972212,0.74588275,0.045053884,-0.65577257,0.10766302,11.308032989501953,0.6213303804397583,0.5679492354393005,0.2797907292842865,-63.87046432495117, -3.4231221675872803
279,112988879,0.7402562,0.045585863,-0.66209644,0.10757011,9.898393630981445,-0.19661597907543182,1.1028385162353516,-0.6252526044845581,-60.97564697265625, 3.558502435684204
280,113005546,0.73484814,0.045789704,-0.66806984,0.107629485,9.663981437683105,-0.7553523778915405,0.8529826402664185,-1.4030802249908447,-57.922279357910156, 5.5309672355651855
281,113022213,0.72984624,0.04612447,-0.67365426,0.106709905,9.92817497253418,-0.9079517722129822,0.5950769782066345,-5.074223518371582,-54.5093879699707, -0.47051024436950684
282,113038880,0.72466594,0.0474523,-0.6792094,0.10621837,9.92979621887207,-1.8861842155456543,0.4570331573486328,1.9753050804138184,-55.79069900512695, -2.8290436267852783
283,113055547,0.7192122,0.050979316,-0.6844811,0.10779985,9.545158386230469,-2.310901641845703,0.32592207193374634,22.91500473022461,-56.594017028808594, -2.7020087242126465
284,113072214,0.7141264,0.056044612,-0.6889731,0.11044746,9.744206428527832,-1.4964561462402344,0.295002281665802,35.99102783203125,-51.77985763549805, -5.2562737464904785
285,113088881,0.7091495,0.06253508,-0.69302243,0.1136506,10.216414451599121,-0.40110933780670166,0.29048290848731995,45.915401458740234,-49.96745681762695, -9.557038307189941
286,113105548,0.70377636,0.06914598,-0.6973244,0.11686038,10.089015007019043,0.10588720440864563,0.1333046853542328,46.508819580078125,-53.18532180786133, -9.688508987426758
287,113122215,0.6982953,0.07504104,-0.7016264,0.120303184,9.76339340209961,-0.15764445066452026,0.06680088490247726,44.21416473388672,-53.02378463745117, -5.043456554412842
288,113138882,0.6934961,0.07961709,-0.70535296,0.123294525,10.033690452575684,-0.20005358755588531,0.02890489250421524,35.8275032043457,-46.11894226074219, -1.7139453887939453
289,113155549,0.6890591,0.08354294,-0.7088708,0.12538043,10.11985969543457,0.08700517565011978,0.10173671692609787,28.314870834350586,-43.31953048706055, -3.3031861782073975
290,113172216,0.6845937,0.086226106,-0.71284026,0.12552142,9.953375816345215,0.2674037516117096,0.26068609952926636,12.575814247131348,-45.65153503417969, -6.17753791809082
291,113188883,0.67974204,0.087585695,-0.7174901,0.12444925,9.753880500793457,-0.4021309018135071,-0.12612977623939514,0.042075637727975845,-50.3350715637207, -4.662858963012695
292,113205550,0.6746928,0.089026235,-0.7222617,0.123296686,9.916338920593262,-0.8527665138244629,-0.5259064435958862,0.03863072767853737,-52.003658294677734, -5.200991153717041
293,113222217,0.6696673,0.09111443,-0.72683907,0.122265734,9.92137336730957,-0.5963063836097717,-0.46114280819892883,3.7975997924804688,-51.46223449707031, -8.001483917236328
294,113238884,0.66436327,0.093025595,-0.73172987,0.12057929,9.700679779052734,-0.42007577419281006,-0.3792545199394226,-0.3822096288204193,-54.565101623535156, -9.710352897644043
295,113255551,0.6584779,0.09448127,-0.7372284,0.11821424,9.809867858886719,-0.23104621469974518,-0.730176568031311,-6.009511470794678,-60.328365325927734, -9.651954650878906
296,113272218,0.6523012,0.09600986,-0.742857,0.11596883,10.113937377929688,-0.05957679823040962,-1.0895438194274902,-4.988656044006348,-62.37942886352539, -9.160792350769043
297,113288885,0.6466159,0.09720059,-0.74801487,0.11363918,9.946441650390625,-0.07484457641839981,-1.110532522201538,-6.882791519165039,-57.54742431640625, -8.515877723693848
298,113305552,0.6406493,0.09797912,-0.75346595,0.11071567,9.874994277954102,-0.2923262119293213,-1.038188099861145,-11.809510231018066,-60.37516403198242, -8.621504783630371
299,113322219,0.63413686,0.098628,-0.7593711,0.10723179,9.870445251464844,-0.2603282332420349,-1.3201334476470947,-15.262214660644531,-65.48815155029297, -9.699136734008789
300,113338886,0.62706685,0.09915046,-0.7657151,0.103135236,9.917731285095215,-0.3232699930667877,-1.7253472805023193,-18.95712661743164,-70.63804626464844, -11.004347801208496
301,113355553,0.61970633,0.099465564,-0.77226126,0.098404236,10.120685577392578,-0.7250306010246277,-1.6777442693710327,-23.136852264404297,-73.32591247558594, -12.307228088378906
302,113372220,0.61214125,0.10004053,-0.77886164,0.09300399,10.231186866760254,-0.6280106902122498,-1.6461405754089355,-25.480424880981445,-75.28108215332031, -16.369468688964844
303,113388887,0.604032,0.100901246,-0.785766,0.08681003,10.468311309814453,-0.039738353341817856,-1.8139135837554932,-28.349748611450195,-80.21011352539062, -20.688575744628906
304,113405554,0.5956142,0.102061376,-0.7927021,0.08031468,10.594817161560059,0.6875576972961426,-2.062497138977051,-28.53962516784668,-82.40369415283203, -23.35256004333496
305,113422221,0.5869138,0.10399783,-0.79951584,0.07410331,10.869769096374512,1.1076233386993408,-2.374081611633301,-23.544559478759766,-83.67823028564453, -26.34673309326172
306,113438888,0.57833004,0.10657096,-0.8059299,0.06822064,10.984601020812988,0.8278850317001343,-2.445873737335205,-19.046001434326172,-81.52005004882812, -28.85923957824707
307,113455555,0.5697039,0.10973887,-0.8121166,0.062142313,11.359851837158203,0.8141144514083862,-2.3441903591156006,-17.625530242919922,-81.28047943115234, -33.07667541503906
308,113472222,0.56079453,0.113721654,-0.81820244,0.05587373,11.764495849609375,1.0611575841903687,-2.0668632984161377,-15.236368179321289,-82.97023010253906, -38.32619094848633
309,113488889,0.55068564,0.11977782,-0.8246014,0.0493087,12.763794898986816,1.3110756874084473,-1.6126893758773804,-8.090188026428223,-91.9706039428711, -50.42573547363281
310,113505556,0.53884524,0.12819913,-0.8314765,0.043102957,13.886066436767578,0.4850572943687439,-0.9453092217445374,4.1690473556518555,-104.12191009521484, -61.493404388427734
311,113522223,0.52551055,0.13815105,-0.8387095,0.036326587,15.495158195495605,0.9546324014663696,0.6937780380249023,7.790192127227783,-114.98198699951172, -71.60637664794922
312,113538890,0.5111157,0.1477711,-0.8462903,0.02678075,17.77387046813965,0.9267110824584961,3.3403818607330322,-8.452959060668945,-124.95601654052734, -79.11122131347656
313,113555557,0.49667525,0.15456621,-0.8539803,0.011856269,17.38051414489746,0.2510593831539154,5.19000244140625,-49.64971160888672,-130.63441467285156, -81.46678924560547
314,113572224,0.47785133,0.15883118,-0.8639368,-0.0066354913,15.474579811096191,-0.4333105981349945,4.150102615356445,-74.75965118408203,-167.80178833007812, -76.05284881591797
315,113588891,0.45247602,0.16330785,-0.87627345,-0.027222415,14.195216178894043,-0.890347957611084,-2.643176794052124,-79.24925231933594,-216.91586303710938, -81.93083953857422
316,113605558,0.42655766,0.1678217,-0.88740236,-0.049007107,14.550638198852539,-0.20946113765239716,-8.985088348388672,-85.97113037109375,-217.79916381835938, -87.37872314453125
317,113622225,0.40989137,0.17209029,-0.893042,-0.06964281,15.65325927734375,-1.465692162513733,-6.171695709228516,-92.21065521240234,-143.97625732421875, -85.75708770751953
318,113638892,0.4014796,0.17192227,-0.89553773,-0.0852602,10.018232345581055,-5.17827844619751,0.3436436653137207,-85.18539428710938,-80.63280487060547, -44.17920684814453
319,113655559,0.3921669,0.17209557,-0.8989344,-0.09222417,6.595684051513672,-3.7668864727020264,5.865218639373779,-29.395614624023438,-78.27387237548828, -21.907928466796875
320,113672226,0.39178273,0.16944583,-0.89897436,-0.098181136,8.050430297851562,-4.5057172775268555,8.341294288635254,-43.48643112182617,-14.68896770477295, -0.08677647262811661
321,113688893,0.40031055,0.16339979,-0.8960299,-0.10090737,6.750846862792969,-6.846259593963623,8.311491966247559,-45.072994232177734,49.83384323120117, 32.10478210449219
322,113705560,0.41543886,0.1590523,-0.8906692,-0.09392178,5.165360927581787,-5.441459655761719,5.680291175842285,10.321979522705078,109.17654418945312, 50.18906021118164
323,113722227,0.43807387,0.1563446,-0.88139087,-0.08244992,6.374167442321777,-2.3147456645965576,4.210220813751221,31.729671478271484,172.2735137939453, 53.4991340637207
324,113738894,0.46670842,0.15340766,-0.86845416,-0.066610746,8.377799034118652,-1.0387386083602905,3.8052031993865967,48.99372863769531,224.19692993164062, 67.50553894042969
325,113755561,0.499227,0.14731705,-0.85235804,-0.050555006,9.153005599975586,0.2560513913631439,2.2145678997039795,34.6312370300293,256.2843933105469, 85.47940063476562
326,113772228,0.53333807,0.13770276,-0.83383864,-0.03608097,10.274283409118652,1.0121636390686035,0.8542921543121338,10.815791130065918,271.0851745605469, 98.80259704589844
327,113788895,0.5676503,0.12630036,-0.8132332,-0.021759149,12.359692573547363,1.5375583171844482,-0.48836204409599304,2.6836798191070557,279.2845153808594, 106.5728988647461
328,113805562,0.6009789,0.114153124,-0.7910374,-0.0073255333,13.983782768249512,1.891621470451355,-2.2413742542266846,1.0174493789672852,279.9639892578125, 109.647705078125
329,113822229,0.63196766,0.10116613,-0.7683401,0.0060146647,15.149620056152344,2.156087875366211,-3.7281949520111084,-6.584528923034668,268.4037780761719, 109.18414306640625
330,113838896,0.6602976,0.08785178,-0.74561036,0.018836917,14.485932350158691,1.3071891069412231,-4.510848045349121,-8.893898010253906,254.1651611328125, 108.75310516357422
331,113855563,0.68637896,0.07459926,-0.72266716,0.032731734,13.711071968078613,1.0387016534805298,-4.1663923263549805,-1.7247263193130493,244.28269958496094, 113.47071838378906
332,113872230,0.7092655,0.059689198,-0.7008842,0.04627309,13.691563606262207,1.4737484455108643,-4.443049430847168,-9.931474685668945,223.15992736816406, 121.35713958740234
333,113888897,0.72905976,0.042783655,-0.680532,0.059310995,14.945170402526855,1.8304635286331177,-5.15885066986084,-21.28784942626953,201.7587432861328, 130.09962463378906
334,113905564,0.7470625,0.025999727,-0.6602506,0.07273916,15.292607307434082,1.9994770288467407,-6.435673236846924,-18.348674774169922,193.1554412841797, 132.2570037841797
335,113922231,0.7641286,0.012603284,-0.6388726,0.08826419,15.037062644958496,2.8073840141296387,-6.981671333312988,9.293404579162598,193.3070068359375, 127.95162963867188
336,113938898,0.77922183,0.0046860105,-0.61783564,0.10521689,13.671953201293945,4.142420768737793,-8.349390029907227,44.32594680786133,179.74440002441406, 112.65479278564453
337,113955565,0.7910657,0.0017850704,-0.5997226,0.12060254,13.158419609069824,5.713849067687988,-10.778275489807129,62.54074478149414,146.70152282714844, 85.45233154296875
338,113972232,0.7981348,0.00031560965,-0.58783984,0.1320045,12.113372802734375,6.638540744781494,-13.767348289489746,48.79875946044922,92.018798828125, 61.9913444519043
339,113988899,0.80038613,-0.0012491341,-0.58326393,0.13850592,10.6044282913208,6.1244306564331055,-15.530895233154297,21.859956741333008,32.682350158691406, 39.95319366455078
340,114005566,0.7993752,0.0008005346,-0.583959,0.14138894,9.487325668334961,4.172187328338623,-14.183773040771484,22.210254669189453,-12.653230667114258, 8.679556846618652
341,114022233,0.79678553,0.0070482274,-0.5868849,0.14369987,8.840743064880371,2.5672428607940674,-10.779365539550781,40.84538269042969,-35.198062896728516, -9.725629806518555
342,114038900,0.79291177,0.017574048,-0.59111834,0.14683841,7.885195255279541,3.229746103286743,-8.055727005004883,66.40673828125,-51.62962341308594, -21.09884262084961
343,114055567,0.7904575,0.029437039,-0.5930537,0.15032569,13.180147171020508,3.263798952102661,3.6804723739624023,77.26753234863281,-34.571556091308594, -26.322219848632812
344,114072234,0.7858149,0.04311732,-0.5961717,0.15879382,12.323959350585938,0.6741663217544556,6.812994480133057,106.66378784179688,-50.81365966796875, -4.141252517700195
345,114088901,0.7765971,0.054143067,-0.60886896,0.1524617,11.827042579650879,7.868583679199219,1.7033567428588867,22.538061141967773,-122.86653900146484, -65.3947525024414
346,114105568,0.76660377,0.050977763,-0.62540567,0.13633749,13.976409912109375,1.3084640502929688,-0.8416154384613037,-97.98649597167969,-135.40342712402344, -55.963829040527344
347,114122235,0.75690633,0.049537506,-0.6383224,0.13108574,11.700079917907715,0.4001672565937042,-4.128157138824463,-38.84006881713867,-112.84429168701172, -7.602476119995117
348,114138902,0.750887,0.048726045,-0.6460298,0.12821986,11.21519947052002,-1.8238812685012817,-0.5921206474304199,-21.641355514526367,-69.31610870361328, -3.034559488296509
349,114155569,0.74497914,0.04970605,-0.6531029,0.12645966,9.456588745117188,-0.007958532311022282,1.4092224836349487,-6.952486038208008,-66.76033782958984, -5.615264415740967
350,114172236,0.7390482,0.051058736,-0.65996903,0.12506795,10.5441312789917,-1.3614857196807861,0.29574668407440186,-3.201150417327881,-66.02938842773438, -5.4601616859436035
351,114188903,0.7341335,0.05559805,-0.66451997,0.12794648,10.214397430419922,-1.0121474266052246,0.6056644916534424,34.004756927490234,-50.90850830078125, 0.07274742424488068
352,114205570,0.72962856,0.06091803,-0.66819227,0.13209951,9.697218894958496,-1.2072535753250122,0.7948988080024719,44.38502502441406,-44.816280364990234, 2.2246155738830566
353,114222237,0.72522867,0.065605104,-0.671985,0.13481757,9.501444816589355,-0.3667390048503876,1.1257119178771973,34.464599609375,-44.98179626464844, -2.129642963409424
354,114238904,0.72062016,0.06796173,-0.67667985,0.1348795,10.203536033630371,0.16157203912734985,0.9248808026313782,9.827522277832031,-49.50233459472656, -4.016030788421631
355,114255571,0.7155262,0.06920305,-0.68206865,0.13422352,10.170196533203125,-0.7505673766136169,0.646220862865448,0.5459339618682861,-54.51902770996094, -1.6116063594818115
356,114272238,0.71017444,0.07182431,-0.6872793,0.13468744,9.68293285369873,-1.2115068435668945,0.4837568998336792,12.873290061950684,-55.608829498291016, -2.429520606994629
357,114288905,0.7051053,0.075936384,-0.69171935,0.1363248,9.937952041625977,-0.7830579876899719,0.36265695095062256,26.270418167114258,-51.326560974121094, -4.400339126586914
358,114305572,0.70013374,0.080805875,-0.6958332,0.13820137,10.07795238494873,0.18162718415260315,0.34147849678993225,31.333038330078125,-49.87942886352539, -7.114284038543701
359,114322239,0.695151,0.0840364,-0.7003821,0.13844901,9.744682312011719,0.1616395264863968,0.2941943109035492,15.243583679199219,-51.38789367675781, -6.863287448883057
360,114338906,0.68998367,0.08614759,-0.7052236,0.13842379,9.700393676757812,-0.9497690200805664,0.09702643007040024,8.407139778137207,-52.7799186706543, -2.433640956878662
361,114355573,0.68493026,0.0887614,-0.7097008,0.13898464,10.070444107055664,-1.2023131847381592,-0.12096120417118073,13.913627624511719,-50.642757415771484, -2.4235358238220215
362,114372240,0.6800109,0.09241179,-0.71379334,0.1398016,9.866968154907227,-1.0302635431289673,-0.1898564100265503,20.326156616210938,-49.02113723754883, -6.648714542388916
363,114388907,0.6749913,0.09712474,-0.7176574,0.14114372,9.73241138458252,-1.0651895999908447,-0.19188398122787476,28.15505599975586,-49.14335250854492, -9.465705871582031
364,114405574,0.6699074,0.102155015,-0.7215293,0.14207076,9.729377746582031,-0.601453959941864,-0.39092209935188293,27.61338233947754,-50.09257125854492, -12.898956298828125
365,114422241,0.66448694,0.10714625,-0.7256753,0.14273281,9.84810733795166,-0.5227903127670288,-0.4604191184043884,26.086687088012695,-53.18084716796875, -13.409562110900879
366,114438908,0.6584656,0.11241408,-0.730308,0.14295685,9.797284126281738,-0.26168370246887207,-0.37860411405563354,25.12937355041504,-59.00530242919922, -15.84695053100586
367,114455575,0.6518544,0.1170918,-0.73567325,0.14198774,9.870603561401367,-0.15829335153102875,-0.6850770711898804,16.2012882232666,-65.63617706298828, -17.141324996948242
368,114472242,0.6448748,0.12110841,-0.7414997,0.14016944,10.103842735290527,0.0464964434504509,-1.0174615383148193,8.787322044372559,-69.61339569091797, -16.87317657470703
369,114488909,0.63765216,0.12386225,-0.7477432,0.13761559,10.21390438079834,0.18968167901039124,-1.0687358379364014,-0.7584190964698792,-72.10411834716797, -13.114704132080078
370,114505576,0.63018507,0.12507758,-0.75454885,0.13371079,9.908071517944336,-0.037548378109931946,-1.0654979944229126,-14.773706436157227,-75.52973175048828, -10.41540813446045
371,114522243,0.62214845,0.12535028,-0.76210904,0.12809512,9.83432388305664,-0.16741594672203064,-1.7272459268569946,-27.937911987304688,-82.36707305908203, -11.765628814697266
372,114538910,0.6136315,0.12534957,-0.77000177,0.12182552,10.104578971862793,-0.2687586545944214,-1.9961020946502686,-32.41229248046875,-86.63604736328125, -12.421387672424316
373,114555577,0.6048751,0.12547755,-0.7778745,0.11529405,10.268547058105469,-0.5068480372428894,-1.8140740394592285,-33.03280258178711,-88.15907287597656, -14.026087760925293
374,114572244,0.5959211,0.1264589,-0.78557336,0.1084478,10.628931999206543,-0.6580535769462585,-1.8512860536575317,-30.861513137817383,-89.44966888427734, -19.896224975585938
375,114588911,0.5878353,0.12917304,-0.79202265,0.10229586,11.126909255981445,0.04187498986721039,-1.9274768829345703,-19.835405349731445,-80.3397216796875, -28.149921417236328
376,114605578,0.5799749,0.13373275,-0.79775107,0.096633136,10.852368354797363,1.2827426195144653,-2.1300699710845947,-9.402653694152832,-77.0752944946289, -37.02330017089844
377,114622245,0.5713121,0.13880968,-0.8037803,0.09095011,11.430678367614746,1.2994495630264282,-2.1355879306793213,-6.9136762619018555,-83.05078125, -39.12342071533203
378,114638912,0.5621681,0.14458315,-0.8098774,0.084626436,12.527181625366211,0.8780390024185181,-1.7774252891540527,-7.3012776374816895,-87.03932189941406, -45.11656951904297
379,114655579,0.55186224,0.15279718,-0.8161117,0.07786771,13.567570686340332,1.5717263221740723,-1.3250470161437988,0.788989782333374,-95.9164047241211, -59.57588195800781
380,114672246,0.5398359,0.16377535,-0.82259095,0.07141051,15.094355583190918,1.0220504999160767,-0.41791796684265137,14.648036003112793,-107.69599151611328, -72.75933837890625
381,114688913,0.526224,0.17583433,-0.82952034,0.06377045,17.112709045410156,1.6474595069885254,2.150718927383423,13.535286903381348,-120.24420928955078, -81.97969055175781
382,114705580,0.51229376,0.18405434,-0.8374127,0.04918704,19.35761070251465,1.0986491441726685,5.7919206619262695,-39.990116119384766,-132.33734130859375, -83.90398406982422
383,114722247,0.4975497,0.18597399,-0.8468247,0.02731501,18.34732437133789,-0.6550281047821045,6.166993141174316,-103.63395690917969,-149.59405517578125, -71.11944580078125
384,114738914,0.47711954,0.18680488,-0.85874724,0.0037856323,14.378844261169434,-2.58565616607666,2.761425256729126,-110.2152328491211,-193.3377685546875, -66.211181640625
385,114755581,0.45102242,0.1890347,-0.8720045,-0.021285882,12.42616081237793,-0.8892470598220825,-8.476926803588867,-107.5013427734375,-233.28956604003906, -77.7284927368164
386,114772248,0.42869353,0.19211033,-0.8816233,-0.045343455,15.965276718139648,-0.08498567342758179,-12.425810813903809,-104.23905944824219,-197.94241333007812, -83.86751556396484
387,114788915,0.41694754,0.19125491,-0.886306,-0.06354761,13.095410346984863,-1.4323927164077759,-0.580190122127533,-95.8668212890625,-112.69546508789062, -46.0413932800293
388,114805582,0.40774184,0.18555973,-0.8906458,-0.07787554,7.637569427490234,-7.3042521476745605,9.932154655456543,-89.6272964477539,-93.30606079101562, -4.8170857429504395
389,114822249,0.40477005,0.18155113,-0.8923718,-0.082905516,5.828584671020508,-7.013904571533203,9.53612232208252,-37.3409538269043,-35.131385803222656, 10.859140396118164
390,114838916,0.40959996,0.17562674,-0.890873,-0.087914385,7.371254920959473,-4.776986122131348,7.782842636108398,-54.14666748046875,20.563274383544922, 23.037841796875
391,114855583,0.4222248,0.16775568,-0.88686544,-0.08399137,6.3984246253967285,-5.432329177856445,6.505661487579346,-15.865825653076172,84.9074478149414, 61.7525749206543
392,114872250,0.4421025,0.16063878,-0.8795561,-0.071568765,6.167902946472168,-4.101513385772705,5.69704008102417,27.859743118286133,148.9039764404297, 82.1717529296875
393,114888917,0.46861672,0.15363348,-0.8680076,-0.05795127,7.475055694580078,-1.7998398542404175,5.108573913574219,25.999895095825195,203.25868225097656, 83.68685913085938
394,114905584,0.499726,0.14387581,-0.8529276,-0.045698244,9.041580200195312,0.1887224018573761,3.7953386306762695,2.724776268005371,239.48370361328125, 93.80352783203125
395,114922251,0.5329661,0.13099661,-0.83523846,-0.03411714,10.240924835205078,0.8835046291351318,2.1016745567321777,-14.864286422729492,259.263671875, 107.88101196289062
396,114938918,0.5665379,0.11687657,-0.8154126,-0.021846542,12.33621597290039,1.637992262840271,0.3675200641155243,-16.24784278869629,269.2998352050781, 115.67829895019531
397,114955585,0.59947085,0.102450795,-0.7937611,-0.009063325,14.363371849060059,2.4863529205322266,-1.6627106666564941,-14.316239356994629,273.1756286621094, 117.81794738769531
398,114972252,0.63020104,0.08759257,-0.7714653,0.00396194,15.378559112548828,2.829728841781616,-3.0773656368255615,-13.264819145202637,263.9433898925781, 120.58525848388672
399,114988919,0.6581543,0.073459394,-0.7490805,0.0177676,15.111425399780273,1.6019973754882812,-3.9342589378356934,-4.307188510894775,250.05812072753906, 120.14898681640625
400,115005586,0.6829837,0.06067298,-0.7271565,0.033106126,13.902810096740723,1.124456524848938,-4.323885917663574,11.210956573486328,232.51901245117188, 120.76688385009766
401,115022253,0.7046481,0.047686156,-0.7062673,0.04882794,14.361042022705078,1.35271155834198,-4.629380702972412,13.266279220581055,212.08314514160156, 124.7293930053711
402,115038920,0.7236139,0.034614485,-0.68626964,0.06495272,15.202526092529297,1.2072430849075317,-4.7487406730651855,15.392669677734375,194.87506103515625, 128.30934143066406
403,115055587,0.7401637,0.023700848,-0.6669523,0.082285106,15.111766815185547,0.8056135773658752,-5.026747703552246,32.10210418701172,179.47927856445312, 125.39765930175781
404,115072254,0.7556931,0.0138051575,-0.6470496,0.10032348,14.883312225341797,1.4078248739242554,-6.104920387268066,41.0225715637207,177.3980712890625, 124.83334350585938
405,115088921,0.7712341,0.0046646944,-0.62548983,0.11806304,14.656275749206543,2.824779748916626,-8.366195678710938,44.77169418334961,185.6126708984375, 119.79817199707031
406,115105588,0.78608257,-0.00027222527,-0.60244507,0.13832757,14.069820404052734,3.914659023284912,-8.35573959350586,56.632999420166016,190.3877716064453, 109.41211700439453
407,115122255,0.7968001,-0.0032325173,-0.5840916,0.15471531,10.633665084838867,6.647332668304443,-10.475778579711914,56.840641021728516,145.1033172607422, 86.36661529541016
408,115138922,0.80123127,-0.0056139054,-0.57602084,0.16185601,10.248201370239258,8.684768676757812,-14.193933486938477,24.204811096191406,61.22806930541992, 44.11206817626953
409,115155589,0.8013572,-0.0062271003,-0.57529444,0.16378222,10.553543090820312,6.461029052734375,-13.798018455505371,4.973702430725098,2.1339173316955566, 13.00582504272461
410,115172256,0.7989732,-0.0037248963,-0.57847005,0.16432,8.713520050048828,3.6732935905456543,-10.355313301086426,12.169854164123535,-32.5706901550293, -4.217660427093506
411,115188923,0.79536384,0.0011622731,-0.58336794,0.16455163,8.069206237792969,2.1699059009552,-7.464681625366211,22.09817123413086,-49.465789794921875, -13.995203018188477
412,115205590,0.7908051,0.0073933024,-0.5893682,0.16497906,8.180901527404785,1.8321266174316406,-5.458486080169678,29.00969886779785,-60.733551025390625, -17.202241897583008
413,115222257,0.7866713,0.015404974,-0.59456956,0.16552393,11.032652854919434,1.2214215993881226,0.9446865320205688,40.06367874145508,-56.61637878417969, -24.281761169433594
414,115238924,0.78279054,0.028656242,-0.59744596,0.171687,16.38399887084961,-1.7744433879852295,6.141449451446533,93.98779296875,-48.369136810302734, -15.83739185333252
415,115255591,0.773412,0.046088353,-0.60982877,0.16679011,14.109155654907227,9.844432830810547,0.5231248140335083,60.91443634033203,-129.2672576904297, -84.19377899169922
416,115272258,0.7621367,0.04411405,-0.62803847,0.15089601,14.046317100524902,0.6785665154457092,-0.5773255825042725,-94.50215911865234,-149.4298095703125, -57.1766242980957
417,115288925,0.75106156,0.044987287,-0.6417478,0.14846838,10.65207290649414,-1.1626207828521729,-4.26625919342041,-16.801189422607422,-123.8321533203125, -0.45952990651130676
418,115305592,0.7442114,0.048958424,-0.6493032,0.14885563,10.690058708190918,-2.1246256828308105,-0.2462264597415924,16.610004425048828,-75.65953063964844, -5.825067043304443
419,115322259,0.7376884,0.054374106,-0.65596384,0.15023682,9.08559513092041,0.03973473981022835,1.3842253684997559,29.254085540771484,-70.76831817626953, -7.85333776473999
420,115338926,0.7309356,0.058209293,-0.6632756,0.1497019,10.28692626953125,-0.3473375737667084,0.3953675627708435,12.005728721618652,-74.21492767333984, -9.972813606262207
421,115355593,0.7248953,0.062446404,-0.6692163,0.15092085,10.547412872314453,-0.49624770879745483,0.5807580947875977,23.15789031982422,-63.80085372924805, -4.283819675445557
422,115372260,0.7184513,0.06590425,-0.675607,0.15178883,10.496129989624023,-1.087358832359314,0.3667813539505005,17.363378524780273,-67.25899505615234, -1.847577691078186
423,115388927,0.71214545,0.069802,-0.68169594,0.15253769,9.757960319519043,-0.6962530612945557,0.5547535419464111,19.238662719726562,-65.65526580810547, -4.7765913009643555
424,115405594,0.7063192,0.073552415,-0.68717355,0.15328453,9.742103576660156,-0.47870299220085144,0.6208537220954895,18.918733596801758,-60.27910614013672, -4.905375003814697
425,115422261,0.7003783,0.07795799,-0.692617,0.1538671,9.909751892089844,-0.5580803751945496,0.5791093111038208,21.416160583496094,-61.446834564208984, -8.705363273620605
426,115438928,0.6938014,0.0824365,-0.69856125,0.15445538,10.101919174194336,-0.5227737426757812,0.09047932922840118,21.60745620727539,-66.9810791015625, -8.094614028930664
427,115455595,0.68718034,0.087336384,-0.7041406,0.15601923,10.624714851379395,-0.41789010167121887,-0.2944771945476532,28.714515686035156,-65.36237335205078, -5.634268760681152
428,115472262,0.6812623,0.092641875,-0.70870334,0.15823734,10.270085334777832,-0.15413865447044373,-0.22920331358909607,34.46688461303711,-57.20927810668945, -5.879449367523193
429,115488929,0.67616194,0.09668691,-0.7127167,0.15966241,9.78795337677002,-0.44385117292404175,-0.2332538664340973,24.773265838623047,-49.79947280883789, -4.697087287902832
430,115505596,0.6716147,0.09936762,-0.71646315,0.16043805,9.601642608642578,-0.7911718487739563,0.041163258254528046,15.175561904907227,-44.79515075683594, -1.8224092721939087
431,115522263,0.666829,0.10104592,-0.72084254,0.15973471,9.735605239868164,-0.6600310206413269,-0.07538770884275436,2.7232487201690674,-48.81570053100586, -3.027472734451294
432,115538930,0.6616145,0.10227968,-0.72592807,0.15758783,9.9246187210083,-0.9739444255828857,-0.4206019341945648,-6.948659420013428,-54.711368560791016, -6.487536430358887
433,115555597,0.6560008,0.10401145,-0.7312752,0.15518212,9.74561595916748,-1.0006722211837769,-0.5373758673667908,-5.978590488433838,-58.62886047363281, -9.542449951171875
434,115572264,0.64981884,0.106107056,-0.736955,0.15288778,9.777186393737793,-0.8337501883506775,-0.675021767616272,-3.7297370433807373,-63.30937957763672, -10.03372859954834
435,115588931,0.64346695,0.10847822,-0.74267703,0.15037951,9.858648300170898,-0.6649370193481445,-0.9475637078285217,-3.5022060871124268,-64.81768798828125, -12.18405818939209
436,115605598,0.6369178,0.11135188,-0.74838716,0.1478285,9.808833122253418,-0.6075471639633179,-1.0379188060760498,-1.341755747795105,-66.33536529541016, -14.749044418334961
437,115622265,0.62997526,0.11448949,-0.75429183,0.14514637,10.025190353393555,-0.3699796199798584,-1.2177910804748535,-0.7552297115325928,-69.59237670898438, -16.137983322143555
438,115638932,0.6227124,0.11687644,-0.76058793,0.14168878,10.150217056274414,-0.14943423867225647,-1.4829919338226318,-8.167743682861328,-72.82264709472656, -14.978217124938965
439,115655599,0.6150746,0.11811643,-0.7673445,0.1375296,10.069875717163086,-0.06884875893592834,-1.731452226638794,-16.896223068237305,-76.21220397949219, -11.249472618103027
440,115672266,0.60695416,0.11851981,-0.77460706,0.13245402,9.92817211151123,-0.32540491223335266,-1.7600181102752686,-25.352575302124023,-80.86138153076172, -9.843545913696289
441,115688933,0.5985407,0.11848433,-0.7821631,0.12622106,10.08475112915039,-0.5175264477729797,-1.660306692123413,-33.37631607055664,-84.2015609741211, -11.832877159118652
442,115705600,0.5897808,0.11861825,-0.7898682,0.119151354,10.40165901184082,-0.5315036773681641,-1.9913854598999023,-37.02765655517578,-87.52288818359375, -15.76862907409668
443,115722267,0.5809366,0.11957374,-0.7972521,0.11226843,10.679197311401367,-0.0838477835059166,-2.292076349258423,-32.35198211669922,-87.2133560180664, -19.669925689697266
444,115738934,0.57178324,0.12221342,-0.80427647,0.10614915,10.86374282836914,0.5358070135116577,-2.304330348968506,-20.906097412109375,-88.1577377319336, -25.910425186157227
445,115755601,0.5621564,0.12659469,-0.81105846,0.10068931,10.975601196289062,0.7112069129943848,-2.491053342819214,-9.836549758911133,-90.55757141113281, -32.80325698852539
446,115772268,0.552521,0.1316431,-0.8175257,0.095094785,11.5554838180542,0.5598098635673523,-2.586832284927368,-7.781989097595215,-89.98396301269531, -37.3084831237793
447,115788935,0.54273534,0.13699016,-0.82389444,0.08871616,12.117981910705566,0.41046327352523804,-2.127883195877075,-10.849929809570312,-91.3790283203125, -41.95732498168945
448,115805602,0.5318253,0.14384328,-0.8306009,0.08107876,13.234694480895996,1.5479739904403687,-1.6096891164779663,-11.512923240661621,-101.14363861083984, -54.181495666503906
449,115822269,0.5193978,0.15326989,-0.8374926,0.07308021,15.036587715148926,0.9937819242477417,-0.6889805793762207,-2.760910987854004,-112.32210540771484, -69.16520690917969
450,115838936,0.505225,0.16413882,-0.84482795,0.063813604,16.63195037841797,1.4379069805145264,1.4405696392059326,-3.29160737991333,-126.07942199707031, -80.65777587890625
451,115855603,0.48914504,0.17463382,-0.8529778,0.051665653,19.011333465576172,1.1626250743865967,4.377214431762695,-19.531522750854492,-143.16928100585938, -86.73939514160156
452,115872270,0.47254074,0.1801622,-0.86208445,0.032520257,18.44452667236328,-0.5974118113517761,6.360275745391846,-76.97928619384766,-156.2404327392578, -79.82546997070312
453,115888937,0.4540634,0.18008082,-0.87255,0.0073656533,15.89681339263916,-2.35591197013855,3.585740327835083,-128.82254028320312,-178.11444091796875, -64.03536987304688
454,115905604,0.42686695,0.18359324,-0.8853134,-0.01727784,13.64339542388916,-0.9198092222213745,-6.517405033111572,-103.87113952636719,-237.2875518798828, -80.78177642822266
455,115922271,0.40115458,0.18934228,-0.89526254,-0.0415925,15.73694133758545,-0.15127132833003998,-10.768234252929688,-97.51631164550781,-219.32286071777344, -96.85995483398438
456,115938938,0.3910234,0.1915674,-0.8981131,-0.061610222,16.878877639770508,-3.877084493637085,-3.1121606826782227,-103.10335540771484,-99.21915435791016, -68.13863372802734
457,115955605,0.3817932,0.18949097,-0.9015376,-0.07454733,8.379755020141602,-6.0263166427612305,6.592020511627197,-71.92820739746094,-87.77842712402344, -21.473939895629883
458,115972272,0.3783453,0.18646531,-0.90337104,-0.077502206,7.580528259277344,-8.933463096618652,10.094416618347168,-20.925811767578125,-35.33182907104492, 11.436148643493652
459,115988939,0.38430032,0.18241338,-0.9019099,-0.07481767,7.943212032318115,-7.120336532592773,11.351889610290527,-2.432229518890381,38.20615005493164, 33.19560623168945
460,116005606,0.39832494,0.17687531,-0.8975644,-0.06656537,6.03029203414917,-5.443868160247803,7.9900336265563965,16.528465270996094,101.9638900756836, 57.600154876708984
461,116022273,0.42102227,0.17023852,-0.88922614,-0.055103414,6.628136157989502,-2.3447413444519043,6.913952350616455,20.925704956054688,169.74998474121094, 72.2492446899414
462,116038940,0.45126376,0.16120408,-0.8767147,-0.04178425,8.041585922241211,-1.060662031173706,6.020613670349121,14.923181533813477,229.16775512695312, 90.24334716796875
463,116055607,0.48674583,0.14937061,-0.8601855,-0.029119909,8.922414779663086,1.0113976001739502,3.9608378410339355,-4.678127765655518,271.6449279785156, 102.12458801269531
464,116072274,0.5249206,0.1338235,-0.8403331,-0.019750977,10.393743515014648,1.976895809173584,2.1851468086242676,-40.032066345214844,294.5292663574219, 110.17497253417969
465,116088941,0.56304693,0.11595234,-0.8181864,-0.010226449,13.206181526184082,1.831565499305725,0.1183570921421051,-47.78510284423828,302.3285827636719, 122.03388214111328
466,116105608,0.5998555,0.098150834,-0.79406494,0.00094897195,15.495758056640625,2.500932455062866,-2.003849506378174,-37.31631851196289,303.85693359375, 126.34608459472656
467,116122275,0.63342583,0.08036401,-0.7695167,0.01255885,16.557565689086914,3.433495044708252,-3.5688533782958984,-32.684722900390625,288.22027587890625, 127.77327728271484
468,116138942,0.6630055,0.0628064,-0.74556637,0.024696482,16.019420623779297,2.4358551502227783,-4.219570159912109,-26.747440338134766,264.78302001953125, 129.53759765625
469,116155609,0.68882936,0.045968506,-0.72249305,0.03748388,14.556375503540039,2.2863481044769287,-5.307333469390869,-18.67192268371582,241.72817993164062, 129.8289794921875
470,116172276,0.7112152,0.02877445,-0.7006009,0.050035447,15.257064819335938,3.1698691844940186,-6.3880109786987305,-20.754186630249023,219.1404266357422, 131.75247192382812
471,116188943,0.7310283,0.010857995,-0.6794258,0.06213398,16.119626998901367,3.544750928878784,-7.505661964416504,-26.198286056518555,203.49896240234375, 134.0754852294922
472,116205610,0.7486912,-0.0054500387,-0.6585842,0.07549117,14.934141159057617,2.8435587882995605,-7.218891143798828,-12.217985153198242,191.3055419921875, 133.8776397705078
473,116222277,0.76511467,-0.017120095,-0.63715535,0.09132147,13.333666801452637,3.111462116241455,-7.25823450088501,23.130704879760742,186.3400421142578, 126.32450103759766
474,116238944,0.780306,-0.023692567,-0.6155468,0.1079981,12.850939750671387,4.725518703460693,-9.13325023651123,53.633995056152344,178.71412658691406, 109.30352783203125
475,116255611,0.79399896,-0.027747808,-0.59526396,0.120236725,12.645626068115234,6.102845668792725,-10.770821571350098,66.08052062988281,161.2422332763672, 81.66766357421875
476,116272278,0.802535,-0.026960026,-0.5809685,0.13299061,11.264230728149414,7.600792407989502,-13.576830863952637,54.44893264770508,109.2522201538086, 56.55068588256836
477,116288945,0.80517465,-0.02583648,-0.5754982,0.14081337,10.417027473449707,7.955750465393066,-16.038715362548828,31.18773078918457,37.26322937011719, 32.90300369262695
478,116305612,0.80352986,-0.023258228,-0.57722235,0.1435742,8.905203819274902,5.798617839813232,-15.197973251342773,14.482356071472168,-20.33289337158203, 3.23063325881958
479,116322279,0.7994574,-0.017686067,-0.583024,0.14365962,8.190016746520996,3.0255439281463623,-12.533601760864258,17.038593292236328,-55.055084228515625, -21.106487274169922
480,116338946,0.7949223,-0.007778937,-0.5890729,0.1450222,8.054298400878906,3.018275022506714,-8.597390174865723,45.31711196899414,-62.57071304321289, -30.989572525024414
481,116355613,0.7951722,-0.0012894821,-0.5878233,0.14887393,17.13672637939453,-3.636145830154419,15.557655334472656,43.49995040893555,0.11925993114709854, -8.083128929138184
482,116372280,0.78725535,0.022656566,-0.5949602,0.1604315,9.898399353027344,4.152017593383789,-0.9255235195159912,162.7714385986328,-97.15631866455078, -27.695091247558594
483,116388947,0.7748887,0.028086267,-0.61574537,0.14005952,18.84188461303711,8.849559783935547,-0.4468252956867218,-81.28791809082031,-174.10293579101562, -117.04473114013672
484,116405614,0.76412755,0.022939945,-0.6311187,0.13142377,12.893451690673828,0.7595263719558716,-2.4329442977905273,-76.90142059326172,-126.67595672607422, -10.352434158325195
485,116422281,0.753136,0.017236883,-0.64574575,0.124505736,9.839069366455078,-2.1113035678863525,-2.6881167888641357,-71.63726806640625,-122.95030212402344, 1.1990221738815308
486,116438948,0.7457377,0.015602588,-0.65545624,0.11836133,9.317341804504395,-3.2663419246673584,-0.6306492686271667,-43.3220100402832,-84.90324401855469, -16.537973403930664
487,116455615,0.7387222,0.017107451,-0.6640106,0.114398405,10.030318260192871,-0.9035995602607727,0.8070562481880188,-16.48674964904785,-79.5745620727539, -19.975210189819336
488,116472282,0.7329597,0.020662853,-0.6703731,0.11376916,11.463652610778809,-1.1377251148223877,0.09816017001867294,10.728487014770508,-63.959983825683594, -13.664112091064453
489,116488949,0.727738,0.025989471,-0.6755654,0.11547099,10.395367622375488,-1.2442951202392578,0.44388049840927124,31.241872787475586,-56.633338928222656, -10.688724517822266
490,116505616,0.7227509,0.030947885,-0.6803346,0.117551215,10.438874244689941,-0.4699849486351013,0.6648288369178772,31.451610565185547,-53.07882308959961, -7.37103796005249
491,116522283,0.7184026,0.033365857,-0.6847619,0.11783832,9.936823844909668,0.9470964670181274,1.0711145401000977,10.583568572998047,-46.73892593383789, -4.999563694000244
492,116538950,0.7142078,0.032833513,-0.6895789,0.11537007,10.281560897827148,0.2349606305360794,0.7735003232955933,-17.314231872558594,-46.2108154296875, -4.7477264404296875
493,116555617,0.7099414,0.03213295,-0.6945196,0.112220146,10.21014404296875,-0.7147276401519775,0.3669407367706299,-21.453824996948242,-47.20237731933594, -7.212310314178467
494,116572284,0.70634925,0.031939942,-0.69850224,0.11020585,10.388371467590332,-1.108995795249939,0.040059104561805725,-12.963397026062012,-39.46933364868164, -4.834465026855469
495,116588951,0.7032481,0.032805398,-0.70163196,0.109902926,10.492898941040039,-0.5977744460105896,0.10417655110359192,0.934873640537262,-33.40947723388672, -2.181544542312622
496,116605618,0.69989824,0.033613026,-0.7049619,0.10973355,10.092488288879395,0.11664780229330063,0.3080616891384125,1.2036677598953247,-35.52008056640625, -1.0334386825561523
497,116622285,0.6964632,0.032851964,-0.7086493,0.108055264,9.596084594726562,-0.11340486258268356,0.4265214204788208,-13.90869426727295,-36.83756637573242, -0.545361340045929
498,116638952,0.6930317,0.031094503,-0.7124903,0.10534674,9.571025848388672,-0.844521164894104,0.3027176260948181,-23.816001892089844,-37.07081985473633, -0.5946797132492065
499,116655619,0.6893998,0.02953084,-0.716557,0.10199048,9.770273208618164,-1.3759623765945435,0.14348065853118896,-26.185569763183594,-39.42854690551758, -4.446963787078857
500,116672286,0.6853794,0.028944185,-0.7209435,0.09827568,9.65131950378418,-1.6493064165115356,0.08710847049951553,-23.468332290649414,-43.63636016845703, -10.637843132019043
501,116688953,0.6809828,0.029514845,-0.72552097,0.09492602,9.464912414550781,-1.6369198560714722,-0.08021975308656693,-16.26064682006836,-47.12892150878906, -14.380118370056152
502,116705620,0.6763546,0.031175435,-0.73015386,0.09191474,9.41644287109375,-1.5336370468139648,-0.3004828691482544,-9.461668968200684,-49.20306396484375, -18.089021682739258
503,116722287,0.67146415,0.034093045,-0.7348457,0.089306325,9.49418830871582,-1.5067394971847534,-0.40941041707992554,-1.5785921812057495,-51.5151481628418, -22.365501403808594
504,116738954,0.6660787,0.038109887,-0.7397968,0.08710712,9.565946578979492,-1.1583781242370605,-0.7273125052452087,5.520615577697754,-55.80613327026367, -25.683425903320312
505,116755621,0.6601017,0.043006297,-0.74504185,0.085609056,9.497688293457031,-0.9087949991226196,-1.0840047597885132,13.089982986450195,-60.51326370239258, -26.529573440551758
506,116772288,0.6533736,0.048825752,-0.7506844,0.084806755,9.46975040435791,-0.6337808966636658,-1.3373892307281494,20.83216094970703,-66.50941467285156, -27.553354263305664
507,116788955,0.64565426,0.055420157,-0.7569506,0.08417332,9.564780235290527,-0.5046361088752747,-1.315093755722046,25.153972625732422,-74.82785034179688, -30.017362594604492
508,116805622,0.636877,0.06304699,-0.76380235,0.083779894,9.802931785583496,0.0963369607925415,-1.2781932353973389,31.05037498474121,-83.44664001464844, -33.49918746948242
509,116822289,0.6273386,0.070500076,-0.7711684,0.08231371,10.251005172729492,0.5298669338226318,-1.3674519062042236,24.689990997314453,-90.0701675415039, -36.62620544433594
510,116838956,0.6174585,0.07740694,-0.7786831,0.080037795,10.659737586975098,0.6881990432739258,-1.403355360031128,18.12420654296875,-92.61793518066406, -36.95624923706055
511,116855623,0.60737157,0.08387324,-0.7861752,0.07741982,10.769710540771484,0.6778820753097534,-1.5103729963302612,14.547200202941895,-93.58455657958984, -35.945377349853516
512,116872290,0.59667754,0.09033585,-0.79390633,0.07435244,10.76815414428711,0.7995259761810303,-1.8149163722991943,12.328895568847656,-98.13867950439453, -37.3402099609375
513,116888957,0.585572,0.09693887,-0.8016803,0.07083083,11.322086334228516,0.8609665036201477,-1.9598636627197266,10.663416862487793,-100.93128967285156, -39.73194122314453
514,116905624,0.5743751,0.10348042,-0.80929047,0.066588484,11.500885963439941,1.1112771034240723,-1.8960323333740234,6.584761142730713,-101.24581146240234, -42.35761260986328
515,116922291,0.5628023,0.10995961,-0.8169523,0.061249126,12.217193603515625,1.2122902870178223,-1.8148610591888428,0.4835962951183319,-104.31743621826172, -46.132102966308594
516,116938958,0.5506793,0.117169306,-0.8246147,0.055086516,13.44073486328125,1.3457335233688354,-1.2128007411956787,-0.894274890422821,-108.37322998046875, -53.18717956542969
517,116955625,0.53748775,0.12699783,-0.8322677,0.04805517,16.232776641845703,0.7209404110908508,0.15705227851867676,4.96673583984375,-116.13516998291016, -70.92819213867188
518,116972292,0.5263734,0.13690388,-0.8382826,0.038352836,19.02536392211914,-0.15467724204063416,3.248950719833374,-11.301159858703613,-100.63121032714844, -83.36902618408203
519,116988959,0.51404274,0.14584795,-0.8448995,0.025169019,18.52804183959961,0.21814784407615662,5.196476936340332,-33.86846160888672,-112.9759750366211, -89.5610580444336
520,117005626,0.4952392,0.15401095,-0.854942,0.009651665,17.19529914855957,-0.014885526150465012,6.526147365570068,-44.280948638916016,-165.05245971679688, -88.74884033203125
521,117022293,0.46952412,0.15975645,-0.8682959,-0.009345822,15.24591064453125,-2.0032765865325928,3.5200932025909424,-65.8662338256836,-220.66259765625, -82.46802520751953
522,117038960,0.43872902,0.16663405,-0.8824569,-0.031938266,14.53797721862793,-0.4221816062927246,-7.594641208648682,-78.0514144897461,-257.6203308105469, -100.34654235839844
523,117055627,0.41293475,0.17330194,-0.89230686,-0.056920294,16.874162673950195,-0.4002576768398285,-11.708309173583984,-99.86601257324219,-217.05088806152344, -110.17737579345703
524,117072294,0.3990241,0.17532986,-0.8967735,-0.07639849,13.186959266662598,-2.6478843688964844,-1.1651307344436646,-95.55451202392578,-124.08831024169922, -67.8938217163086
525,117088961,0.3894547,0.17188783,-0.90055615,-0.08819581,8.550224304199219,-9.381261825561523,10.174551010131836,-68.8156967163086,-89.12947845458984, -11.710474967956543
526,117105628,0.38649198,0.17081662,-0.9021781,-0.08672135,5.580211162567139,-7.5955963134765625,8.99201774597168,10.533658027648926,-25.45670509338379, 10.50313949584961
527,117122295,0.3931209,0.16793467,-0.9000991,-0.08411691,7.422175884246826,-5.161856651306152,8.840558052062988,-0.7821422219276428,44.01493835449219, 26.0430850982666
528,117138962,0.40795067,0.16265845,-0.8953095,-0.074427046,6.264627456665039,-5.455932140350342,6.829731464385986,25.53494644165039,108.77603149414062, 61.57657241821289
529,117155629,0.43074024,0.1573505,-0.8866472,-0.059669532,6.204649925231934,-3.38519024848938,5.752460956573486,45.72991943359375,174.21034240722656, 75.690185546875
530,117172296,0.46033156,0.15163139,-0.87358004,-0.04427903,7.837644100189209,-1.2557748556137085,4.761530876159668,39.194252014160156,229.17938232421875, 78.07524108886719
531,117188963,0.49456814,0.14281675,-0.8567586,-0.03115181,9.314838409423828,0.9529362916946411,3.267299175262451,9.813694953918457,265.605712890625, 86.9926528930664
532,117205630,0.53089315,0.12992512,-0.8371567,-0.020997325,10.48317813873291,1.3497462272644043,1.5666184425354004,-24.208335876464844,283.52001953125, 98.61243438720703
533,117222297,0.5670044,0.115617916,-0.81548584,-0.011013395,13.067872047424316,1.5033820867538452,-0.32062745094299316,-30.459280014038086,289.44732666015625, 104.24382781982422
534,117238964,0.60166353,0.101673335,-0.79225224,0.00008230982,14.995272636413574,2.729025363922119,-2.394777297973633,-21.76491928100586,288.2806396484375, 105.17400360107422
535,117255631,0.6330376,0.087252684,-0.769094,0.012042585,15.599030494689941,3.062130928039551,-3.5225753784179688,-16.729393005371094,270.667724609375, 111.40005493164062
536,117272298,0.6608058,0.07313792,-0.74656874,0.024937725,14.802364349365234,1.174066424369812,-4.153713226318359,-8.348615646362305,249.3945770263672, 114.5412826538086
537,117288965,0.6853016,0.059668146,-0.724775,0.038766816,14.068411827087402,0.9854351282119751,-4.9194655418396,0.8978899717330933,229.67364501953125, 116.40106964111328
538,117305632,0.70745593,0.04550903,-0.70329297,0.05305086,15.047276496887207,1.6687359809875488,-5.452418804168701,0.7763051986694336,216.97775268554688, 122.74066925048828
539,117322299,0.7277587,0.029828556,-0.68183696,0.06764769,15.589250564575195,1.5400984287261963,-5.684175968170166,-4.546554088592529,208.6438446044922, 132.32681274414062
540,117338966,0.7457045,0.0148057435,-0.6609751,0.08257001,14.590255737304688,1.4288272857666016,-5.838829517364502,0.4744461178779602,194.48487854003906, 132.11715698242188
541,117355633,0.76167285,0.0031033417,-0.64045995,0.09826562,13.816789627075195,2.5335423946380615,-6.6357035636901855,21.016719818115234,182.0294647216797, 122.18389129638672
542,117372300,0.77688724,-0.0075092977,-0.6197215,0.11106408,13.911164283752441,3.089571237564087,-7.991237163543701,38.91120910644531,176.5406951904297, 108.7186050415039
543,117388967,0.7905449,-0.012534477,-0.59915507,0.12607609,13.025395393371582,3.7240712642669678,-8.735977172851562,53.28213119506836,167.44236755371094, 92.04156494140625
544,117405634,0.80085725,-0.015807396,-0.582377,0.13861802,11.178861618041992,5.261240005493164,-9.660588264465332,49.07545852661133,131.9265594482422, 74.05563354492188
545,117422301,0.80602974,-0.019644098,-0.5732053,0.14617251,10.294336318969727,6.508008003234863,-11.730320930480957,18.205907821655273,70.71534729003906, 53.02216720581055
546,117438968,0.8064919,-0.022545727,-0.57173645,0.14892942,10.288365364074707,5.650588035583496,-12.857343673706055,-3.8778374195098877,9.370733261108398, 26.557260513305664
547,117455635,0.8039704,-0.022703744,-0.5751374,0.14944287,9.495307922363281,3.327146053314209,-11.238420486450195,-2.9043495655059814,-31.61394500732422, 5.736208438873291
548,117472302,0.8001763,-0.019784352,-0.5802457,0.15047097,8.099801063537598,1.5734225511550903,-8.52249526977539,14.222551345825195,-49.14860153198242, -2.4784996509552
549,117488969,0.79658365,-0.013599671,-0.5847448,0.15278438,7.474156379699707,1.512763261795044,-6.294871807098389,38.00107192993164,-48.416011810302734, -8.524240493774414
550,117505636,0.79334134,-0.0014467961,-0.58814764,0.15713064,9.577681541442871,3.3991522789001465,-1.223249912261963,80.06647491455078,-47.36307144165039, -21.626970291137695
551,117522303,0.79133344,0.012782976,-0.5878572,0.1674884,16.839073181152344,-3.9419517517089844,11.33579158782959,119.704833984375,-24.482572555541992, 1.5072778463363647
552,117538970,0.78195226,0.038766246,-0.5977282,0.17253731,14.28702163696289,11.777447700500488,-0.7334644794464111,151.1420135498047,-123.66776275634766, -65.5508804321289
553,117555637,0.7702661,0.041163754,-0.6175078,0.15388387,16.437379837036133,3.2313919067382812,-1.055847406387329,-84.26787567138672,-164.70191955566406, -90.52367401123047
554,117572304,0.75917035,0.04219705,-0.6314661,0.15208769,10.12119197845459,-3.0812129974365234,-2.6710166931152344,-13.910612106323242,-125.09154510498047, 2.3440451622009277
555,117588971,0.7509861,0.048726726,-0.6400829,0.15472475,10.149123191833496,-2.0685312747955322,-0.5302711725234985,38.8054084777832,-88.9883804321289, -3.01310133934021
556,117605638,0.74512297,0.057505336,-0.6452608,0.1585052,8.519769668579102,-0.12759962677955627,0.46731072664260864,58.33705520629883,-63.01157760620117, -10.66501235961914
557,117622305,0.7389084,0.063358106,-0.6516872,0.15907265,10.76761531829834,1.6697636842727661,1.3009809255599976,27.875905990600586,-69.05477142333984, -13.281540870666504
558,117638972,0.7325138,0.067179844,-0.6581823,0.16033328,11.5349702835083,0.3525700867176056,0.5858825445175171,20.668655395507812,-67.70259094238281, -0.41790422797203064
559,117655639,0.72577053,0.06913944,-0.6654973,0.1599707,10.044686317443848,-1.2041215896606445,1.016852617263794,3.205993890762329,-72.11625671386719, 0.5982787609100342
560,117672306,0.7191295,0.07171699,-0.67251056,0.1594965,9.484976768493652,-0.7635747194290161,0.8087641596794128,6.069210529327393,-70.89644622802734, -3.06083607673645
561,117688973,0.7127739,0.07335003,-0.67945576,0.15783834,10.06267261505127,-0.2629893720149994,0.7579215168952942,-4.139145851135254,-68.80789184570312, -4.9072585105896
562,117705640,0.7065635,0.07660176,-0.6856812,0.15729515,9.887594223022461,-1.140657663345337,0.4405072331428528,9.714276313781738,-65.81889343261719, -7.53122615814209
563,117722307,0.7003658,0.08163588,-0.691294,0.15791231,9.67941951751709,-0.8576180338859558,0.30038437247276306,24.498804092407227,-64.11536407470703, -10.652528762817383
564,117738974,0.6942102,0.08694755,-0.6966153,0.1588697,10.369162559509277,-0.49016499519348145,0.02774832397699356,27.74790382385254,-62.63755416870117, -10.559462547302246
565,117755641,0.68778694,0.09315896,-0.70163816,0.16116591,10.446049690246582,-0.26909324526786804,-0.30155181884765625,38.94377136230469,-62.690120697021484, -8.376321792602539
566,117772308,0.6811228,0.09950721,-0.70676535,0.16325781,9.960332870483398,0.0784112885594368,-0.32065582275390625,38.643917083740234,-64.637451171875, -9.678377151489258
567,117788975,0.6744986,0.10377773,-0.71224326,0.16429189,9.664571762084961,0.11788365244865417,-0.03320755064487457,23.355192184448242,-64.48860168457031, -4.345381736755371
568,117805642,0.6676684,0.105838425,-0.71841764,0.1639932,9.851491928100586,0.07668806612491608,0.21145427227020264,5.94381046295166,-67.20021057128906, 1.0227633714675903
569,117822309,0.6605376,0.1069846,-0.7253003,0.1618145,9.990280151367188,-0.43091025948524475,-0.18362274765968323,-8.11928653717041,-72.29810333251953, -2.2366833686828613
570,117838976,0.6537736,0.108061604,-0.7320896,0.15794863,10.043672561645508,-0.7888361811637878,-0.6424611806869507,-17.01038360595703,-71.23088073730469, -10.036027908325195
571,117855643,0.64708275,0.10969544,-0.7385769,0.15412733,9.848411560058594,-0.7477902173995972,-0.7019314765930176,-14.010481834411621,-70.09518432617188, -12.950712203979492
572,117872310,0.64029026,0.11192427,-0.7448022,0.15090182,10.061710357666016,-0.6210140585899353,-0.9444097876548767,-7.9813551902771,-69.64639282226562, -13.421794891357422
573,117888977,0.6337435,0.11463237,-0.75062525,0.14761594,9.976786613464355,-0.7174773812294006,-1.164235234260559,-5.957052230834961,-67.17852783203125, -16.71449089050293
574,117905644,0.6272605,0.1180882,-0.75614965,0.14435136,9.981739044189453,-0.35682395100593567,-1.3979096412658691,-2.334918975830078,-66.30683135986328, -20.79157829284668
575,117922311,0.620664,0.12097713,-0.76181406,0.14064248,10.118959426879883,-0.017738617956638336,-1.416561484336853,-7.138512134552002,-67.31385803222656, -19.54060173034668
576,117938978,0.61341894,0.122557975,-0.76820356,0.1362368,10.226428985595703,-0.17647378146648407,-1.6827870607376099,-16.5288028717041,-73.13846588134766, -14.435948371887207
577,117955645,0.6058284,0.12351372,-0.7749049,0.13129674,10.074896812438965,-0.20856527984142303,-1.8053518533706665,-21.990253448486328,-76.16148376464844, -12.806268692016602
578,117972312,0.5980244,0.124544494,-0.7816911,0.12575637,9.948409080505371,-0.09373739361763,-1.640642523765564,-24.770856857299805,-78.24703979492188, -15.447538375854492
579,117988979,0.58957005,0.12555419,-0.78894955,0.11917278,10.1963472366333,-0.26567041873931885,-1.8012619018554688,-30.315767288208008,-84.58238220214844, -18.66143035888672
580,118005646,0.580755,0.1271117,-0.7962056,0.112351835,10.522659301757812,-0.25871485471725464,-2.210207223892212,-29.070444107055664,-87.20542907714844, -22.309642791748047
581,118022313,0.5714851,0.13019703,-0.80322796,0.10620039,10.705584526062012,0.3725953698158264,-2.4338173866271973,-18.729427337646484,-89.37857818603516, -27.860763549804688
582,118038980,0.56201184,0.13470978,-0.8098254,0.10088941,10.890579223632812,0.8174430131912231,-2.4887306690216064,-7.984334945678711,-89.14232635498047, -32.676456451416016
583,118055647,0.55308396,0.1399467,-0.8157277,0.09540128,11.63038444519043,0.9350103139877319,-2.3026797771453857,-6.190852642059326,-84.1083755493164, -38.41544723510742
584,118072314,0.5441167,0.14497583,-0.8216156,0.08869622,11.820146560668945,0.42232683300971985,-2.0018770694732666,-13.758347511291504,-85.33915710449219, -41.86473083496094
585,118088981,0.53330636,0.15054774,-0.82848173,0.0808566,12.808932304382324,0.8949306011199951,-1.4117544889450073,-16.898237228393555,-100.91121673583984, -47.08364486694336
586,118105648,0.5206295,0.15833785,-0.83589554,0.07178177,14.529135704040527,2.2251009941101074,-0.6788653135299683,-14.169170379638672,-116.11502075195312, -62.65006637573242
587,118122315,0.50537586,0.1692274,-0.8438543,0.062188204,17.125022888183594,1.4726357460021973,0.8644989728927612,-3.5111539363861084,-135.04331970214844, -80.4507827758789
588,118138982,0.49092126,0.17887199,-0.8512871,0.048080143,20.544818878173828,0.9077586531639099,5.4162116050720215,-34.729347229003906,-133.40541076660156, -89.8768539428711
589,118155649,0.47494856,0.18486063,-0.859926,0.02789076,18.83431053161621,-1.5498278141021729,6.6694231033325195,-81.1937026977539,-152.81741333007812, -87.04732513427734
590,118172316,0.45257622,0.18754695,-0.8717662,0.0049702628,15.479784965515137,-2.8731820583343506,3.2014284133911133,-100.61575317382812,-204.14730834960938, -71.20862579345703
591,118188983,0.42368588,0.19216312,-0.8849785,-0.019416142,13.72071647644043,-0.5241835117340088,-7.005643367767334,-95.05804443359375,-249.589599609375, -85.4313735961914
592,118205650,0.3986948,0.1973043,-0.894481,-0.04491293,16.558963775634766,-0.27878907322883606,-12.289228439331055,-105.93818664550781,-216.4512176513672, -96.29914093017578
593,118222317,0.38871804,0.19819492,-0.89750594,-0.06403065,15.332462310791016,-3.711052894592285,-3.1535542011260986,-100.74101257324219,-98.97835540771484, -56.866920471191406
594,118238984,0.38109022,0.19509779,-0.9005252,-0.075906664,9.877092361450195,-6.6564555168151855,9.8382568359375,-69.95623016357422,-76.4304428100586, -11.960013389587402
595,118255651,0.37976527,0.19333817,-0.9016118,-0.07412847,6.85473108291626,-8.311134338378906,11.126465797424316,8.591315269470215,-13.467206001281738, 16.152250289916992
596,118272318,0.38697833,0.19007964,-0.8995366,-0.07036846,7.190250873565674,-5.070719242095947,10.934477806091309,3.9561526775360107,49.460205078125, 30.698511123657227
597,118288985,0.4024709,0.1841137,-0.8946034,-0.061680157,6.039697170257568,-4.595646381378174,8.032041549682617,15.009330749511719,113.28622436523438, 60.78578186035156
598,118305652,0.4260459,0.17750083,-0.8858387,-0.04762772,6.720983505249023,-2.0708343982696533,6.038158893585205,34.33490753173828,180.04995727539062, 78.16019439697266
599,118322319,0.4567105,0.17039461,-0.8725471,-0.032296404,8.276077270507812,-0.06706159561872482,4.791346549987793,30.539865493774414,237.8459930419922, 81.70040130615234
600,118338986,0.49202475,0.15999146,-0.8555417,-0.019049898,9.239319801330566,1.6388845443725586,3.2241289615631104,1.4109647274017334,274.18695068359375, 91.61312103271484
601,118355653,0.5288881,0.14551409,-0.83607864,-0.008712865,10.075628280639648,2.240319013595581,1.1144778728485107,-31.516679763793945,287.84307861328125, 103.239990234375
602,118372320,0.5656966,0.12965006,-0.81435394,0.0024402677,12.804499626159668,1.7430692911148071,-0.8042675852775574,-31.946205139160156,296.4723815917969, 111.91398620605469
603,118388987,0.60124964,0.11542004,-0.7905045,0.016730608,15.210172653198242,2.5202796459198,-2.7120842933654785,-6.862855911254883,300.4712829589844, 113.0873031616211
604,118405654,0.6337441,0.101909146,-0.76612294,0.032231607,15.933083534240723,3.550781011581421,-3.6771790981292725,5.1786885261535645,286.9280090332031, 114.12020874023438
605,118422321,0.6631238,0.08747635,-0.7418622,0.047493324,14.803963661193848,2.1131296157836914,-3.768050193786621,2.047562837600708,270.0563659667969, 118.73584747314453
606,118438988,0.6896621,0.07239785,-0.71780175,0.062334172,13.510287284851074,1.4326107501983643,-4.034736633300781,-1.411693811416626,254.65554809570312, 121.1741943359375
607,118455655,0.7137554,0.056511816,-0.6939839,0.07580359,14.564027786254883,2.5559592247009277,-4.744797229766846,-10.908616065979004,241.1690673828125, 119.8359603881836
608,118472322,0.735677,0.038795512,-0.67045474,0.08811852,16.36244773864746,3.2674670219421387,-5.824241638183594,-24.724374771118164,229.98764038085938, 124.17630767822266
609,118488989,0.7552566,0.020662077,-0.6472907,0.100874126,16.576261520385742,2.7011351585388184,-6.297216415405273,-24.397092819213867,217.83067321777344, 129.88951110839844
610,118505656,0.77259946,0.0061372053,-0.6242489,0.1156108,15.660055160522461,2.625275135040283,-7.247764587402344,3.3948051929473877,205.149658203125, 125.73185729980469
611,118522323,0.78713673,-0.002787698,-0.60252523,0.13180062,14.570958137512207,3.540600299835205,-9.682574272155762,38.46070861816406,181.85702514648438, 111.75810241699219
612,118538990,0.7988522,-0.006064558,-0.5831863,0.14728278,12.726249694824219,4.860220909118652,-12.370299339294434,63.894126892089844,152.32984924316406, 87.11619567871094
613,118555657,0.8064549,-0.005976907,-0.56966585,0.15835324,10.54821491241455,6.7627339363098145,-14.96104907989502,58.639408111572266,100.85745239257812, 53.407344818115234
614,118572324,0.80913055,-0.0043612774,-0.56433326,0.1637589,9.75893783569336,7.414763927459717,-15.167262077331543,35.83200454711914,34.95600509643555, 21.151090621948242
615,118588991,0.8078402,-0.0017531819,-0.5657863,0.16515796,9.00922679901123,4.986355781555176,-12.148950576782227,18.074676513671875,-18.95358657836914, -0.6129390597343445
616,118605658,0.80431914,0.0021728168,-0.57086694,0.16485491,8.40098762512207,3.140087127685547,-9.105256080627441,14.655071258544922,-49.075050354003906, -12.625301361083984
617,118622325,0.79978037,0.007263876,-0.57729995,0.16438875,7.980107307434082,2.0749471187591553,-6.644869804382324,18.963586807250977,-61.73756790161133, -16.876562118530273
618,118638992,0.7949428,0.012323058,-0.58436203,0.16258955,10.009543418884277,1.8216540813446045,-0.5568174719810486,12.822467803955078,-66.3141098022461, -23.678447723388672
619,118655659,0.7918793,0.019744601,-0.5873369,0.1660509,15.816261291503906,-3.2611405849456787,11.751656532287598,51.28981018066406,-39.00878143310547, -6.72213888168335
620,118672326,0.78168124,0.03523393,-0.6017466,0.16010703,12.563881874084473,9.698812484741211,-1.0694862604141235,45.136268615722656,-140.66810607910156, -80.85049438476562
621,118688993,0.7690272,0.031387977,-0.62329805,0.1382457,18.086267471313477,4.035839080810547,-2.6393051147460938,-131.93898010253906,-171.76531982421875, -81.84089660644531
622,118705660,0.7574816,0.023507234,-0.6392182,0.13065094,10.426397323608398,-3.321168899536133,-3.9038777351379395,-86.98257446289062,-130.2522735595703, 8.711153984069824
623,118722327,0.7491175,0.022989033,-0.64983207,0.12654282,11.67210578918457,-2.081120491027832,-1.3171298503875732,-29.017854690551758,-94.63341522216797, -9.235210418701172
624,118738994,0.7429845,0.02643688,-0.656897,0.1255455,9.233009338378906,-0.283831387758255,0.3317091763019562,8.057418823242188,-69.3266830444336, -13.459674835205078
625,118755661,0.73682064,0.02841993,-0.6640727,0.12367427,10.615097045898438,0.25622040033340454,0.8186029195785522,-3.4541497230529785,-68.93496704101562, -11.270896911621094
626,118772328,0.73226327,0.032107446,-0.66852343,0.12584215,10.467231750488281,-0.7104794979095459,0.4534870684146881,25.631521224975586,-48.46857833862305, -0.4920892119407654
627,118788995,0.7278157,0.036299575,-0.6725671,0.12892039,10.62036418914795,-0.6855206489562988,1.043777585029602,32.68764877319336,-46.159767150878906, 1.5690964460372925
628,118805662,0.72341096,0.03779091,-0.67702526,0.1299433,10.42300033569336,0.05355772376060486,1.093496561050415,9.294453620910645,-46.17251205444336, 3.8231799602508545
629,118822329,0.7190658,0.03554394,-0.6822948,0.1271025,9.72615909576416,0.3560027480125427,1.3497849702835083,-28.022056579589844,-47.62031173706055, 2.164482355117798
630,118838996,0.71464825,0.032605965,-0.6877552,0.12332042,9.997448921203613,-1.3672758340835571,0.6696759462356567,-36.00165939331055,-48.5631103515625, 0.8681984543800354
631,118855663,0.7105835,0.03188487,-0.6924803,0.12052181,9.899365425109863,-1.8091648817062378,0.38562679290771484,-19.911739349365234,-44.9633903503418, -5.261854648590088
632,118872330,0.70703846,0.032555785,-0.6962726,0.11933743,10.040515899658203,-1.350071907043457,0.4783915877342224,-4.766856670379639,-38.75022506713867, -4.661087989807129
633,118888997,0.70326275,0.034162324,-0.70008934,0.11886957,10.198346138000488,-0.5871155261993408,0.25778260827064514,3.2462172508239746,-40.5998420715332, -5.480165004730225
634,118905664,0.6992632,0.03532701,-0.7042757,0.11738244,9.890599250793457,0.04995211586356163,0.2643269896507263,-4.047577381134033,-43.358970642089844, -8.02003288269043
635,118922331,0.69569033,0.035273056,-0.7081856,0.11508318,9.522439002990723,-0.318791925907135,0.23544743657112122,-13.718823432922363,-39.19694900512695, -6.434206962585449
636,118938998,0.69241107,0.03462859,-0.7118484,0.11242788,9.895710945129395,-0.6009127497673035,0.18109002709388733,-18.150419235229492,-36.222511291503906, -5.5577192306518555
637,118955665,0.68895745,0.033984523,-0.71572435,0.10918669,10.121594429016113,-0.7257738709449768,-0.0004584304988384247,-21.142047882080078,-38.25135803222656, -8.169137954711914
638,118972332,0.6851834,0.033976123,-0.7198412,0.105821036,9.827929496765137,-1.246440052986145,-0.005096178501844406,-18.84943962097168,-41.49396896362305, -11.59705924987793
639,118988999,0.681286,0.034884587,-0.7238841,0.10307496,9.552928924560547,-1.4825876951217651,-0.09443102777004242,-11.382891654968262,-42.29639434814453, -13.15835189819336
640,119005666,0.67725414,0.037069514,-0.72782844,0.101087436,9.505056381225586,-1.6619967222213745,-0.3751962184906006,-1.5277704000473022,-43.24280548095703, -15.9060640335083
641,119022333,0.67325515,0.041333098,-0.73141545,0.10025371,9.448317527770996,-1.5473006963729858,-0.4947892427444458,14.162312507629395,-42.57811737060547, -21.07187843322754
642,119039000,0.6691608,0.047396623,-0.73479015,0.100303836,9.573060035705566,-0.7579752802848816,-0.45675674080848694,27.109594345092773,-43.075294494628906, -26.048978805541992
643,119055667,0.6644114,0.05409722,-0.73862493,0.10032237,9.70708179473877,-0.3319648206233978,-0.41486236453056335,29.77497100830078,-48.96211624145508, -28.824142456054688
644,119072334,0.65849507,0.060676888,-0.7434569,0.09987408,9.704617500305176,-0.30738306045532227,-0.6668418645858765,26.596086502075195,-59.54506301879883, -29.174928665161133
645,119089001,0.6513333,0.06702014,-0.7492705,0.09933285,9.658498764038086,-0.3810025453567505,-1.0109690427780151,24.89643669128418,-70.24421691894531, -27.130496978759766
646,119105668,0.6431382,0.073463716,-0.755783,0.098837,9.403545379638672,-0.2392573356628418,-1.2319446802139282,25.581615447998047,-78.75273132324219, -26.426605224609375
647,119122335,0.63389564,0.0799323,-0.76307976,0.09745067,9.599876403808594,0.3006901144981384,-1.2082377672195435,21.0626277923584,-88.13907623291016, -29.394515991210938
648,119139002,0.6234217,0.08593282,-0.7712642,0.0954611,10.003889083862305,0.08721919357776642,-1.3918133974075317,15.942383766174316,-98.49755859375, -28.25702667236328
649,119155669,0.6126268,0.09161641,-0.77950186,0.09312459,10.446975708007812,0.0700131431221962,-1.7880206108093262,12.90418529510498,-100.43772888183594, -27.826818466186523
650,119172336,0.6023015,0.09713483,-0.78714955,0.09051861,10.757706642150879,0.2618066966533661,-1.9315248727798462,10.848559379577637,-95.51288604736328, -28.75364112854004
651,119189003,0.59236777,0.10287719,-0.7942503,0.08765322,10.727566719055176,0.4202778935432434,-1.8577629327774048,10.453794479370117,-91.45645904541016, -31.652746200561523
652,119205670,0.5825246,0.108952016,-0.80106753,0.08417607,11.049530982971191,0.6067554950714111,-1.9907654523849487,8.573517799377441,-90.46112823486328, -36.21575164794922
653,119222337,0.5730485,0.115153976,-0.8074031,0.08034379,11.221943855285645,0.8753675222396851,-2.109750986099243,7.138584613800049,-86.87351989746094, -38.91383361816406
654,119239004,0.5633994,0.121563055,-0.8137002,0.075468406,11.873708724975586,1.7185187339782715,-2.0629079341888428,2.327615261077881,-88.64756774902344, -44.10694122314453
655,119255671,0.55336857,0.12894227,-0.81993335,0.069760546,13.145659446716309,1.964901328086853,-1.696414589881897,1.7827717065811157,-91.76776123046875, -52.6025276184082
656,119272338,0.5421788,0.13795906,-0.82640195,0.06379279,14.273797988891602,0.6240778565406799,-0.9912979602813721,7.476988315582275,-100.26061248779297, -62.05033493041992
657,119289005,0.5298959,0.1478236,-0.833148,0.0567734,15.944334983825684,0.6022785305976868,0.7397657632827759,5.574991703033447,-108.94751739501953, -70.05296325683594
658,119305672,0.52004296,0.15482666,-0.8387931,0.044838592,18.89130210876465,0.7957645654678345,3.878520965576172,-35.043785095214844,-95.0009536743164, -73.65294647216797
659,119322339,0.51002264,0.15966067,-0.84469193,0.029686047,17.35672950744629,1.5305397510528564,5.335357189178467,-61.257503509521484,-99.80883026123047, -72.34718322753906
660,119339006,0.4925204,0.16636255,-0.85415196,0.013105068,15.348591804504395,-0.24452564120292664,5.131176948547363,-55.504146575927734,-157.89956665039062, -82.79243469238281
661,119355673,0.46674678,0.17363834,-0.8671619,-0.0052537974,14.191070556640625,-2.0712647438049316,-2.072099208831787,-54.84721755981445,-220.77931213378906, -87.43850708007812
662,119372340,0.43855464,0.1841793,-0.8793137,-0.023569975,16.159992218017578,-0.12213750183582306,-9.09552001953125,-41.26451873779297,-232.36123657226562, -107.96363067626953
663,119389007,0.42001098,0.19271766,-0.8858546,-0.041380648,16.749317169189453,-2.315469980239868,-6.691970348358154,-57.379844665527344,-156.78237915039062, -99.92721557617188
664,119405674,0.4064425,0.1960809,-0.89064854,-0.055696756,10.470978736877441,-4.150323390960693,2.689927816390991,-58.16585922241211,-118.33793640136719, -59.298362731933594
665,119422341,0.3986865,0.19607168,-0.8938634,-0.060112897,7.8790602684021,-8.703091621398926,10.081235885620117,-15.44180965423584,-66.39344787597656, -10.967029571533203
666,119439008,0.39858934,0.19674298,-0.8939346,-0.057443645,7.292776584625244,-6.429819583892822,10.001168251037598,18.278751373291016,-1.0555903911590576, 3.0925772190093994
667,119455675,0.40702173,0.19425634,-0.89092195,-0.0534402,8.011959075927734,-5.723464488983154,9.160256385803223,5.026625633239746,60.20442199707031, 25.279150009155273
668,119472342,0.42352584,0.1891356,-0.8848752,-0.043006506,6.756234169006348,-5.294930458068848,7.609447956085205,25.107250213623047,125.59843444824219, 58.25386428833008
669,119489009,0.44786736,0.18277541,-0.87473583,-0.029074922,6.881802082061768,-3.0286529064178467,6.813534736633301,31.3370304107666,189.26173400878906, 72.92240142822266
670,119505676,0.4788375,0.17390569,-0.8603602,-0.015869407,8.133325576782227,-1.3450853824615479,5.3446807861328125,10.042847633361816,240.65931701660156, 81.74681854248047
671,119522343,0.51405245,0.16165316,-0.8423758,-0.0046385773,9.459348678588867,0.20625275373458862,3.210886001586914,-18.256698608398438,274.83612060546875, 91.36986541748047
672,119539010,0.5505428,0.14587432,-0.82194823,0.004966973,11.299440383911133,0.5304055213928223,1.0048823356628418,-41.64881896972656,288.87060546875, 103.34674072265625
673,119555677,0.5860135,0.12909207,-0.7997839,0.01641556,14.209644317626953,1.063018798828125,-1.3108019828796387,-33.94102478027344,291.5207214355469, 114.2425308227539
674,119572344,0.6189838,0.112472504,-0.7767561,0.029312193,15.64213752746582,2.3337719440460205,-3.09171199798584,-23.035123825073242,282.485107421875, 118.67176818847656
675,119589011,0.6490317,0.0954187,-0.7535273,0.043008912,15.807806015014648,2.634124755859375,-3.5031864643096924,-18.307231903076172,268.4528503417969, 124.8207778930664
676,119605678,0.67665035,0.07814025,-0.72994787,0.056697793,15.09878921508789,1.557392954826355,-4.378035068511963,-17.658926010131836,257.5343933105469, 126.44645690917969
677,119622345,0.7017141,0.06173853,-0.70617926,0.071392015,14.768217086791992,1.4711084365844727,-5.293623924255371,-7.105593204498291,245.866943359375, 127.62342834472656
678,119639012,0.72407335,0.045249302,-0.68280375,0.08631183,15.401451110839844,1.7676315307617188,-5.69020414352417,-5.490461349487305,231.08697509765625, 130.64810180664062
679,119655679,0.74369556,0.027927756,-0.6602168,0.10124636,15.658658981323242,1.3271547555923462,-5.963004112243652,-9.18315315246582,214.94288635253906, 136.53237915039062
680,119672346,0.7612506,0.012535347,-0.63754404,0.11780502,14.932890892028809,0.8289350867271423,-6.250304222106934,8.508378982543945,205.1242218017578, 137.54295349121094
681,119689013,0.776485,0.0026147892,-0.6152906,0.13594848,14.18615436553955,3.4278013706207275,-7.7050299644470215,43.98295593261719,188.62469482421875, 123.8194351196289
682,119705680,0.78875947,-0.0028939357,-0.59551567,0.1523533,14.31980037689209,5.70961332321167,-9.907774925231934,57.925743103027344,158.9090576171875, 98.78738403320312
683,119722347,0.7968966,-0.00788328,-0.5813544,0.16407666,12.750787734985352,7.574886798858643,-13.268550872802734,35.63026809692383,111.3148422241211, 75.64482116699219
684,119739014,0.79997367,-0.011136006,-0.57515544,0.17063095,10.758071899414062,8.487788200378418,-15.717166900634766,15.262136459350586,46.082366943359375, 45.838645935058594
685,119755681,0.7988739,-0.011805854,-0.5760535,0.17269519,9.402689933776855,6.224660396575928,-14.179396629333496,3.1095199584960938,-11.82675552368164, 15.47502613067627
686,119772348,0.79486567,-0.00986788,-0.5819288,0.17161147,8.500746726989746,3.960425615310669,-11.14952564239502,-1.128519892692566,-53.23911666870117, -8.949117660522461
687,119789015,0.7900349,-0.004843014,-0.58881235,0.17065108,8.521565437316895,2.620413303375244,-7.983094692230225,15.036649703979492,-65.46623229980469, -19.62826156616211
688,119805682,0.78491396,0.005621147,-0.59516966,0.1721968,8.730441093444824,2.9323527812957764,-4.567244052886963,55.3715705871582,-70.07987213134766, -27.614990234375
689,119822349,0.7829943,0.015534251,-0.5961184,0.17697962,16.113845825195312,-3.0697975158691406,11.137712478637695,71.94046783447266,-26.899991989135742, -11.834920883178711
690,119839016,0.77529687,0.041687187,-0.60165435,0.18758789,11.829699516296387,5.3804612159729,0.023371338844299316,178.27407836914062,-94.53042602539062, -39.55973815917969
691,119855683,0.76484513,0.0511045,-0.6188101,0.17168187,14.994394302368164,6.948919296264648,0.722755491733551,-34.84983825683594,-153.83148193359375, -104.69583129882812
