PacketCounter,SampleTimeFine,Quat_W,Quat_X,Quat_Y,Quat_Z,Acc_X,Acc_Y,Acc_Z,Gyr_X,Gyr_Y,Gyr_Z 
1,454830501,0.4241504,0.43035337,-0.5074317,0.61433345,0.013879661448299885,-0.08060790598392487,0.01290540024638176,0.25022414326667786,0.16266818344593048, 0.020634762942790985
2,454847168,0.42494994,0.43066058,-0.50718904,0.6137658,9.376143455505371,-2.3999903202056885,1.2091503143310547,-5.871647357940674,0.32071584463119507, -1.4783138036727905
3,454863835,0.42606074,0.43090853,-0.50633764,0.6135245,9.258546829223633,-2.489199638366699,1.0567234754562378,-2.492218255996704,0.29926520586013794, -1.4682862758636475
4,454880502,0.42633605,0.43119085,-0.50618666,0.6132596,9.201139450073242,-2.557168483734131,1.130144715309143,-0.3432998061180115,-0.6364883780479431, -1.2676109075546265
5,454897169,0.42627475,0.43114462,-0.5063378,0.6132097,9.249213218688965,-2.5790276527404785,1.1760435104370117,0.623112142086029,-1.430725336074829, -1.077090859413147
6,454913836,0.42592463,0.4311432,-0.5064659,0.6133485,9.299409866333008,-2.5612924098968506,1.1824951171875,1.2886838912963867,-2.526219367980957, -0.9806974530220032
7,454930503,0.4253717,0.43136057,-0.5065106,0.6135423,9.280082702636719,-2.5406811237335205,1.1730129718780518,2.4221997261047363,-3.826371431350708, -0.8483055830001831
8,454947170,0.4246434,0.43186173,-0.5064813,0.6137183,9.270075798034668,-2.5166666507720947,1.1330269575119019,4.3740034103393555,-5.547903537750244, -0.8482159376144409
9,454963837,0.4233719,0.43305746,-0.50614476,0.6140318,9.242280006408691,-2.471827507019043,1.0010749101638794,9.476057052612305,-8.648964881896973, -0.9821708798408508
10,454980504,0.42123798,0.43530634,-0.5054102,0.61451423,9.206563949584961,-2.5188658237457275,0.9559901356697083,17.53205680847168,-13.515151977539062, -1.111144781112671
11,454997171,0.4182238,0.43855277,-0.50421566,0.61524564,9.274137496948242,-2.433156967163086,0.958653450012207,25.755367279052734,-18.03441047668457, -1.4672925472259521
12,455013838,0.41513023,0.44199008,-0.5031029,0.6157916,9.374592781066895,-2.456617832183838,1.023645043373108,27.32009506225586,-20.128049850463867, -1.4148513078689575
13,455030505,0.4122782,0.44517618,-0.50214034,0.61619806,9.45014762878418,-2.4444801807403564,1.0773378610610962,25.275245666503906,-19.40951156616211, -1.1694927215576172
14,455047172,0.40998608,0.44775864,-0.5015164,0.61636436,9.44568157196045,-2.4334709644317627,1.1102725267410278,20.56355857849121,-17.257957458496094, -0.7417199611663818
15,455063839,0.4082946,0.44962552,-0.5012952,0.61630803,9.447029113769531,-2.386604070663452,1.0204342603683472,13.629103660583496,-14.257878303527832, -0.08598194271326065
16,455080506,0.40712208,0.45087308,-0.5014814,0.61602086,9.36263656616211,-2.3894994258880615,1.0089330673217773,8.469300270080566,-12.036147117614746, 0.7388436794281006
17,455097173,0.4061956,0.45178166,-0.5019122,0.6156158,9.307046890258789,-2.4251670837402344,0.8729087710380554,4.815887928009033,-10.816786766052246, 1.3352354764938354
18,455113840,0.40535715,0.45248395,-0.50247043,0.61519724,9.315840721130371,-2.411977767944336,0.8580214977264404,3.0537452697753906,-9.852080345153809, 1.972069501876831
19,455130507,0.40461338,0.4530113,-0.50303406,0.61483777,9.391728401184082,-2.4036264419555664,0.9116829633712769,1.5324270725250244,-8.31147575378418, 2.2812657356262207
20,455147174,0.40520805,0.45226693,-0.5043466,0.6139181,9.708412170410156,-2.402259111404419,1.3778140544891357,-11.084386825561523,-2.235964059829712, 1.864003300666809
21,455163841,0.40833062,0.44931185,-0.5068016,0.6119943,9.384906768798828,-2.5761873722076416,0.8641173243522644,-33.05476760864258,8.829456329345703, -0.2004586011171341
22,455180508,0.41077843,0.44662383,-0.5087018,0.61074597,9.309139251708984,-2.496877908706665,0.798321008682251,-26.202665328979492,9.282994270324707, 1.653963565826416
23,455197175,0.41336888,0.44375587,-0.5105722,0.6095269,9.386505126953125,-2.4759697914123535,0.877277672290802,-27.22561264038086,10.950851440429688, 1.5814673900604248
24,455213842,0.41676483,0.43982396,-0.51283884,0.6081598,9.457319259643555,-2.490647315979004,0.9928553104400635,-37.2813606262207,17.365352630615234, 2.5129473209381104
25,455230509,0.41983375,0.43606848,-0.5148733,0.6070334,9.181875228881836,-2.363966703414917,0.6441431641578674,-32.440696716308594,16.437084197998047, 3.394345283508301
26,455247176,0.42172736,0.43353248,-0.51622075,0.6063928,9.199142456054688,-2.431493043899536,0.7327600121498108,-20.925783157348633,10.929158210754395, 3.376227855682373
27,455263843,0.42190453,0.43272722,-0.5165929,0.60652745,9.206326484680176,-2.6087605953216553,0.7878527641296387,-10.467340469360352,4.693049430847168, 3.1319162845611572
28,455280510,0.4220838,0.43217298,-0.5171732,0.6063034,9.268815994262695,-2.55430006980896,0.8353378176689148,-2.1716365814208984,-0.547497034072876, 2.645081043243408
29,455297177,0.42204726,0.43167132,-0.51760274,0.6063198,9.726493835449219,-2.4658658504486084,1.3204364776611328,-6.985544681549072,1.6190366744995117, 2.9091358184814453
30,455313844,0.42355147,0.42954338,-0.51873237,0.6058164,9.381570816040039,-2.557945728302002,0.9559190273284912,-21.129737854003906,10.116606712341309, 2.945946455001831
31,455330511,0.42493245,0.42758486,-0.5197568,0.6053568,9.177248001098633,-2.6695799827575684,0.8020097017288208,-16.176883697509766,8.45981216430664, 3.002342939376831
32,455347178,0.42519632,0.42685238,-0.5200478,0.6054382,9.13733196258545,-2.7291853427886963,0.8388643264770508,-8.335592269897461,4.30542516708374, 2.218092203140259
33,455363845,0.4246581,0.42706218,-0.5199018,0.6057934,9.178302764892578,-2.608138084411621,0.9118220210075378,-0.30790308117866516,-0.36870765686035156, 1.6204196214675903
34,455380512,0.4233792,0.42803493,-0.5193983,0.6064337,9.297446250915527,-2.459345579147339,0.9618235230445862,5.1859259605407715,-3.8929901123046875, 1.6047576665878296
35,455397179,0.42193848,0.4293144,-0.51897484,0.6068955,9.329320907592773,-2.572481155395508,1.0215591192245483,9.834942817687988,-7.693802833557129, 1.3828495740890503
36,455413846,0.41989887,0.43128645,-0.51835084,0.607445,9.237733840942383,-2.5654404163360596,0.8802707195281982,16.106203079223633,-12.281600952148438, 1.2179688215255737
37,455430513,0.41743582,0.4336777,-0.51755065,0.608122,9.382721900939941,-2.6238865852355957,1.0150173902511597,18.61021614074707,-14.309444427490234, 1.236577033996582
38,455447180,0.41581678,0.43522674,-0.51727426,0.6083598,9.360180854797363,-2.6325008869171143,0.9388073682785034,11.447921752929688,-11.054286003112793, 1.1445109844207764
39,455463847,0.41442052,0.4364961,-0.5171151,0.6085384,9.249074935913086,-2.7468295097351074,0.8973039388656616,8.253907203674316,-9.327227592468262, 1.2907205820083618
40,455480514,0.41319278,0.43757463,-0.51699877,0.6086976,9.468353271484375,-2.5831563472747803,1.0507975816726685,5.717223644256592,-7.7671308517456055, 1.1790874004364014
41,455497181,0.41506788,0.4357677,-0.51772594,0.6080997,10.032552719116211,-2.7444844245910645,1.732094168663025,-16.515514373779297,10.188213348388672, -1.0092055797576904
42,455513848,0.41803792,0.43310302,-0.5180827,0.6076648,9.19204044342041,-2.5720720291137695,0.6936254501342773,-20.768945693969727,19.161727905273438, -3.218308687210083
43,455530515,0.41995707,0.43120813,-0.51848346,0.6073472,9.02316665649414,-2.5590710639953613,0.7003681659698486,-15.605428695678711,12.62064266204834, -1.1485517024993896
44,455547182,0.42102635,0.4300984,-0.5188188,0.60710716,9.052196502685547,-2.616102695465088,0.673662006855011,-10.05298900604248,6.745651721954346, -0.36403346061706543
45,455563849,0.42114466,0.4298952,-0.5188286,0.6071608,9.154942512512207,-2.580693483352661,0.8034741282463074,-3.0021541118621826,1.680545449256897, 0.1596887856721878
46,455580516,0.42078573,0.43017638,-0.5187582,0.6072706,9.274136543273926,-2.59586501121521,0.975806713104248,1.7021496295928955,-1.98281991481781, 0.4771837592124939
47,455597183,0.41985878,0.4310272,-0.5184929,0.60753566,9.355597496032715,-2.6217191219329834,1.003486156463623,5.362551689147949,-5.076899528503418, 0.5940291285514832
48,455613850,0.418584,0.4322807,-0.5181137,0.60784817,9.331829071044922,-2.5860297679901123,0.9470487833023071,8.388629913330078,-7.590877532958984, 0.4337064325809479
49,455630517,0.41698146,0.43386692,-0.5176519,0.6082125,9.288302421569824,-2.546482801437378,0.8919093608856201,11.1896390914917,-9.850369453430176, 0.5640112161636353
50,455647184,0.41525576,0.43554452,-0.5172381,0.6085462,9.42515754699707,-2.55012583732605,0.9937338829040527,12.209784507751465,-11.084522247314453, 0.888166069984436
51,455663851,0.4142321,0.43651494,-0.5171562,0.6086181,9.378673553466797,-2.60017728805542,0.9748727679252625,5.289850234985352,-7.241814136505127, 0.6897054314613342
52,455680518,0.4133515,0.43729517,-0.5171227,0.60868526,9.240979194641113,-2.649207592010498,0.8642067313194275,3.6213228702545166,-5.968042373657227, 0.8637309074401855
53,455697185,0.41257513,0.438006,-0.517067,0.6087482,9.256067276000977,-2.6700472831726074,0.8244682550430298,3.245936155319214,-5.267470359802246, 0.5904881358146667
54,455713852,0.4118024,0.43869606,-0.5170705,0.6087718,9.233948707580566,-2.6992580890655518,0.8638896942138672,3.324394702911377,-5.591253280639648, 0.7483839988708496
55,455730519,0.41097018,0.4394776,-0.5170313,0.60880363,9.304998397827148,-2.612617254257202,0.8759903311729431,4.056801795959473,-6.064857006072998, 0.556800901889801
56,455747186,0.4099627,0.44044358,-0.51692027,0.60887897,9.321292877197266,-2.560556173324585,0.8552643060684204,5.3506927490234375,-7.068722248077393, 0.5246186852455139
57,455763853,0.40902132,0.44143307,-0.51663816,0.6090349,9.463492393493652,-2.649052619934082,1.0969926118850708,6.924478530883789,-6.405289649963379, -0.05732123553752899
58,455780520,0.40878397,0.442115,-0.5161915,0.6090784,9.407482147216797,-2.6252238750457764,1.012183666229248,4.109615802764893,-2.509032964706421, -2.7340917587280273
59,455797187,0.40936458,0.4419335,-0.51629436,0.6087329,9.258233070373535,-2.6731839179992676,0.8488761782646179,-4.74810791015625,1.329267144203186, -2.53719425201416
60,455813854,0.40997985,0.44159418,-0.51657146,0.6083298,9.21529769897461,-2.6194965839385986,0.7725732922554016,-5.3656816482543945,1.2055834531784058, -1.6997485160827637
61,455830521,0.41030282,0.44145146,-0.51682925,0.6079965,9.233118057250977,-2.6053617000579834,0.7577961087226868,-4.164689064025879,-0.22023078799247742, -1.0896410942077637
62,455847188,0.4103447,0.44149876,-0.51705474,0.60774213,9.271367073059082,-2.5805773735046387,0.8047963380813599,-2.701845169067383,-1.5765897035598755, -0.4963100850582123
63,455863855,0.41064638,0.44126686,-0.51752114,0.6073097,9.310629844665527,-2.5266237258911133,0.8298326730728149,-4.944455623626709,-0.9725527763366699, -0.2842753827571869
64,455880522,0.41113508,0.44075996,-0.5181706,0.6067931,9.376179695129395,-2.5428519248962402,0.8608582019805908,-7.965051651000977,0.23861433565616608, 0.1925370991230011
65,455897189,0.41167828,0.44014245,-0.5189369,0.6062179,9.289544105529785,-2.5950376987457275,0.7750073075294495,-8.973245620727539,0.3362756073474884, 0.5692872405052185
66,455913856,0.41190478,0.43979704,-0.519505,0.6058282,9.292860984802246,-2.6069231033325195,0.8049246072769165,-6.209300518035889,-0.6753173470497131, 0.8070755004882812
67,455930523,0.41184798,0.43975416,-0.51987785,0.60557806,9.310726165771484,-2.6277782917022705,0.7923458218574524,-2.9217305183410645,-2.0445210933685303, 0.729404866695404
68,455947190,0.41166076,0.43988416,-0.52013654,0.6053888,9.315353393554688,-2.623483657836914,0.8516335487365723,-0.696895956993103,-2.9015860557556152, 0.5281274914741516
69,455963857,0.4113722,0.4401712,-0.5202139,0.60530955,9.297874450683594,-2.6268060207366943,0.7966759204864502,0.09193038195371628,-2.7703464031219482, 0.06803372502326965
70,455980524,0.41114265,0.44042808,-0.5202527,0.6052452,9.314249992370605,-2.619533061981201,0.8667294979095459,-0.2571771442890167,-2.197672128677368, -0.16808335483074188
71,455997191,0.41113877,0.4405143,-0.52035964,0.60509336,9.393813133239746,-2.573486804962158,0.9264821410179138,-1.2318940162658691,-1.3670520782470703, -0.48149311542510986
72,456013858,0.41193676,0.43992263,-0.5208867,0.6045273,9.33462905883789,-2.6241869926452637,0.8453992009162903,-8.402120590209961,1.7506095170974731, -1.2541390657424927
73,456030525,0.41267028,0.4393233,-0.5213152,0.60409313,9.3031644821167,-2.5550453662872314,0.7259904146194458,-7.614720344543457,2.296351671218872, -0.9049353003501892
74,456047192,0.41314417,0.4389375,-0.52161646,0.6037899,9.279474258422852,-2.546651840209961,0.7590813040733337,-5.464469909667969,1.3083544969558716, -0.6178680658340454
75,456063859,0.41338313,0.43875578,-0.5217966,0.6036027,9.284330368041992,-2.5674848556518555,0.7750775814056396,-4.256228446960449,0.5924408435821533, -0.4794185161590576
76,456080526,0.41350323,0.43872997,-0.521846,0.60349643,9.295870780944824,-2.64577054977417,0.7599127888679504,-2.0519614219665527,-0.023999100551009178, -0.6664808988571167
77,456097193,0.4133892,0.43898433,-0.5216852,0.60352874,9.289238929748535,-2.640909194946289,0.8059660196304321,0.9505577683448792,-1.044972538948059, -0.935849666595459
78,456113860,0.41306528,0.43945307,-0.5214701,0.603595,9.33055305480957,-2.590991735458374,0.8188107013702393,2.372715711593628,-2.388538122177124, -0.9173060655593872
79,456130527,0.41260839,0.4400342,-0.52124107,0.603682,9.348379135131836,-2.57891845703125,0.9117802381515503,3.4565553665161133,-3.2991461753845215, -0.7341880202293396
80,456147194,0.41216308,0.44061312,-0.52109927,0.6036866,9.378811836242676,-2.529766798019409,0.8324541449546814,3.3698184490203857,-3.929935932159424, -0.6967295408248901
81,456163861,0.41280383,0.4401855,-0.5214652,0.60324454,9.563882827758789,-2.61346697807312,1.1954776048660278,-7.283740997314453,1.562803864479065, -1.3756710290908813
82,456180528,0.4143158,0.43903083,-0.5219646,0.6026172,9.390018463134766,-2.5776565074920654,0.6995904445648193,-13.079801559448242,6.686181545257568, -2.492002487182617
83,456197195,0.41563883,0.43792206,-0.5223155,0.60220873,9.186473846435547,-2.569159984588623,0.6869608759880066,-10.884572982788086,6.8836541175842285, -1.6927189826965332
84,456213862,0.41669106,0.4370013,-0.52265024,0.6018601,9.29585075378418,-2.5554401874542236,0.7606008648872375,-9.112783432006836,5.329204082489014, -1.1183788776397705
85,456230529,0.41822693,0.43558884,-0.5232739,0.6012762,9.303503036499023,-2.600571632385254,0.846008837223053,-14.220260620117188,7.625401020050049, -1.1745740175247192
86,456247196,0.419755,0.4341047,-0.52394336,0.6007016,9.340780258178711,-2.565140724182129,0.8799792528152466,-14.445638656616211,7.754156112670898, -0.716605544090271
87,456263863,0.42129943,0.43260866,-0.5246432,0.6000885,9.215598106384277,-2.5729939937591553,0.7274213433265686,-13.89184284210205,7.403953552246094, -0.6918637156486511
88,456280530,0.4219988,0.4319531,-0.52487004,0.5998711,9.238411903381348,-2.5193262100219727,0.8022084832191467,-8.088709831237793,4.139698028564453, -0.6989834904670715
89,456297197,0.42217186,0.4318543,-0.52496403,0.5997381,9.268940925598145,-2.617949962615967,0.8705063462257385,-2.9080915451049805,0.26438069343566895, -0.5950854420661926
90,456313864,0.4218947,0.4322582,-0.52486116,0.5997323,9.334256172180176,-2.5716068744659424,0.9014795422554016,1.3158462047576904,-2.533761978149414, -0.7602874040603638
91,456330531,0.42130247,0.43302062,-0.52463275,0.5997983,9.35258674621582,-2.5410118103027344,0.8702657222747803,4.123023986816406,-4.593074798583984, -0.9129776358604431
92,456347198,0.42034733,0.43424946,-0.52408165,0.60006166,9.349174499511719,-2.538879632949829,0.8242369294166565,8.601114273071289,-6.309742450714111, -1.4818235635757446
93,456363865,0.41906834,0.43589243,-0.52322674,0.6005109,9.38722038269043,-2.5560879707336426,0.8714794516563416,12.893332481384277,-7.811391830444336, -1.987162709236145
94,456380532,0.41837677,0.43738568,-0.5218524,0.6011031,9.675786972045898,-2.5957813262939453,1.3775968551635742,12.948169708251953,-3.0500776767730713, -5.045820713043213
95,456397199,0.41961446,0.4373144,-0.52049685,0.60146725,9.804508209228516,-2.4727234840393066,1.5279498100280762,1.9490182399749756,9.49294662475586, -7.985696792602539
96,456413866,0.42259273,0.4350445,-0.52040166,0.6011106,9.227644920349121,-2.483734130859375,0.7070295810699463,-17.105392456054688,18.86655616760254, -5.569238662719727
97,456430533,0.42501324,0.4330295,-0.5205879,0.6006977,8.96181869506836,-2.6221866607666016,0.5148734450340271,-16.54747200012207,14.973652839660645, -3.543459415435791
98,456447200,0.42649752,0.43187237,-0.52063626,0.6004365,9.041540145874023,-2.5514185428619385,0.69212406873703,-9.919676780700684,8.903332710266113, -2.717777967453003
99,456463867,0.42722803,0.43142843,-0.52054614,0.6003147,9.210095405578613,-2.4075403213500977,0.8138281106948853,-4.602334499359131,4.118234634399414, -2.1816518306732178
100,456480534,0.42732173,0.43158782,-0.5203238,0.600326,9.272913932800293,-2.5096685886383057,0.8947396874427795,-0.3245897889137268,0.2462853342294693, -1.7461971044540405
101,456497201,0.42705584,0.43211296,-0.5200721,0.60035557,9.32371997833252,-2.4966399669647217,0.9848326444625854,2.9506661891937256,-2.6599302291870117, -1.5217913389205933
102,456513868,0.42635518,0.4330834,-0.51968426,0.6004903,9.331689834594727,-2.488827705383301,0.9553303718566895,6.036754131317139,-5.226310729980469, -1.4551218748092651
103,456530535,0.4252346,0.43446767,-0.51922166,0.60068494,9.295027732849121,-2.5102715492248535,0.9987698197364807,9.219929695129395,-8.094321250915527, -1.2280399799346924
104,456547202,0.4233043,0.43673667,-0.5183226,0.6011791,9.248943328857422,-2.551597833633423,0.8166341781616211,16.921789169311523,-12.431052207946777, -1.485602617263794
105,456563869,0.42065328,0.4398917,-0.5167765,0.60207015,9.449309349060059,-2.455754280090332,1.074569821357727,25.817893981933594,-15.60094928741455, -2.450003147125244
106,456580536,0.41983247,0.44137257,-0.5160074,0.6022187,9.605281829833984,-2.346428632736206,1.1764376163482666,10.597652435302734,-6.942198753356934, -3.786327838897705
107,456597203,0.41958752,0.44214594,-0.5155362,0.60222584,9.302850723266602,-2.451110363006592,0.8709760308265686,4.145908355712891,-3.042417049407959, -3.2260348796844482
108,456613870,0.41938564,0.44280067,-0.5151311,0.60223204,9.244678497314453,-2.4376490116119385,0.8169683218002319,3.1594865322113037,-2.534376621246338, -2.8058714866638184
109,456630537,0.4191878,0.44336462,-0.514844,0.60220027,9.256051063537598,-2.38912296295166,0.8060182929039001,2.9660723209381104,-2.7827560901641846, -2.198312520980835
110,456647204,0.41889566,0.443937,-0.5146258,0.6021684,9.333645820617676,-2.355182647705078,0.8530450463294983,2.6114261150360107,-3.2513017654418945, -1.6572442054748535
111,456663871,0.41930336,0.44377303,-0.5150103,0.6016766,9.571375846862793,-2.302840232849121,1.1778963804244995,-5.297257423400879,-0.9893417954444885, -1.3935742378234863
112,456680538,0.4225355,0.44073898,-0.517164,0.59979534,10.118176460266113,-2.178736448287964,1.8555492162704468,-35.293983459472656,11.739477157592773, -1.5818222761154175
113,456697205,0.43078005,0.43195954,-0.52186143,0.59623826,9.787615776062012,-2.3276031017303467,1.0546189546585083,-84.20372772216797,40.862125396728516, 0.9882004261016846
114,456713872,0.43608463,0.42562523,-0.52457553,0.59455365,8.803135871887207,-2.326089382171631,0.37312933802604675,-55.373680114746094,32.23063659667969, 3.742255210876465
115,456730539,0.43936732,0.42166853,-0.5261895,0.593529,8.947750091552734,-2.5473878383636475,0.7607022523880005,-33.851905822753906,20.074508666992188, 2.3134608268737793
116,456747206,0.44132718,0.41935214,-0.52715945,0.5928551,9.140875816345215,-2.5644710063934326,0.9070522785186768,-20.809707641601562,11.47982120513916, 0.9811797142028809
117,456763873,0.44241664,0.41813105,-0.52777356,0.59235895,9.259308815002441,-2.4994542598724365,0.9828640818595886,-12.417916297912598,5.3374342918396, 0.10392360389232635
118,456780540,0.44286957,0.41774324,-0.52805823,0.59204054,9.363807678222656,-2.516791343688965,1.1505236625671387,-5.95933198928833,1.118282437324524, -0.7271829843521118
119,456797207,0.44331402,0.41759777,-0.5280042,0.5918584,9.636646270751953,-2.2925608158111572,1.3422064781188965,-3.1934680938720703,1.4774492979049683, -2.119835138320923
120,456813874,0.44482028,0.4161694,-0.52820367,0.59155655,9.575155258178711,-2.291816473007202,1.112479567527771,-11.595810890197754,9.405137062072754, -1.4010796546936035
121,456830541,0.44594443,0.41515628,-0.52814734,0.5914721,9.065537452697754,-2.557687997817993,0.9554570317268372,-7.4552435874938965,7.740704536437988, -1.41192626953125
122,456847208,0.44657364,0.41479367,-0.52792656,0.5914489,9.104991912841797,-2.7087817192077637,1.095403790473938,-3.0833725929260254,3.9595768451690674, -2.048171281814575
123,456863875,0.44673193,0.4150678,-0.5275933,0.59143454,9.166350364685059,-2.69895601272583,1.0921761989593506,0.6924072504043579,0.02873104065656662, -2.759678363800049
124,456880542,0.4461913,0.4162526,-0.526842,0.5916795,9.260320663452148,-2.6040682792663574,1.154361367225647,8.062631607055664,-4.175012111663818, -3.641678810119629
125,456897209,0.44504085,0.4182577,-0.5256165,0.5922216,9.332200050354004,-2.5062525272369385,1.1178516149520874,15.313929557800293,-7.422042369842529, -4.586368083953857
126,456913876,0.44423926,0.4199385,-0.52461576,0.5925213,9.538376808166504,-2.3164987564086914,1.3297942876815796,11.509491920471191,-6.22883415222168, -4.933163642883301
127,456930543,0.443934,0.4210275,-0.5238887,0.59262043,9.354808807373047,-2.2310235500335693,1.0479735136032104,6.366364479064941,-3.44857120513916, -4.634977340698242
128,456947210,0.4435359,0.4221461,-0.52320963,0.59272283,9.322629928588867,-2.342968702316284,1.0533698797225952,6.590142726898193,-4.056553363800049, -4.195886135101318
129,456963877,0.44289988,0.423472,-0.522499,0.5928795,9.380064964294434,-2.4232451915740967,1.2134476900100708,8.196611404418945,-5.496743202209473, -3.8970887660980225
130,456980544,0.44222787,0.42483288,-0.5217544,0.5930634,9.68974781036377,-2.4346795082092285,1.4475284814834595,8.501082420349121,-5.5655646324157715, -3.9052469730377197
131,456997211,0.44238064,0.42529646,-0.52125925,0.5930524,9.851314544677734,-2.196223258972168,1.4662264585494995,1.7391856908798218,-0.3290592133998871, -3.9007890224456787
132,457013878,0.4443063,0.42368418,-0.5214805,0.59257233,9.824246406555176,-2.28011417388916,1.4455182552337646,-14.352067947387695,10.907328605651855, -3.002747058868408
133,457030545,0.44648704,0.4216283,-0.5217262,0.59218293,8.972232818603516,-2.5111896991729736,0.8703202605247498,-16.171611785888672,13.777942657470703, -2.0905370712280273
134,457047212,0.44802305,0.42032927,-0.5217328,0.59194034,8.770918846130371,-2.440281867980957,0.8083471059799194,-10.751885414123535,9.62144947052002, -2.4737915992736816
135,457063879,0.44895825,0.41974655,-0.52166784,0.5917027,8.838071823120117,-2.116564989089966,0.8343100547790527,-6.322328567504883,4.754978656768799, -2.789863348007202
136,457080546,0.44951913,0.41961586,-0.52180684,0.59124684,9.081573486328125,-2.05483341217041,1.0117089748382568,-5.308295726776123,0.2895963788032532, -2.9518380165100098
137,457097213,0.44953278,0.42014423,-0.5218901,0.5907876,9.251526832580566,-2.44470477104187,1.2208575010299683,-1.4003487825393677,-4.207321643829346, -3.241722822189331
138,457113880,0.44899425,0.4213618,-0.52178806,0.59042007,9.30541706085205,-2.565185308456421,1.2932496070861816,3.3273656368255615,-8.140959739685059, -3.73895525932312
139,457130547,0.44795474,0.4231569,-0.52155167,0.5901345,9.470061302185059,-2.325124502182007,1.1625407934188843,7.382000923156738,-11.642439842224121, -3.9279539585113525
140,457147214,0.44600883,0.4259686,-0.5209313,0.5901336,9.405455589294434,-2.263256072998047,1.107608437538147,15.727313041687012,-17.015064239501953, -4.131362438201904
141,457163881,0.4437492,0.4291926,-0.5202994,0.59005845,9.581306457519531,-2.2341549396514893,1.2308710813522339,17.537363052368164,-19.963115692138672, -4.601116180419922
142,457180548,0.44226816,0.4316797,-0.52019334,0.5894492,9.611852645874023,-2.1662445068359375,1.0529236793518066,9.209513664245605,-17.44880485534668, -5.164462566375732
143,457197215,0.4409434,0.43402293,-0.5201438,0.5887645,9.540838241577148,-2.230726480484009,0.9418699145317078,7.5784807205200195,-16.65505027770996, -5.350243091583252
144,457213882,0.4392795,0.4367885,-0.5197328,0.58832574,9.643678665161133,-2.2452309131622314,1.0457175970077515,12.519811630249023,-17.822908401489258, -5.787212371826172
145,457230549,0.4388433,0.43818057,-0.5196056,0.5877284,9.996188163757324,-2.1752402782440186,1.2322496175765991,2.6998677253723145,-9.162395477294922, -5.486933708190918
146,457247216,0.43955132,0.43826285,-0.5198776,0.5868966,9.666635513305664,-2.158857583999634,1.1611416339874268,-7.222322463989258,-1.6995311975479126, -4.929293632507324
147,457263883,0.4414825,0.43699282,-0.52072775,0.5856393,9.38215160369873,-2.1349165439605713,0.7979533076286316,-18.922508239746094,5.094789028167725, -4.577469348907471
148,457280550,0.4431989,0.43581176,-0.52138793,0.58463466,9.100107192993164,-2.102266788482666,0.599705696105957,-15.417695999145508,5.092111110687256, -3.76412296295166
149,457297217,0.44420764,0.43526435,-0.5216026,0.58408505,9.113298416137695,-2.0818963050842285,0.6000723242759705,-8.93932056427002,2.9712724685668945, -3.2210795879364014
150,457313884,0.4446096,0.43530932,-0.5214756,0.58385915,9.18231201171875,-2.050642728805542,0.6390606164932251,-2.5809664726257324,0.39609405398368835, -2.927455186843872
151,457330551,0.44488373,0.43543985,-0.5212274,0.5837744,9.399338722229004,-2.0575034618377686,0.897404134273529,-0.9558916091918945,0.40107572078704834, -2.6508634090423584
152,457347218,0.44534987,0.43528038,-0.52102095,0.5837223,9.284602165222168,-2.049008846282959,0.7516752481460571,-3.5394062995910645,2.462155342102051, -2.238562822341919
153,457363885,0.44580197,0.4350907,-0.52081823,0.5836995,9.220746994018555,-2.0984973907470703,0.7598250508308411,-2.225346803665161,2.3244998455047607, -1.8676652908325195
154,457380552,0.44647202,0.4346722,-0.5206617,0.58363885,9.48211669921875,-2.0800437927246094,0.9459002017974854,-4.146478652954102,3.8296687602996826, -1.923091173171997
155,457397219,0.44783127,0.43339908,-0.5208333,0.5833911,9.507637977600098,-2.0279784202575684,1.059191107749939,-10.720575332641602,8.132966995239258, -1.2135690450668335
156,457413886,0.45008564,0.43101197,-0.5212869,0.5830195,9.566916465759277,-2.0928542613983154,0.9666523337364197,-18.4617862701416,14.573391914367676, -0.3591547906398773
157,457430553,0.45246115,0.42832258,-0.5216175,0.5828671,9.25428295135498,-2.0439133644104004,0.7693415284156799,-18.942094802856445,17.35039520263672, 0.5092008113861084
158,457447220,0.45425805,0.4262659,-0.52172387,0.5828818,9.248918533325195,-2.1203253269195557,0.8830268383026123,-13.885457038879395,13.964518547058105, 0.40262576937675476
159,457463887,0.45573214,0.42458934,-0.521783,0.5829019,9.458564758300781,-2.2325918674468994,1.1366046667099,-11.59736442565918,11.464082717895508, 0.19815923273563385
160,457480554,0.4569276,0.42325044,-0.52181035,0.5829154,9.41779899597168,-2.135368585586548,1.1148258447647095,-8.71874713897705,8.978888511657715, 0.06996752321720123
161,457497221,0.45779902,0.42229703,-0.5217862,0.5829448,9.464207649230957,-1.9760116338729858,1.1851437091827393,-6.724397659301758,6.571484088897705, -0.1583249270915985
162,457513888,0.4582903,0.4217569,-0.52178365,0.58295196,9.495230674743652,-1.9983371496200562,1.2274072170257568,-4.216376781463623,3.348771572113037, -0.0875186026096344
163,457530555,0.4584013,0.4216858,-0.5216609,0.58302593,9.417396545410156,-2.1409597396850586,1.321523666381836,-0.7224061489105225,0.6228047609329224, -0.35348087549209595
164,457547222,0.4580276,0.42224118,-0.5213462,0.5831992,9.371037483215332,-2.2937819957733154,1.3157014846801758,3.4111571311950684,-2.664630174636841, -0.9380395412445068
165,457563889,0.45726362,0.42335886,-0.52085614,0.58342636,9.485630989074707,-2.275277614593506,1.378676414489746,7.200250625610352,-5.622193813323975, -1.7354527711868286
166,457580556,0.45667404,0.42434815,-0.5205471,0.5834452,9.557064056396484,-2.0030810832977295,1.263260841369629,4.871593952178955,-5.690540790557861, -2.1018807888031006
167,457597223,0.4565474,0.42476285,-0.520567,0.5832248,9.506246566772461,-1.8202743530273438,1.078596591949463,-0.28659331798553467,-3.51047682762146, -1.6644158363342285
168,457613890,0.45641297,0.42512143,-0.5206154,0.5830254,9.259367942810059,-1.9928133487701416,1.0002617835998535,-0.6085193157196045,-3.314462900161743, -1.275935173034668
169,457630557,0.45609966,0.42574412,-0.52058196,0.5828461,9.26452350616455,-2.3045530319213867,1.1982014179229736,1.0460035800933838,-4.673895359039307, -1.6835228204727173
170,457647224,0.45550805,0.4267933,-0.52044916,0.5826601,9.32422161102295,-2.3938965797424316,1.2887355089187622,3.459015369415283,-7.073256492614746, -2.429121971130371
171,457663891,0.45441228,0.42850778,-0.5201872,0.5824913,9.232463836669922,-2.388932704925537,1.0620644092559814,7.832555294036865,-11.156131744384766, -3.105990409851074
172,457680558,0.45225492,0.43148008,-0.5196506,0.58245486,9.477371215820312,-2.1556570529937744,1.3627057075500488,16.432369232177734,-18.740392684936523, -3.765190601348877
173,457697225,0.4514054,0.43316224,-0.519904,0.58163875,9.7259521484375,-1.5322909355163574,0.9765454530715942,1.7773754596710205,-13.513691902160645, -4.541685581207275
174,457713892,0.45148468,0.43362877,-0.52088106,0.58035415,9.553059577941895,-1.5336742401123047,1.1297258138656616,-8.249164581298828,-9.213188171386719, -3.076791524887085
175,457730559,0.4518076,0.43372327,-0.52215713,0.57888347,9.414572715759277,-1.9093369245529175,0.8740882873535156,-12.310956954956055,-8.28242301940918, -2.3972861766815186
176,457747226,0.45237926,0.4335852,-0.5237867,0.5770654,9.46153736114502,-2.2977819442749023,1.0354019403457642,-16.340600967407227,-8.617147445678711, -2.561516284942627
177,457763893,0.45268187,0.43381086,-0.5254088,0.57518107,9.467658996582031,-2.48445987701416,0.9690744876861572,-14.51762866973877,-11.236790657043457, -3.0385279655456543
178,457780560,0.452123,0.4351769,-0.526194,0.57386917,9.615750312805176,-2.0847296714782715,0.9833605289459229,-3.3360698223114014,-14.485390663146973, -4.511194229125977
179,457797227,0.451396,0.43698582,-0.5268824,0.5724336,9.660038948059082,-2.1190929412841797,1.0546375513076782,-1.169643521308899,-16.998231887817383, -6.096341133117676
180,457813894,0.4504044,0.43924564,-0.5276163,0.5708068,9.638090133666992,-2.2082815170288086,1.0720247030258179,-0.21879687905311584,-20.38514518737793, -7.166253566741943
181,457830561,0.4489668,0.44208273,-0.52844876,0.5689761,9.346637725830078,-2.29878306388855,1.0262017250061035,2.0722455978393555,-25.272396087646484, -7.829617500305176
182,457847228,0.44639376,0.44624388,-0.5288409,0.5673857,9.412179946899414,-2.360589027404785,0.5227761268615723,12.003299713134766,-32.47013473510742, -8.815443992614746
183,457863895,0.44310564,0.4513029,-0.5290059,0.5658056,9.917621612548828,-2.1928136348724365,0.5947041511535645,17.83951187133789,-37.83454895019531, -9.967952728271484
184,457880562,0.44215968,0.45390898,-0.52998555,0.56353974,11.302592277526855,-1.8708655834197998,2.0247418880462646,-2.5631587505340576,-24.39093017578125, -9.717775344848633
185,457897229,0.4443346,0.45320475,-0.53198355,0.5605049,10.498275756835938,-1.7630963325500488,1.1466243267059326,-29.1763973236084,-5.768242359161377, -8.882577896118164
186,457913896,0.4472476,0.45169437,-0.534273,0.5572201,10.054390907287598,-1.7419843673706055,0.9131606817245483,-35.99784469604492,-1.6710572242736816, -8.62021255493164
187,457930563,0.44872618,0.45183906,-0.5360846,0.5541658,9.452374458312988,-1.9767839908599854,0.719126284122467,-23.850341796875,-11.113828659057617, -9.970884323120117
188,457947230,0.448704,0.4537548,-0.5373049,0.5514299,9.341742515563965,-2.017998695373535,0.5004926323890686,-10.25133991241455,-20.61284065246582, -11.640397071838379
189,457963897,0.44785044,0.45665273,-0.5381772,0.5488749,9.517542839050293,-1.8710815906524658,0.14434969425201416,-2.6836423873901367,-25.776647567749023, -12.651391983032227
190,457980564,0.4469169,0.45962012,-0.53875625,0.5465862,10.013293266296387,-1.7416521310806274,0.4177198112010956,-0.17657442390918732,-24.583660125732422, -12.704380989074707
191,457997231,0.4465646,0.46194074,-0.53893334,0.5447402,10.16671371459961,-1.467002272605896,0.29088538885116577,-0.8413783311843872,-17.385414123535156, -12.390711784362793
192,458013898,0.44603515,0.46428853,-0.5387272,0.5433801,9.63571834564209,-1.4016203880310059,0.008256113156676292,4.081920623779297,-15.621769905090332, -11.53676986694336
193,458030565,0.4450111,0.46694395,-0.53848064,0.54218763,9.146920204162598,-1.3801220655441284,-0.28480425477027893,7.378654479980469,-17.939985275268555, -10.42580795288086
194,458047232,0.4437012,0.46973485,-0.53841984,0.54090923,9.093565940856934,-1.2948745489120483,-0.5664817094802856,7.706395626068115,-20.32956886291504, -9.515571594238281
195,458063899,0.4421165,0.4729259,-0.53870744,0.5391368,9.325953483581543,-1.4494755268096924,-0.3647841811180115,6.698233604431152,-25.462491989135742, -10.341899871826172
196,458080566,0.4403176,0.47659612,-0.53937083,0.53670824,9.89639663696289,-2.2922396659851074,0.39546817541122437,5.032473564147949,-31.292020797729492, -12.087629318237305
197,458097233,0.43851864,0.4805527,-0.5403752,0.5336341,10.531298637390137,-2.7415497303009033,0.6909394860267639,2.2439849376678467,-35.52726745605469, -14.021220207214355
198,458113900,0.4365242,0.48512173,-0.5418738,0.52960026,11.194367408752441,-3.0330750942230225,0.9456976652145386,-0.6505418419837952,-43.213626861572266, -16.89411163330078
199,458130567,0.43546107,0.48914728,-0.54434824,0.5242077,12.06269645690918,-3.302671194076538,1.346989631652832,-14.01505184173584,-45.29934310913086, -19.151201248168945
200,458147234,0.43482167,0.4925811,-0.5477222,0.51797163,11.906135559082031,-3.647067070007324,1.2045063972473145,-23.62919044494629,-47.21512222290039, -18.044692993164062
201,458163901,0.43431512,0.49581885,-0.5516419,0.5111022,11.73687744140625,-2.9414796829223633,1.1895244121551514,-29.015119552612305,-49.894832611083984, -17.929222106933594
202,458180568,0.43348855,0.4989399,-0.55595887,0.5040402,11.353435516357422,-3.1043753623962402,0.5761338472366333,-30.42081642150879,-52.648475646972656, -15.653827667236328
203,458197235,0.43184835,0.5023692,-0.5601346,0.49737468,10.843719482421875,-2.409214735031128,0.034205831587314606,-24.72726821899414,-55.126182556152344, -13.400731086730957
204,458213902,0.43032536,0.5052562,-0.5646018,0.49067435,10.189204216003418,-2.072991371154785,0.10936164110898972,-27.89005470275879,-53.8619499206543, -10.862517356872559
205,458230569,0.42857057,0.50758463,-0.5683972,0.4853966,9.791678428649902,-1.6909441947937012,1.6884486675262451,-20.966785430908203,-46.01104736328125, -6.0776801109313965
206,458247236,0.42379954,0.5093073,-0.5711535,0.48454484,7.564141273498535,-5.555238246917725,4.825502872467041,8.508058547973633,-37.41815185546875, 15.754063606262207
207,458263903,0.4131546,0.5127111,-0.5693031,0.49226493,7.230199337005615,-5.918027877807617,6.328555107116699,82.88900756835938,-22.95195770263672, 37.368263244628906
208,458280570,0.4042309,0.5142069,-0.5646374,0.503362,7.574334621429443,-2.0786571502685547,7.675942897796631,94.03054809570312,9.757918357849121, 38.499481201171875
209,458297237,0.40300447,0.51003623,-0.5609558,0.5126199,7.693575859069824,-0.8391282558441162,7.640203952789307,40.42852020263672,49.57279968261719, 32.240699768066406
210,458313904,0.40760374,0.501073,-0.55808026,0.5208952,7.907125473022461,-1.2951459884643555,6.573925971984863,0.010495089925825596,82.84040069580078, 30.338050842285156
211,458330571,0.41374603,0.48978046,-0.5544306,0.53059983,8.378846168518066,-1.9377124309539795,5.26172399520874,-3.6474413871765137,103.8570785522461, 35.086360931396484
212,458347238,0.4196253,0.47769326,-0.5491581,0.54235536,8.757013320922852,-2.0065839290618896,4.022578239440918,8.651265144348145,117.01602172851562, 39.415435791015625
213,458363905,0.42477235,0.4656727,-0.5418154,0.5560158,9.269424438476562,-1.8026374578475952,2.927737236022949,23.70159912109375,126.55496215820312, 40.66276550292969
214,458380572,0.42963928,0.45352802,-0.5331433,0.5705094,9.694437026977539,-1.327163577079773,2.098389148712158,32.32514953613281,132.46481323242188, 40.292869567871094
215,458397239,0.43394873,0.4417034,-0.52315855,0.5855698,10.104063987731934,-1.283449411392212,1.1425480842590332,42.79987335205078,134.6479034423828, 38.87060546875
216,458413906,0.43836302,0.42977127,-0.5122247,0.6006334,10.528514862060547,-0.9199458956718445,0.5935099720954895,46.38560104370117,138.23422241210938, 35.993778228759766
217,458430573,0.44392654,0.4172673,-0.50134856,0.61438334,11.047224044799805,-0.5510042309761047,0.11597974598407745,37.84137725830078,140.294189453125, 29.704486846923828
218,458447240,0.4506093,0.40413195,-0.49112743,0.62643635,11.267359733581543,-0.7318215370178223,-0.5225551128387451,24.091707229614258,140.06536865234375, 23.962249755859375
219,458463907,0.45736617,0.39104632,-0.48146695,0.637251,10.807132720947266,-1.066260576248169,-0.687433660030365,17.460826873779297,135.0912628173828, 21.290607452392578
220,458480574,0.46336302,0.37863144,-0.47253463,0.6470273,10.383142471313477,-1.544884204864502,-0.9711555242538452,15.008227348327637,124.74417114257812, 21.164440155029297
221,458497241,0.46814504,0.36734968,-0.46395382,0.65623266,10.017841339111328,-1.9130629301071167,-0.8088133335113525,18.397457122802734,113.36454772949219, 22.034088134765625
222,458513908,0.47187784,0.3571152,-0.45537385,0.6651579,9.689010620117188,-2.0607738494873047,-0.3579701781272888,23.56032371520996,104.79713439941406, 22.565521240234375
223,458530575,0.47500983,0.3476307,-0.446884,0.67365676,9.755546569824219,-2.0550336837768555,0.20869533717632294,25.759906768798828,98.34832763671875, 21.836854934692383
224,458547242,0.4778738,0.3388693,-0.4387639,0.68138874,9.866914749145508,-2.026210308074951,0.5363059043884277,24.725587844848633,91.32279205322266, 19.27313232421875
225,458563909,0.4805655,0.33086327,-0.43118617,0.68823314,9.898232460021973,-2.3989968299865723,0.9156090021133423,22.423017501831055,83.60003662109375, 16.19173812866211
226,458580576,0.48311555,0.32349488,-0.4244083,0.6941385,9.597900390625,-2.5714073181152344,1.2217389345169067,18.321916580200195,75.56253051757812, 13.71668815612793
227,458597243,0.48556066,0.31656098,-0.41859844,0.699139,9.122941017150879,-2.8127684593200684,1.586769700050354,12.777668952941895,68.123046875, 12.113787651062012
228,458613910,0.48804206,0.30967742,-0.4140286,0.70320356,8.714470863342285,-2.509568452835083,1.8088144063949585,4.2562055587768555,61.95816421508789, 11.369221687316895
229,458630577,0.49047527,0.3029898,-0.41061133,0.70642036,8.378057479858398,-2.367784261703491,1.6327391862869263,-2.9341342449188232,55.3394660949707, 10.661323547363281
230,458647244,0.49230903,0.29736447,-0.40770894,0.70921063,8.091158866882324,-2.1783862113952637,1.6131312847137451,-1.7713626623153687,46.004451751708984, 10.219066619873047
231,458663911,0.4932373,0.2936451,-0.40487233,0.711736,7.957263469696045,-2.205705404281616,1.3539220094680786,5.500242710113525,33.54767990112305, 8.548422813415527
232,458680578,0.49324083,0.29182512,-0.40213588,0.7140297,7.760824203491211,-2.2155494689941406,1.7940562963485718,12.711335182189941,21.019948959350586, 7.224621772766113
233,458697245,0.4927587,0.29116592,-0.39977318,0.71595585,7.630659580230713,-2.3529016971588135,2.23394775390625,14.804580688476562,12.101052284240723, 5.9242329597473145
234,458713912,0.49224898,0.2908873,-0.39825723,0.71726346,7.6866583824157715,-2.3205671310424805,2.70782208442688,10.311928749084473,6.152782440185547, 4.627263069152832
235,458730579,0.49182886,0.2909106,-0.39771944,0.71784043,7.776803493499756,-2.2671496868133545,2.87644100189209,4.353755950927734,0.22786980867385864, 2.8570523262023926
236,458747246,0.4910085,0.2919287,-0.3977993,0.71794444,7.899070739746094,-2.1650919914245605,2.6524033546447754,4.197301387786865,-8.725172996520996, 1.766053557395935
237,458763913,0.48881564,0.29528794,-0.39766645,0.71814054,8.170724868774414,-2.299990177154541,1.9266160726547241,16.17848014831543,-23.03680419921875, 2.0458905696868896
238,458780580,0.48505658,0.3018205,-0.39685306,0.71842355,8.440631866455078,-2.30454683303833,1.130193829536438,33.655845642089844,-40.39678192138672, 0.03676098585128784
239,458797247,0.48081082,0.31016126,-0.39634562,0.71800494,8.886370658874512,-1.7450753450393677,0.40974146127700806,37.315486907958984,-52.97463607788086, -4.174509525299072
240,458813914,0.47715145,0.31836364,-0.39778087,0.7160598,8.800454139709473,-1.5174622535705566,-0.5770065784454346,21.899436950683594,-60.181488037109375, -7.550644397735596
241,458830581,0.47410414,0.32678157,-0.4014119,0.7122554,8.468653678894043,-1.5290337800979614,-0.8318700790405273,5.4189581871032715,-70.62613677978516, -12.400447845458984
242,458847248,0.47196704,0.3338376,-0.40794086,0.7066712,9.048970222473145,-2.674844741821289,3.905578851699829,-20.119426727294922,-74.68180084228516, -12.349801063537598
243,458863915,0.47140628,0.33648673,-0.41396293,0.7022733,6.047049522399902,-10.59219741821289,21.602657318115234,-32.234771728515625,-44.45184326171875, -4.9578776359558105
244,458880582,0.47186977,0.33961588,-0.4171773,0.6985437,11.037004470825195,-4.5228657722473145,7.924161911010742,-17.646705627441406,-33.924583435058594, -15.935601234436035
245,458897249,0.46851042,0.34634146,-0.4252791,0.69259185,15.490057945251465,-1.0397695302963257,-1.176934003829956,-26.909767150878906,-83.3011474609375, -3.7339465618133545
246,458913916,0.46364722,0.35434717,-0.4334648,0.6867153,12.715839385986328,1.222999095916748,3.636883497238159,-19.34548568725586,-93.5551528930664, 0.2669377624988556
247,458930583,0.4614161,0.36045158,-0.4417917,0.67969847,8.675642967224121,1.2839101552963257,4.25488805770874,-35.933284759521484,-79.88866424560547, -9.586736679077148
248,458947250,0.45957273,0.36384684,-0.45175138,0.6725542,8.02802848815918,-2.4047882556915283,2.4931492805480957,-53.5613899230957,-71.58116912841797, 0.6234754920005798
249,458963917,0.45655113,0.36672384,-0.4607708,0.6669072,9.568854331970215,-4.946071624755859,0.618979275226593,-43.23638916015625,-66.1112289428711, 10.0585298538208
250,458980584,0.4531152,0.36948302,-0.46775118,0.66285574,10.991487503051758,-4.86305046081543,-0.4023214280605316,-28.092981338500977,-56.355491638183594, 12.116512298583984
251,458997251,0.44957206,0.37238067,-0.4733422,0.6596705,9.817174911499023,-3.1462326049804688,1.0137872695922852,-18.202680587768555,-50.648155212402344, 11.26760196685791
252,459013918,0.44606417,0.3748019,-0.47810552,0.65724087,9.258866310119629,-2.2834267616271973,1.8776044845581055,-13.52325439453125,-43.80440139770508, 12.870208740234375
253,459030585,0.4435403,0.3761187,-0.4830113,0.6546044,9.982576370239258,-1.4455106258392334,2.5453927516937256,-20.76285743713379,-36.52217102050781, 11.811036109924316
254,459047252,0.44178557,0.3761237,-0.48869017,0.6515662,10.36192512512207,-1.7321404218673706,1.8171857595443726,-31.57587242126465,-31.458471298217773, 13.547947883605957
255,459063919,0.43992364,0.3757445,-0.4944111,0.64872265,9.510887145996094,-3.2364962100982666,1.7895772457122803,-31.99970245361328,-29.693513870239258, 16.08289337158203
256,459080586,0.43826327,0.37531224,-0.49914876,0.64646465,9.192564010620117,-3.4844348430633545,1.948621392250061,-26.291996002197266,-24.269182205200195, 14.589920997619629
257,459097253,0.43708313,0.37484318,-0.5034868,0.64416766,9.349895477294922,-3.445432662963867,2.0251874923706055,-25.99045181274414,-21.350128173828125, 11.418148040771484
258,459113920,0.43659472,0.37414426,-0.5083017,0.64111674,9.07485294342041,-3.8187100887298584,2.560044527053833,-33.17953109741211,-21.315162658691406, 8.103436470031738
259,459130587,0.43664497,0.37354112,-0.5131888,0.63753086,9.317705154418945,-3.5530693531036377,2.5005874633789062,-36.466529846191406,-21.476640701293945, 3.948075294494629
260,459147254,0.43696532,0.373021,-0.5182631,0.63349825,9.30982780456543,-4.09186315536499,1.9086378812789917,-39.312538146972656,-22.623884201049805, 1.6007987260818481
261,459163921,0.4370968,0.37321562,-0.5224583,0.62983644,9.158020973205566,-3.8084912300109863,0.9701991081237793,-31.5245304107666,-22.824634552001953, -1.294677495956421
262,459180588,0.4372153,0.3739642,-0.5254371,0.626825,9.042588233947754,-3.7087490558624268,0.7090883255004883,-22.209047317504883,-19.920557022094727, -4.416693210601807
263,459197255,0.43751067,0.37469664,-0.5277699,0.6242163,8.918622970581055,-3.4779052734375,1.0012816190719604,-18.458499908447266,-16.20307731628418, -5.590176582336426
264,459213922,0.43787253,0.37540907,-0.52986896,0.6217513,9.094300270080566,-2.922637701034546,1.2983194589614868,-17.157968521118164,-14.786237716674805, -5.9854044914245605
265,459230589,0.43775177,0.3766118,-0.53171945,0.61952525,9.094237327575684,-3.3086838722229004,1.503505825996399,-12.503039360046387,-17.2717227935791, -5.620998382568359
266,459247256,0.43761605,0.37790108,-0.5333957,0.61739147,9.150944709777832,-3.65376615524292,1.3460763692855835,-11.125110626220703,-16.937475204467773, -6.052827835083008
267,459263923,0.4378774,0.37888646,-0.5349874,0.6152212,8.740986824035645,-3.8221917152404785,1.0884783267974854,-12.843596458435059,-14.032794952392578, -6.9713897705078125
268,459280590,0.4382951,0.37992865,-0.53633386,0.61310524,8.541589736938477,-3.7663426399230957,1.042683720588684,-11.838640213012695,-12.814241409301758, -8.346868515014648
269,459297257,0.4387021,0.38116816,-0.53762543,0.6109095,8.451675415039062,-3.7921533584594727,1.0728548765182495,-11.274431228637695,-13.724802017211914, -9.44431209564209
270,459313924,0.43878958,0.382835,-0.53888226,0.6086928,8.31757640838623,-4.006373882293701,1.180831789970398,-9.076579093933105,-16.651365280151367, -9.869305610656738
271,459330591,0.43854973,0.38520303,-0.53975856,0.6065918,8.705875396728516,-3.1291017532348633,1.2043790817260742,-4.077434062957764,-19.352567672729492, -11.79384994506836
272,459347258,0.43783635,0.3880776,-0.5409882,0.60417473,8.535456657409668,-3.4319214820861816,1.3586727380752563,-3.945096492767334,-25.13188934326172, -11.723347663879395
273,459363925,0.43612725,0.3919938,-0.5421217,0.60186225,8.606613159179688,-3.6447393894195557,1.3387953042984009,2.6313765048980713,-32.6095085144043, -11.425885200500488
274,459380592,0.4335111,0.39708853,-0.5428098,0.5997887,8.66777515411377,-3.535865306854248,1.1755940914154053,11.340408325195312,-38.9045524597168, -12.580090522766113
275,459397259,0.43082753,0.40288094,-0.54301035,0.59767413,9.949663162231445,-1.1768330335617065,1.1762539148330688,15.45734977722168,-40.706302642822266, -16.387617111206055
276,459413926,0.4283558,0.40816882,-0.544491,0.59450775,9.847223281860352,-1.6243596076965332,1.4630197286605835,4.177790641784668,-44.55830764770508, -14.873052597045898
277,459430593,0.42555118,0.4133267,-0.54684794,0.5907833,10.040369033813477,-1.8497875928878784,1.1693676710128784,-0.9531981348991394,-49.44720458984375, -12.15874195098877
278,459447260,0.42241976,0.41865978,-0.5497019,0.5866119,9.866029739379883,-2.4860901832580566,0.7320830225944519,-3.218590259552002,-54.13135528564453, -11.341961860656738
279,459463927,0.41831574,0.42515337,-0.5523551,0.582375,9.48837947845459,-3.1931838989257812,0.2943055033683777,3.511185646057129,-62.102928161621094, -12.556841850280762
280,459480594,0.41247842,0.4337906,-0.55470496,0.5779185,9.314743041992188,-4.2483038902282715,-0.42937129735946655,15.125737190246582,-77.03943634033203, -15.291231155395508
281,459497261,0.40494627,0.44448182,-0.5570253,0.57286745,9.199135780334473,-5.017014980316162,0.4443168640136719,23.861711502075195,-93.33641815185547, -18.22258186340332
282,459513928,0.3958916,0.45739645,-0.5579877,0.56807417,9.85453987121582,-4.382047653198242,-0.2760281562805176,41.03303146362305,-103.3787612915039, -24.260793685913086
283,459530595,0.38667998,0.47059608,-0.55913484,0.5624824,10.288718223571777,-3.296175241470337,0.6121013164520264,38.51040267944336,-108.11295318603516, -26.393754959106445
284,459547262,0.3779479,0.48335993,-0.5610895,0.5556052,10.77110481262207,-2.79081392288208,0.49045512080192566,27.71782875061035,-110.93689727783203, -27.39449691772461
285,459563929,0.36916557,0.49617457,-0.5632837,0.5479409,11.630149841308594,-1.4945776462554932,0.3283866047859192,24.049638748168945,-114.6158447265625, -28.6436824798584
286,459580596,0.36062443,0.5086132,-0.566265,0.5390794,12.4335355758667,-1.372535228729248,0.39125868678092957,14.660776138305664,-118.40896606445312, -28.394847869873047
287,459597263,0.35184377,0.5213481,-0.56968653,0.5290173,13.717485427856445,-2.188208818435669,1.4652248620986938,9.917434692382812,-125.80941009521484, -30.034671783447266
288,459613930,0.3424034,0.53509945,-0.57341194,0.5173271,15.211029052734375,-3.2964296340942383,2.644763946533203,7.23761510848999,-138.80166625976562, -34.42229080200195
289,459630597,0.33324018,0.54862654,-0.5789931,0.50271976,15.698010444641113,-3.780954122543335,4.634652614593506,-12.448796272277832,-152.22125244140625, -34.5498046875
290,459647264,0.3258196,0.56066394,-0.58763206,0.4839279,16.153186798095703,-3.706721067428589,7.267282009124756,-49.723445892333984,-163.22630310058594, -32.70146942138672
291,459663931,0.32850987,0.5669797,-0.60201347,0.45628408,18.258249282836914,-3.1397080421447754,11.14472484588623,-156.47796630859375,-150.7442169189453, -40.95039367675781
292,459680598,0.33646014,0.57216877,-0.6166028,0.42334217,16.288484573364258,-2.8681142330169678,6.142530918121338,-202.20640563964844,-147.1498565673828, -64.00740051269531
293,459697265,0.33567932,0.5842908,-0.6268745,0.39109084,15.077935218811035,-2.9278883934020996,-3.3887178897857666,-136.33572387695312,-192.0540008544922, -83.46367645263672
294,459713932,0.32541156,0.59996694,-0.63322806,0.36492386,17.7899169921875,-3.552639961242676,-3.785573720932007,-53.23087692260742,-209.1168975830078, -75.03575897216797
295,459730599,0.31162643,0.61490655,-0.6366619,0.3456021,15.311763763427734,-6.264950275421143,0.5204411745071411,-3.246713876724243,-187.97271728515625, -59.783287048339844
296,459747266,0.29720795,0.62669957,-0.6384878,0.33353934,10.086731910705566,-5.131389617919922,6.254153728485107,28.195226669311523,-149.4075469970703, -35.86322021484375
297,459763933,0.28601667,0.6343676,-0.6391112,0.32758114,8.09718132019043,-5.806851863861084,10.424185752868652,35.31723403930664,-97.36863708496094, -17.941856384277344
298,459780600,0.27726153,0.6375108,-0.63774604,0.3316419,6.428706169128418,-6.613984107971191,13.644804000854492,64.16474914550781,-29.290679931640625, 7.399966239929199
299,459797267,0.27531394,0.63717586,-0.63345075,0.34197867,4.6169023513793945,-2.768332004547119,12.527936935424805,61.73545837402344,41.112342834472656, 6.15461540222168
300,459813934,0.28440028,0.6312055,-0.628616,0.3543136,5.516698837280273,-2.2118325233459473,9.99918270111084,12.630011558532715,111.804931640625, 6.140655994415283
301,459830601,0.30154455,0.6204869,-0.62205523,0.37028933,6.1537041664123535,-2.72910213470459,8.07224178314209,-11.726323127746582,177.05841064453125, 6.585648536682129
302,459847268,0.32160938,0.60714364,-0.6123048,0.3911867,7.354175567626953,-2.22332501411438,5.971263885498047,-0.4820391535758972,223.5775146484375, 6.85842752456665
303,459863935,0.3410455,0.5922547,-0.5996504,0.41634333,8.31631088256836,-3.066354990005493,3.7910289764404297,24.474824905395508,249.06361389160156, 12.273280143737793
304,459880602,0.35856652,0.57605135,-0.5846744,0.44469187,9.277325630187988,-3.855741024017334,1.3527069091796875,49.00110626220703,263.2002258300781, 21.140853881835938
305,459897269,0.374187,0.55844176,-0.5672009,0.47582573,10.106674194335938,-5.106561183929443,-0.020119041204452515,71.9045181274414,276.9543151855469, 29.528141021728516
306,459913936,0.38900253,0.53879863,-0.54795516,0.50805336,11.106266975402832,-5.475525856018066,-0.8133190274238586,79.83319091796875,289.18548583984375, 36.03754806518555
307,459930603,0.40311578,0.51663584,-0.5284251,0.5397704,11.885135650634766,-6.42988920211792,-1.3517097234725952,74.7762680053711,294.20806884765625, 45.49909210205078
308,459947270,0.41540778,0.4919802,-0.5089609,0.5712711,12.837809562683105,-6.940349102020264,-1.747157335281372,73.32412719726562,295.9345703125, 60.858516693115234
309,459963937,0.42614624,0.4649388,-0.48959818,0.60210055,13.916659355163574,-6.905675411224365,-2.0293195247650146,69.0451431274414,297.3984069824219, 73.63789367675781
310,459980604,0.43691245,0.43478113,-0.4715727,0.63062847,15.849287033081055,-5.455013275146484,-2.5134334564208984,46.57802963256836,299.2575988769531, 81.4443130493164
311,459997271,0.44705194,0.4025993,-0.45507127,0.65648186,16.86461639404297,-4.221541404724121,-3.6840991973876953,27.144147872924805,293.6327209472656, 87.19058227539062
312,460013938,0.45556298,0.3702854,-0.43944716,0.6798805,17.120088577270508,-3.186168909072876,-4.336375713348389,19.67289161682129,279.9544982910156, 89.83309173583984
313,460030605,0.46184725,0.33965582,-0.4238703,0.7011884,16.91176986694336,-1.9566802978515625,-4.6789021492004395,24.161603927612305,260.293212890625, 88.78721618652344
314,460047272,0.4660033,0.31255546,-0.40782928,0.7202953,16.33869171142578,-0.7602611184120178,-5.968298435211182,36.24269104003906,233.87791442871094, 80.820556640625
315,460063939,0.46833766,0.2904518,-0.39146706,0.7369201,15.457660675048828,0.39913806319236755,-7.78775691986084,50.87945556640625,200.24099731445312, 67.37403869628906
316,460080606,0.47043762,0.27213013,-0.3770642,0.7499708,14.493423461914062,0.7895548343658447,-10.596936225891113,44.05386734008789,167.5617218017578, 50.995758056640625
317,460097273,0.47305003,0.25673917,-0.36810002,0.75816286,13.233800888061523,0.8083978295326233,-15.715670585632324,12.026790618896484,127.6932144165039, 35.407840728759766
318,460113940,0.47472963,0.24724397,-0.36692274,0.76083523,12.107684135437012,0.17214131355285645,-19.361801147460938,-21.5830020904541,60.17774963378906, 21.30519676208496
319,460130607,0.4753782,0.24360776,-0.3746315,0.75784034,11.94261360168457,0.6674438714981079,-17.817543029785156,-61.33272933959961,-11.066915512084961, 8.655593872070312
320,460147274,0.47455746,0.24462795,-0.3883807,0.75107455,10.781827926635742,-0.7346477508544922,-13.954925537109375,-84.72367858886719,-64.63719177246094, 2.2419626712799072
321,460163941,0.47186372,0.25023878,-0.40247032,0.74346685,9.97293472290039,-0.8361574411392212,-8.882006645202637,-70.50437927246094,-95.49073791503906, -2.424849033355713
322,460180608,0.4657332,0.26244745,-0.40804705,0.7400755,13.52840805053711,-2.0069210529327393,12.360844612121582,12.045391082763672,-103.62508392333984, -4.015405654907227
323,460197275,0.45786798,0.27930835,-0.40601745,0.7399282,13.717361450195312,-7.968518257141113,15.287551879882812,77.77430725097656,-102.07526397705078, -11.523941993713379
324,460213942,0.45096418,0.30120045,-0.40760025,0.7346916,22.78268051147461,8.699317932128906,1.385867953300476,59.12880325317383,-146.30128479003906, -39.59698486328125
325,460230609,0.44363502,0.31616154,-0.42169097,0.7248495,19.146108627319336,6.7364501953125,0.8689603805541992,-37.68678665161133,-160.64675903320312, -6.12796688079834
326,460247276,0.4377121,0.32548666,-0.4408372,0.71283185,10.631824493408203,-1.8487132787704468,2.740914821624756,-89.49592590332031,-148.55136108398438, 7.760351657867432
327,460263943,0.43106475,0.3332663,-0.45755103,0.7026833,6.259125709533691,-11.264212608337402,-3.529107093811035,-74.92208862304688,-131.71047973632812, 16.181217193603516
328,460280610,0.42337197,0.34227416,-0.46511424,0.69804966,7.633868217468262,-8.538846015930176,-1.7587331533432007,-7.223905086517334,-101.15172576904297, 12.57999324798584
329,460297277,0.4184407,0.34954527,-0.4700563,0.6940984,7.837649345397949,-5.264346122741699,0.3139599561691284,-3.9680233001708984,-74.750732421875, 0.5900578498840332
330,460313944,0.41447952,0.35722348,-0.47307757,0.6905041,8.558555603027344,-4.954885482788086,2.089574098587036,5.197273254394531,-67.20911407470703, -8.994828224182129
331,460330611,0.41268444,0.3640513,-0.47658584,0.68558306,8.549711227416992,-4.622770309448242,1.4276371002197266,-9.184000968933105,-60.82651138305664, -19.132450103759766
332,460347278,0.4119427,0.36975712,-0.48125717,0.679687,8.853711128234863,-3.9332873821258545,2.938629627227783,-23.69109344482422,-57.8689079284668, -20.301856994628906
333,460363945,0.41140807,0.37487268,-0.48514906,0.6744215,11.14762020111084,-1.3999261856079102,2.073269844055176,-20.180879592895508,-50.67164993286133, -19.525175094604492
334,460380612,0.40911663,0.38030297,-0.48774832,0.6708912,10.973329544067383,-2.362186908721924,2.063760995864868,-3.001784563064575,-49.89811706542969, -10.825767517089844
335,460397279,0.40636906,0.38542655,-0.49030492,0.6677662,10.729228019714355,-1.796141266822815,2.094541311264038,-1.1327825784683228,-48.86774826049805, -6.655338287353516
336,460413946,0.40522495,0.38805473,-0.49467295,0.66370547,10.059967041015625,-2.0338659286499023,1.7580116987228394,-23.839031219482422,-39.58038330078125, -3.4046449661254883
337,460430613,0.40638262,0.38785073,-0.5008853,0.65843695,9.867131233215332,-3.1154837608337402,1.8096176385879517,-50.407562255859375,-27.220144271850586, -2.7098546028137207
338,460447280,0.4087351,0.3864082,-0.5073852,0.65282834,9.572999000549316,-3.494863748550415,1.6097851991653442,-59.53565216064453,-19.239885330200195, -4.037795066833496
339,460463947,0.41100428,0.38520318,-0.5132588,0.6475025,9.234625816345215,-3.0959720611572266,1.1490874290466309,-54.85585021972656,-18.113128662109375, -5.366743087768555
340,460480614,0.4132067,0.38439262,-0.5188926,0.64206946,8.512256622314453,-3.1959617137908936,0.9079445600509644,-52.88100814819336,-19.732494354248047, -7.40242338180542
341,460497281,0.41529867,0.3838105,-0.5244188,0.6365546,8.300031661987305,-3.8295061588287354,0.6977059841156006,-51.7613639831543,-21.06495475769043, -8.25267219543457
342,460513948,0.41724443,0.3835272,-0.52945906,0.63125837,8.628887176513672,-3.8978543281555176,0.8216540813446045,-47.6103515625,-20.951904296875, -9.359868049621582
343,460530615,0.41859943,0.38412848,-0.53366584,0.6264349,8.67109489440918,-3.8432693481445312,1.0095317363739014,-38.17995834350586,-23.321088790893555, -10.869136810302734
344,460547282,0.41877073,0.3863764,-0.53656983,0.6224447,8.737566947937012,-3.5461862087249756,1.0476703643798828,-21.651268005371094,-28.82474136352539, -12.86679744720459
345,460563949,0.41828626,0.38912788,-0.5391865,0.6187844,8.937424659729004,-3.0818827152252197,0.836952269077301,-16.01671028137207,-31.712709426879883, -11.739381790161133
346,460580616,0.4177206,0.39171544,-0.54197687,0.615085,9.308114051818848,-3.0285305976867676,0.844641923904419,-17.160402297973633,-31.935394287109375, -10.437536239624023
347,460597283,0.41695565,0.39431724,-0.54481053,0.6114275,9.46656608581543,-2.8829076290130615,0.8614117503166199,-16.613723754882812,-32.7628288269043, -9.413688659667969
348,460613950,0.41609994,0.39696154,-0.54786766,0.6075554,9.516789436340332,-2.7241017818450928,0.8747996091842651,-17.99359703063965,-34.51784133911133, -9.202962875366211
349,460630617,0.4152808,0.3995465,-0.5516797,0.6029546,9.483259201049805,-2.641484022140503,1.0018669366836548,-24.165185928344727,-38.29346466064453, -9.155263900756836
350,460647284,0.41412285,0.40265828,-0.55589265,0.59778947,9.406620025634766,-3.41801118850708,0.942665696144104,-25.5376033782959,-44.47125244140625, -10.25849723815918
351,460663951,0.41190794,0.40709803,-0.56007326,0.5923858,9.117338180541992,-4.204301357269287,0.5587198734283447,-19.61267852783203,-54.55068588256836, -11.76418685913086
352,460680618,0.40838587,0.41330594,-0.56391484,0.5868554,8.929363250732422,-4.4265642166137695,0.2782936096191406,-10.055851936340332,-66.19058990478516, -14.568449020385742
353,460697285,0.4035444,0.4215653,-0.5673839,0.5809563,9.252527236938477,-4.00162410736084,0.030239827930927277,-0.47407665848731995,-79.59362030029297, -19.30486488342285
354,460713952,0.3975169,0.43196502,-0.57057935,0.5743046,9.749231338500977,-3.687042236328125,0.27296870946884155,7.057503700256348,-94.20034790039062, -25.80718994140625
355,460730619,0.3897038,0.44477326,-0.57335424,0.5670737,10.660723686218262,-3.1559059619903564,0.3713343143463135,18.327354431152344,-111.29692840576172, -31.042917251586914
356,460747286,0.3797052,0.4599634,-0.57560307,0.55940926,11.713667869567871,-3.1845695972442627,1.0067790746688843,31.73366355895996,-129.12884521484375, -34.68330383300781
357,460763953,0.3679994,0.4764738,-0.5779279,0.5509526,12.662470817565918,-2.623758554458618,1.04192054271698,37.14811706542969,-143.6849365234375, -35.17017364501953
358,460780620,0.35666898,0.492866,-0.5811067,0.5405419,14.208127975463867,-1.2105103731155396,1.7573423385620117,24.61346435546875,-150.3273162841797, -38.2640380859375
359,460797287,0.34572038,0.50909233,-0.5855927,0.5276208,15.828304290771484,-2.8705403804779053,4.137004852294922,8.020075798034668,-159.9235382080078, -40.73245620727539
360,460813954,0.33525115,0.5255851,-0.5914548,0.51141787,17.402023315429688,-4.442551612854004,6.5413103103637695,-11.241252899169922,-173.7637939453125, -46.522918701171875
361,460830621,0.32548964,0.54163116,-0.59988445,0.49074516,17.222305297851562,-5.813135147094727,9.734598159790039,-42.050880432128906,-191.45001220703125, -48.22171401977539
362,460847288,0.31626296,0.5571465,-0.6115379,0.46431363,17.469539642333984,-5.837552547454834,12.027689933776855,-79.88550567626953,-216.20321655273438, -48.73411560058594
363,460863955,0.32225612,0.5648179,-0.62981313,0.42481455,18.161495208740234,-4.650553226470947,7.241904258728027,-231.40695190429688,-191.73475646972656, -67.42028045654297
364,460880622,0.3174419,0.578507,-0.64149857,0.39120317,16.07200813293457,-1.9717708826065063,-5.987724304199219,-131.32925415039062,-218.69871520996094, -74.47150421142578
365,460897289,0.30570102,0.59372085,-0.6468889,0.36820805,17.964656829833984,-5.281594753265381,-2.6076207160949707,-36.66064453125,-197.3557891845703, -64.4244384765625
366,460913956,0.2893439,0.60857093,-0.64822465,0.35457936,14.583508491516113,-8.190020561218262,2.138363838195801,33.34358215332031,-170.21978759765625, -47.98849868774414
367,460930623,0.27665287,0.61924785,-0.6481756,0.3462135,10.880200386047363,-7.359387397766113,7.541045665740967,36.51212692260742,-118.95738983154297, -33.66876220703125
368,460947290,0.268059,0.62541014,-0.6461648,0.34565568,7.767070770263672,-7.580643653869629,14.269159317016602,49.92499923706055,-53.02140808105469, -16.818256378173828
369,460963957,0.26920378,0.62579954,-0.6435332,0.3489548,6.1500420570373535,-4.595558166503906,13.14754867553711,15.989944458007812,21.62749481201172, -9.893548011779785
370,460980624,0.27842197,0.6214958,-0.63945544,0.35682082,4.951849937438965,-2.203941583633423,10.843234062194824,-3.770683765411377,90.88619232177734, -6.282287120819092
371,460997291,0.29481664,0.6115428,-0.6349854,0.36863557,4.231302261352539,-2.7256224155426025,9.925580024719238,-26.93452262878418,153.89569091796875, 6.822729110717773
372,461013958,0.31615502,0.5971635,-0.6285678,0.38515487,4.660233497619629,-2.443925142288208,7.934988975524902,-31.224849700927734,210.4205322265625, 14.949397087097168
373,461030625,0.33936775,0.57947075,-0.61958456,0.40639678,5.915874481201172,-2.2530910968780518,6.027535438537598,-18.920578002929688,252.26800537109375, 24.02322006225586
374,461047292,0.36128682,0.55986035,-0.6074876,0.43242025,7.563224792480469,-2.614874839782715,4.300680160522461,10.84099292755127,278.4371643066406, 34.548213958740234
375,461063959,0.38014558,0.53933656,-0.59193355,0.46283928,9.274456977844238,-3.4613614082336426,2.1551389694213867,49.00029373168945,293.8874816894531, 45.07077407836914
376,461080626,0.39735174,0.51707923,-0.57346565,0.49586082,11.309062957763672,-3.647430896759033,0.7816293239593506,70.47190856933594,309.9659118652344, 53.38139343261719
377,461097293,0.41505155,0.49194372,-0.5534951,0.52855176,12.921003341674805,-3.664524793624878,-0.11018610000610352,64.68296813964844,324.677978515625, 56.799415588378906
378,461113960,0.43382913,0.46364862,-0.53356946,0.55868256,14.104818344116211,-4.149201393127441,-1.074105978012085,42.118751525878906,331.49542236328125, 57.75012969970703
379,461130627,0.45103127,0.43353564,-0.51364344,0.5871867,15.38185977935791,-5.41884183883667,-2.542236566543579,35.7573127746582,327.5375671386719, 65.6141586303711
380,461147294,0.46382827,0.4035288,-0.49276638,0.61579984,16.71479606628418,-6.353762149810791,-3.72359299659729,53.462310791015625,314.85791015625, 80.52420806884766
381,461163961,0.4722246,0.37376365,-0.4709559,0.64459705,17.871828079223633,-6.184014797210693,-5.049325942993164,71.04129791259766,302.4576721191406, 96.33531188964844
382,461180628,0.4769972,0.34574088,-0.44752952,0.6727959,18.77914810180664,-4.221270561218262,-5.680813312530518,91.26354217529297,286.7646484375, 100.66250610351562
383,461197295,0.47998944,0.32016572,-0.42381966,0.69819856,18.51047134399414,-2.819676637649536,-6.607786655426025,96.24907684326172,264.3003234863281, 91.53421783447266
384,461213962,0.48242342,0.2973269,-0.40148672,0.7194948,17.37860679626465,-1.260426640510559,-7.703033447265625,87.94625854492188,236.01327514648438, 75.73635864257812
385,461230629,0.4848321,0.27699345,-0.38285163,0.73596,15.939400672912598,-0.01816173642873764,-9.900857925415039,64.6892318725586,201.4732208251953, 60.503292083740234
386,461247296,0.48785114,0.2590748,-0.36995235,0.7470053,14.375967979431152,1.6679097414016724,-13.72956657409668,28.29974937438965,161.4961700439453, 43.94204330444336
387,461263963,0.49085683,0.24601428,-0.36427572,0.7522233,13.12916374206543,1.4869755506515503,-20.00360870361328,-7.283332347869873,102.00032043457031, 25.004779815673828
388,461280630,0.4920488,0.24154769,-0.36561882,0.7522406,12.625715255737305,1.6498849391937256,-22.204265594482422,-24.512792587280273,20.64412498474121, 7.2160797119140625
389,461297297,0.49230966,0.24306028,-0.37466118,0.7471158,11.82396411895752,0.935349702835083,-19.221433639526367,-55.45466232299805,-47.082862854003906, -7.575535297393799
390,461313964,0.4916621,0.24868955,-0.38694328,0.73938966,11.40997314453125,-1.1833608150482178,-12.625370979309082,-63.31830596923828,-85.78162384033203, -16.875669479370117
391,461330631,0.48833752,0.2602825,-0.39676818,0.73236233,15.702218055725098,-3.2873592376708984,7.632724285125732,-24.210134506225586,-113.65209197998047, -20.957277297973633
392,461347298,0.4806787,0.27924827,-0.39909205,0.72917354,14.721206665039062,-9.871585845947266,15.040923118591309,56.53704071044922,-130.5556182861328, -19.778987884521484
393,461363965,0.4710034,0.3040792,-0.402896,0.7234408,21.380836486816406,7.444018840789795,-0.6933670043945312,65.39089965820312,-175.3238067626953, -31.364837646484375
394,461380632,0.46025482,0.3220709,-0.41370502,0.7164385,16.951581954956055,5.511353492736816,0.9563003182411194,7.099453449249268,-169.57093811035156, 3.509610414505005
395,461397299,0.45314747,0.3335804,-0.43007728,0.70598525,8.98585033416748,-1.2440756559371948,2.7029612064361572,-58.711063385009766,-152.5132293701172, 5.455615997314453
396,461413966,0.4454667,0.34227228,-0.44461396,0.6976588,6.068523406982422,-13.398603439331055,-4.998537540435791,-50.97300720214844,-129.94989013671875, 18.990562438964844
397,461430633,0.4367435,0.3533999,-0.44686192,0.6961883,10.619843482971191,-5.143807411193848,-1.6883184909820557,38.88303756713867,-91.03113555908203, 8.561873435974121
398,461447300,0.43164793,0.3613808,-0.45072392,0.69277126,8.780272483825684,-4.490166187286377,1.2231509685516357,6.921052932739258,-74.39310455322266, -1.0743457078933716
399,461463967,0.42740464,0.36872008,-0.45356736,0.6896721,9.582180976867676,-2.639575719833374,2.3768374919891357,8.734710693359375,-64.89683532714844, -4.7478346824646
400,461480634,0.42565703,0.37337503,-0.45885476,0.68473333,9.811924934387207,-2.5648040771484375,2.776671886444092,-22.812055587768555,-56.24857711791992, -7.421721935272217
401,461497301,0.42560765,0.37553632,-0.46597415,0.67874783,10.230628967285156,-2.008573293685913,2.059568405151367,-46.404029846191406,-47.219703674316406, -5.907160758972168
402,461513968,0.42459184,0.37819746,-0.471096,0.67435676,9.849102020263672,-4.007933616638184,1.852271556854248,-28.02243423461914,-42.7017707824707, -3.4835381507873535
403,461530635,0.42241699,0.38244972,-0.47293502,0.6720332,10.45336627960205,-3.4087326526641846,2.1969666481018066,1.550902247428894,-38.8878173828125, -5.770418167114258
404,461547302,0.41975108,0.3870336,-0.47404793,0.670293,9.694391250610352,-2.5220024585723877,2.1325345039367676,9.051968574523926,-38.38810348510742, -4.798809051513672
405,461563969,0.4174082,0.39094406,-0.47540587,0.6685227,9.277949333190918,-2.483611583709717,2.0464019775390625,5.016647815704346,-35.033321380615234, -3.5277938842773438
406,461580636,0.4156478,0.39449713,-0.47717568,0.6662676,9.012821197509766,-3.061588764190674,1.9257898330688477,-1.0583723783493042,-33.98695373535156, -5.323122501373291
407,461597303,0.41398773,0.39839345,-0.4790576,0.663627,8.997185707092285,-3.4561634063720703,2.1508095264434814,-2.1307311058044434,-36.60963439941406, -7.709474563598633
408,461613970,0.41277343,0.40242684,-0.4809261,0.66059136,8.841710090637207,-3.7621960639953613,1.6797655820846558,-4.206498622894287,-36.82495880126953, -11.361483573913574
409,461630637,0.411572,0.40665892,-0.4826634,0.6574749,8.699104309082031,-2.981762170791626,1.474931001663208,-3.3531434535980225,-37.54777145385742, -12.675897598266602
410,461647304,0.40994415,0.41118255,-0.48440745,0.6543884,8.831507682800293,-2.7986388206481934,1.6636509895324707,-1.270538568496704,-40.22675704956055, -11.615584373474121
411,461663971,0.4076534,0.4162412,-0.4861684,0.65130824,9.098054885864258,-2.5813052654266357,1.7711105346679688,2.052098274230957,-44.882572174072266, -10.352141380310059
412,461680638,0.4043499,0.42212743,-0.48805794,0.64815813,9.133614540100098,-2.6812140941619873,1.6625577211380005,6.457135200500488,-52.544673919677734, -8.412549018859863
413,461697305,0.3999614,0.42891827,-0.4898214,0.6450853,9.100549697875977,-2.5559544563293457,1.184460163116455,12.938318252563477,-59.653446197509766, -6.766504287719727
414,461713972,0.3948778,0.43620002,-0.4916594,0.64192855,9.06262493133545,-2.6220510005950928,1.067639946937561,15.722405433654785,-64.63277435302734, -5.350078105926514
415,461730639,0.38951027,0.4435733,-0.4938864,0.63843626,9.378824234008789,-2.359295606613159,1.0048389434814453,13.969000816345215,-68.06599426269531, -4.153349876403809
416,461747306,0.384174,0.45047534,-0.49714887,0.6342913,9.46143913269043,-2.9313597679138184,0.9388998746871948,5.847604751586914,-70.66336822509766, -1.2812083959579468
417,461763973,0.3789871,0.45685935,-0.50121593,0.62962776,9.54355525970459,-2.493703842163086,0.644716203212738,-1.2674802541732788,-71.63299560546875, 0.9572471976280212
418,461780640,0.37416765,0.46271962,-0.50607693,0.62431985,9.65167236328125,-2.8410961627960205,0.5457309484481812,-9.444782257080078,-72.1991195678711, 1.9864109754562378
419,461797307,0.3684724,0.46949455,-0.51033527,0.6191615,9.699480056762695,-3.181027889251709,0.34906136989593506,-1.199928879737854,-77.15353393554688, 1.0291845798492432
420,461813974,0.36275592,0.47646976,-0.5150613,0.6132674,9.795955657958984,-3.0056562423706055,0.12233442068099976,-5.198155879974365,-81.64723205566406, 0.059237170964479446
421,461830641,0.35719302,0.48333386,-0.5207295,0.6063353,9.888333320617676,-3.48363995552063,-0.14867252111434937,-13.628486633300781,-86.39177703857422, 0.30061793327331543
422,461847308,0.35237062,0.4899698,-0.5269816,0.5983771,10.086016654968262,-3.2284913063049316,0.41292405128479004,-22.758861541748047,-87.63874816894531, -2.552251100540161
423,461863975,0.34810153,0.49673617,-0.53373677,0.58923995,10.486684799194336,-3.5055930614471436,0.38032376766204834,-30.651758193969727,-91.3719253540039, -6.4647932052612305
424,461880642,0.34413144,0.503595,-0.54131997,0.57873875,11.371099472045898,-2.914064645767212,0.2716207206249237,-39.815975189208984,-97.30111694335938, -8.453993797302246
425,461897309,0.34005535,0.51079273,-0.54968905,0.5668292,12.605685234069824,-2.439455986022949,0.75913405418396,-47.0207633972168,-105.79251861572266, -9.902597427368164
426,461913976,0.3358681,0.5188801,-0.5581314,0.5535753,14.594378471374512,-2.1195361614227295,1.0428359508514404,-49.92261505126953,-114.5911865234375, -15.711321830749512
427,461930643,0.33056068,0.52859885,-0.5662329,0.53915983,15.923625946044922,-3.80729079246521,3.1351377964019775,-45.324954986572266,-128.47976684570312, -21.595951080322266
428,461947310,0.3259003,0.53910536,-0.57536834,0.5216377,17.01837730407715,-4.642218589782715,6.553964614868164,-61.826148986816406,-142.56356811523438, -30.36268424987793
429,461963977,0.33563986,0.54178834,-0.59110326,0.49437663,19.329959869384766,-4.45842170715332,12.178084373474121,-194.9722442626953,-108.49575805664062, -48.42741775512695
430,461980644,0.34655386,0.5450828,-0.6060176,0.46424982,17.49083709716797,-2.8796370029449463,9.415606498718262,-206.82797241210938,-114.68893432617188, -64.58233642578125
431,461997311,0.35144866,0.5534255,-0.6210429,0.4295462,15.633013725280762,-3.231013059616089,3.236586093902588,-191.68450927734375,-173.40377807617188, -76.90483856201172
432,462013978,0.34526163,0.5665835,-0.6337721,0.39763135,17.92329978942871,-5.471070766448975,-6.9191412925720215,-119.1808853149414,-218.8384246826172, -66.742431640625
433,462030645,0.32988223,0.5816909,-0.64183414,0.3753163,20.393199920654297,-6.670492172241211,-1.6774101257324219,-24.136619567871094,-215.73606872558594, -45.50871658325195
434,462047312,0.3135107,0.5948748,-0.6476431,0.3583208,14.922178268432617,-6.866053581237793,5.044856071472168,4.745718479156494,-188.7987060546875, -31.422340393066406
435,462063979,0.3014794,0.60477006,-0.651395,0.3450333,10.060598373413086,-3.5146992206573486,10.77442741394043,1.456925630569458,-141.827392578125, -27.910432815551758
436,462080646,0.29529727,0.6087959,-0.6545692,0.33720386,9.228094100952148,-5.919685363769531,12.241003036499023,-9.232797622680664,-77.8914794921875, -6.59556770324707
437,462097313,0.29453737,0.6081637,-0.6563082,0.33562577,6.642151355743408,-6.604065895080566,12.766032218933105,-9.9553861618042,-13.695855140686035, 8.460082054138184
438,462113980,0.2988418,0.60364413,-0.65576607,0.3409961,4.861438751220703,-5.080750465393066,11.640602111816406,-2.4217193126678467,51.72256088256836, 18.821250915527344
439,462130647,0.30931628,0.5949657,-0.65282804,0.35235646,3.6137256622314453,-3.556147813796997,10.322468757629395,-3.971571445465088,119.01554107666016, 25.44373321533203
440,462147314,0.32610875,0.58192056,-0.6475484,0.36837864,4.590517044067383,-2.606025218963623,8.804469108581543,-12.524724006652832,181.96632385253906, 30.053293228149414
441,462163981,0.34689334,0.56493384,-0.64001447,0.38845387,5.596251964569092,-2.4735987186431885,7.27235221862793,-13.588452339172363,230.9703369140625, 37.53911590576172
442,462180648,0.36803794,0.54540557,-0.6298181,0.4128077,6.881771087646484,-2.936035633087158,5.117498397827148,4.88307523727417,262.2923278808594, 47.60859680175781
443,462197315,0.38769022,0.5240153,-0.61678696,0.44122344,8.338644027709961,-3.909414529800415,3.162393569946289,31.40135383605957,283.5085754394531, 59.54134750366211
444,462213982,0.4053815,0.5008316,-0.600724,0.47324866,9.811844825744629,-4.228482246398926,1.4778778553009033,58.19267272949219,301.720458984375, 71.78120422363281
445,462230649,0.4226945,0.47559345,-0.5818595,0.5065374,11.390963554382324,-3.673398017883301,0.49740707874298096,68.10889434814453,319.01361083984375, 75.35913848876953
446,462247316,0.4421632,0.44673285,-0.56214714,0.5375055,13.260004997253418,-3.127098798751831,-0.16725444793701172,44.19731521606445,335.14581298828125, 72.81391906738281
447,462263983,0.4623854,0.41442356,-0.5421953,0.5661071,14.637872695922852,-3.7537217140197754,-0.9351027607917786,23.141626358032227,344.2847595214844, 75.42012786865234
448,462280650,0.48003164,0.38023245,-0.52165127,0.5940311,15.977917671203613,-5.1801371574401855,-2.129849910736084,24.286739349365234,341.98828125, 88.61262512207031
449,462297317,0.492796,0.34664658,-0.49946302,0.6225152,17.769495010375977,-5.581684112548828,-3.4606006145477295,47.818763732910156,328.9289245605469, 103.92813873291016
450,462313984,0.49992603,0.3162816,-0.47417867,0.65206957,19.475297927856445,-5.174495697021484,-4.8625288009643555,89.11731719970703,308.8891906738281, 113.2319107055664
451,462330651,0.50256366,0.29049912,-0.44579974,0.6813976,20.45021629333496,-4.886435508728027,-6.357669353485107,127.81983184814453,283.90863037109375, 110.94588470458984
452,462347318,0.50263065,0.26914287,-0.41657618,0.7080882,19.653623580932617,-3.8104636669158936,-7.895974159240723,144.16461181640625,253.01992797851562, 98.65178680419922
453,462363985,0.5020969,0.25067145,-0.3911017,0.7294533,17.619190216064453,-2.2459447383880615,-10.327664375305176,121.7612075805664,214.53076171875, 81.87623596191406
454,462380652,0.50251716,0.2336117,-0.3736079,0.7438543,15.148955345153809,-0.1762448102235794,-15.044540405273438,66.26154327392578,170.5684356689453, 63.04147720336914
455,462397319,0.50432944,0.21914332,-0.36822525,0.749692,13.195691108703613,2.0586822032928467,-21.524185180664062,-10.92186164855957,105.43163299560547, 39.17179489135742
456,462413986,0.506322,0.21094933,-0.37457582,0.7475503,12.975027084350586,1.8105605840682983,-22.53167724609375,-70.06767272949219,21.01500701904297, 12.421342849731445
457,462430653,0.5069898,0.20858815,-0.38903204,0.7403421,11.858171463012695,0.4675060510635376,-17.729825973510742,-102.50300598144531,-47.7642936706543, -1.618347406387329
458,462447320,0.50523317,0.21042156,-0.4057442,0.73200685,10.336481094360352,-1.448834776878357,-12.205337524414062,-98.85987854003906,-84.94269561767578, -1.1442903280258179
459,462463987,0.5004501,0.21849947,-0.41878995,0.72555,9.171285629272461,-2.238757848739624,-5.6671881675720215,-49.054073333740234,-109.26464080810547, -2.082763433456421
460,462480654,0.49075237,0.23548682,-0.42114592,0.7254959,13.678479194641113,-4.925135612487793,17.22528648376465,60.77141571044922,-121.40910339355469, 2.753512144088745
461,462497321,0.4804543,0.2622491,-0.41354668,0.72757715,19.257648468017578,-4.80057954788208,13.26776123046875,150.5472412109375,-134.93017578125, -31.488828659057617
462,462513988,0.47071832,0.29125705,-0.41674227,0.7210546,24.762231826782227,15.817384719848633,-0.6654607057571411,78.45077514648438,-195.7636260986328, -49.65184020996094
463,462530655,0.46429524,0.30255824,-0.43665347,0.70867646,18.547266006469727,4.339610576629639,-0.5739400386810303,-85.2042465209961,-164.22291564941406, -0.6654853820800781
464,462547322,0.45952672,0.30751768,-0.45965976,0.69496846,8.947548866271973,-6.98800802230835,-2.391615629196167,-127.9679946899414,-140.96578979492188, 12.582681655883789
465,462563989,0.45223406,0.31422916,-0.47436675,0.6868194,7.90756893157959,-8.970539093017578,-3.2862284183502197,-59.82637023925781,-119.32096099853516, 19.100757598876953
466,462580656,0.44665498,0.3206186,-0.48226693,0.6819984,8.562646865844727,-4.433216094970703,-0.05734327808022499,-21.495454788208008,-83.83882904052734, 7.6578688621521
467,462597323,0.4433206,0.32570854,-0.48910534,0.6768728,8.487089157104492,-6.233395099639893,1.4850000143051147,-26.458499908447266,-67.71913146972656, -1.8496681451797485
468,462613990,0.44100875,0.33078596,-0.49389878,0.67242545,9.231812477111816,-3.3222620487213135,2.62373423576355,-16.985198974609375,-56.48591613769531, -9.102725982666016
469,462630657,0.44012165,0.3335326,-0.5010075,0.66636366,9.746030807495117,-2.9544546604156494,3.0429205894470215,-43.48693084716797,-51.588050842285156, -7.406876564025879
470,462647324,0.44053736,0.33403215,-0.5097549,0.6591658,10.01696491241455,-3.721750497817993,1.358681321144104,-64.70568084716797,-44.395729064941406, -5.310947895050049
471,462663991,0.44044125,0.33471382,-0.51622516,0.6538271,10.06951904296875,-3.660676956176758,0.9516630172729492,-46.1440544128418,-35.863197326660156, -3.226470947265625
472,462680658,0.43984514,0.33584866,-0.5201542,0.65052396,9.867748260498047,-3.28009295463562,1.4012142419815063,-24.97562599182129,-27.307418823242188, -2.2716779708862305
473,462697325,0.43927214,0.33672407,-0.5232964,0.6479334,9.857121467590332,-2.927818775177002,1.8297207355499268,-19.751331329345703,-22.05376625061035, -1.1088923215866089
474,462713992,0.43902236,0.33723876,-0.5267535,0.64502734,9.042298316955566,-4.033410549163818,1.6063973903656006,-24.133304595947266,-20.982881546020508, -1.4737087488174438
475,462730659,0.43924463,0.33774215,-0.5299838,0.6419592,8.835899353027344,-4.056391716003418,1.2873790264129639,-24.84836196899414,-18.932077407836914, -4.547691345214844
476,462747326,0.4396483,0.33852297,-0.5330248,0.6387458,8.715520858764648,-4.370761871337891,1.4189720153808594,-24.129222869873047,-19.275636672973633, -7.244348049163818
477,462763993,0.4395423,0.34057653,-0.53537536,0.6357542,8.143473625183105,-5.2298197746276855,1.5814698934555054,-15.25663948059082,-24.144031524658203, -10.61637020111084
478,462780660,0.43902358,0.3440725,-0.53698426,0.6328669,7.684796333312988,-5.516266345977783,1.4365150928497314,-6.309291839599609,-29.49920082092285, -15.561161994934082
479,462797327,0.43901417,0.34785965,-0.5387745,0.6292712,7.758156776428223,-5.349423408508301,1.450026035308838,-10.043432235717773,-31.123498916625977, -20.582012176513672
480,462813994,0.43880066,0.35222435,-0.54065424,0.625368,7.40084981918335,-5.4511308670043945,1.2140532732009888,-9.343600273132324,-35.39847183227539, -22.570995330810547
481,462830661,0.43741825,0.3582282,-0.54146457,0.6222171,7.581082344055176,-4.489529132843018,1.0054388046264648,5.8224992752075195,-41.75672912597656, -23.97938346862793
482,462847328,0.43498924,0.36575666,-0.54116493,0.6197961,9.025455474853516,-1.4857263565063477,0.8885436058044434,20.446348190307617,-47.04996871948242, -25.732275009155273
483,462863995,0.43249646,0.3728126,-0.5422642,0.61636597,9.825687408447266,-1.1420060396194458,1.5235151052474976,9.472013473510742,-52.0024299621582, -23.195581436157227
484,462880662,0.42843917,0.3803124,-0.5438522,0.61321056,10.045008659362793,-1.1780810356140137,1.365050196647644,13.746963500976562,-60.4781379699707, -16.140975952148438
485,462897329,0.4233226,0.38833156,-0.54577726,0.61001956,10.363073348999023,-1.5482102632522583,1.5067598819732666,16.485849380493164,-67.72711944580078, -12.83090877532959
486,462913996,0.41814816,0.39584342,-0.54899436,0.6058593,10.036883354187012,-2.5978426933288574,1.237730622291565,6.102116584777832,-72.1774673461914, -10.0498685836792
487,462930663,0.41368228,0.40244895,-0.55358183,0.60037404,9.857552528381348,-2.9598169326782227,0.8122652769088745,-9.146807670593262,-73.28893280029297, -9.659213066101074
488,462947330,0.4094053,0.4083597,-0.5593794,0.593906,9.47651195526123,-3.5017576217651367,0.21471600234508514,-20.384597778320312,-75.8757553100586, -7.243289470672607
489,462963997,0.40517023,0.4138879,-0.5661256,0.5865457,9.546972274780273,-4.037520408630371,0.1774606704711914,-28.886564254760742,-79.33736419677734, -5.797208786010742
490,462980664,0.4007864,0.41971034,-0.57323426,0.57846016,9.91737174987793,-4.22542667388916,0.2536263167858124,-31.9306697845459,-84.18868255615234, -7.340042591094971
491,462997331,0.3962906,0.4261202,-0.58040404,0.56965494,10.499881744384766,-3.835944175720215,0.3064006567001343,-33.070838928222656,-89.22483825683594, -11.025214195251465
492,463013998,0.39127663,0.43329588,-0.5876221,0.56023,11.079923629760742,-3.274414539337158,0.2657839059829712,-32.13334655761719,-96.25432586669922, -13.604074478149414
493,463030665,0.38531134,0.44167483,-0.5948335,0.5501198,11.633768081665039,-2.7323286533355713,0.4420815706253052,-28.810834884643555,-106.77192687988281, -16.665254592895508
494,463047332,0.37791795,0.451691,-0.6018008,0.5394342,13.15986156463623,-1.9157699346542358,0.8724199533462524,-21.5721378326416,-119.92587280273438, -20.222148895263672
495,463063999,0.36940157,0.46339142,-0.6090532,0.5271291,14.87393569946289,-2.7746784687042236,2.9528985023498535,-21.47084617614746,-136.6160888671875, -26.33875274658203
496,463080666,0.3645478,0.47328228,-0.61801004,0.51105034,18.55368995666504,-3.6351988315582275,7.109541893005371,-59.731937408447266,-131.11610412597656, -36.182559967041016
497,463097333,0.3668787,0.47991657,-0.62964505,0.48849487,17.543872833251953,-4.076699256896973,7.9014892578125,-128.23577880859375,-117.01431274414062, -55.102481842041016
498,463114000,0.3675652,0.48891184,-0.6440677,0.45938864,15.658668518066406,-4.306481838226318,9.951383590698242,-154.61180114746094,-160.8106231689453, -67.13294219970703
499,463130667,0.36347014,0.5017209,-0.6589143,0.426612,16.593881607055664,-4.0966949462890625,9.846723556518555,-146.52635192871094,-207.5561065673828, -76.78468322753906
500,463147334,0.35243878,0.51897156,-0.6707983,0.39558202,17.184131622314453,-3.1648731231689453,1.0285029411315918,-94.89682006835938,-238.68820190429688, -82.4328842163086
501,463164001,0.33563492,0.5385477,-0.67761385,0.37169227,19.513389587402344,-2.1132473945617676,-2.7918190956115723,-21.932296752929688,-233.91253662109375, -78.23977661132812
502,463180668,0.31612185,0.5561971,-0.68184996,0.35467246,16.413084030151367,-9.946344375610352,-0.9572817087173462,22.267436981201172,-210.24159240722656, -56.026031494140625
503,463197335,0.29725567,0.57191545,-0.68215156,0.34528413,12.265743255615234,-5.558545112609863,5.6667609214782715,60.94221878051758,-164.7921600341797, -47.042457580566406
504,463214002,0.28414398,0.58250576,-0.6812847,0.34029445,9.140436172485352,-8.193321228027344,9.972047805786133,51.22080993652344,-106.00135803222656, -32.27097702026367
505,463230669,0.27831748,0.58682734,-0.6798458,0.34056246,7.215890884399414,-6.849052429199219,12.161507606506348,35.71133804321289,-35.107093811035156, -11.989840507507324
506,463247336,0.28140876,0.58635676,-0.67717415,0.34413695,4.890235900878906,-4.837562084197998,10.765204429626465,8.87012004852295,33.416282653808594, -9.146207809448242
507,463264003,0.29280248,0.58073413,-0.6736951,0.35092685,4.1070451736450195,-3.3586034774780273,9.276653289794922,-17.70991325378418,98.73015594482422, -1.863440990447998
508,463280670,0.31123674,0.5701627,-0.6691992,0.36085838,3.9944307804107666,-3.296739101409912,7.558353424072266,-38.80618667602539,157.84085083007812, 6.31968355178833
509,463297337,0.3341439,0.555198,-0.66301006,0.37486136,4.828204154968262,-2.8572731018066406,6.702741622924805,-42.82942199707031,208.89205932617188, 17.485095977783203
510,463314004,0.35959002,0.53687406,-0.654934,0.3918199,6.114884376525879,-2.2575161457061768,4.939273834228516,-41.91184616088867,244.73086547851562, 25.812976837158203
511,463330671,0.3853274,0.51572335,-0.64490247,0.41188982,7.827443599700928,-2.249058961868286,3.6839425563812256,-30.714691162109375,269.97607421875, 38.2151985168457
512,463347338,0.4093472,0.49247792,-0.63295346,0.4350523,8.902368545532227,-3.513395309448242,2.0403943061828613,-11.02181625366211,284.3348083496094, 53.741031646728516
513,463364005,0.43053,0.46838197,-0.617888,0.46203566,10.136210441589355,-3.6453421115875244,1.0455241203308105,22.14366340637207,296.2514953613281, 66.11140441894531
514,463380672,0.45134243,0.44212556,-0.60069925,0.48987284,11.823568344116211,-3.189978837966919,0.4097839593887329,27.315044403076172,310.5951232910156, 72.14161682128906
515,463397339,0.4726512,0.4129913,-0.58252645,0.5164321,13.240535736083984,-3.2753665447235107,-0.21157532930374146,14.916213035583496,321.53155517578125, 75.38668060302734
516,463414006,0.49329993,0.38144845,-0.56369054,0.541669,14.313563346862793,-3.8931164741516113,-0.8358426690101624,6.0305070877075195,325.86932373046875, 81.18663787841797
517,463430673,0.5105434,0.34995472,-0.5428572,0.5676119,15.791423797607422,-4.561925888061523,-1.5481595993041992,25.324844360351562,321.1474609375, 90.82765197753906
518,463447340,0.52297497,0.32038277,-0.5193894,0.595052,17.113792419433594,-4.458226203918457,-2.655207395553589,59.552024841308594,308.5771179199219, 101.35247802734375
519,463464007,0.5310431,0.29358047,-0.4932898,0.6232729,18.757122039794922,-3.738755941390991,-4.290329456329346,92.71422576904297,292.8996276855469, 106.33818054199219
520,463480674,0.53540254,0.27091601,-0.46467972,0.6511694,19.41343879699707,-3.5141942501068115,-5.799047470092773,124.9999771118164,271.1697998046875, 101.97248077392578
521,463497341,0.537452,0.25242418,-0.43491024,0.67696416,18.77727508544922,-2.8297548294067383,-8.11811351776123,143.169921875,245.54454040527344, 89.11775970458984
522,463514008,0.5381562,0.23687221,-0.4079836,0.6984475,17.46710968017578,-2.7474169731140137,-11.121479988098145,130.26963806152344,209.94290161132812, 75.62544250488281
523,463530675,0.53821933,0.2240445,-0.38687497,0.7144592,15.485663414001465,-1.3116257190704346,-15.773336410522461,98.13603973388672,164.73556518554688, 60.321842193603516
524,463547342,0.5380444,0.21456137,-0.3767437,0.72286665,13.727678298950195,1.2327853441238403,-23.053647994995117,36.76808547973633,95.47428894042969, 41.398292541503906
525,463564009,0.5380821,0.21019565,-0.37986475,0.7224875,13.66932201385498,2.7196383476257324,-25.93973731994629,-33.18462371826172,8.785216331481934, 14.178956031799316
526,463580676,0.5379517,0.21093945,-0.3924233,0.7156233,12.723173141479492,1.7478216886520386,-21.712162017822266,-77.80233764648438,-61.131954193115234, -8.621662139892578
527,463597343,0.536331,0.21567826,-0.40860498,0.70631003,12.186806678771973,-0.21855682134628296,-14.943025588989258,-85.25404357910156,-101.60990142822266, -15.818347930908203
528,463614010,0.5312918,0.22608705,-0.41865376,0.7009586,13.895971298217773,-4.488685131072998,12.298772811889648,-18.321666717529297,-110.14450073242188, -9.597644805908203
529,463630677,0.5220133,0.24425505,-0.4191611,0.70153105,11.349205017089844,-13.934247016906738,20.233205795288086,79.6347427368164,-115.71621704101562, -4.702857494354248
530,463647344,0.5076132,0.27763316,-0.41496274,0.7021787,20.472902297973633,6.492857456207275,0.15926271677017212,165.75978088378906,-186.94737243652344, -31.559303283691406
531,463664011,0.49031672,0.3070449,-0.4183473,0.70021325,17.963945388793945,9.060678482055664,1.2640405893325806,113.3465576171875,-207.45086669921875, -0.8496381640434265
532,463680678,0.48208612,0.31995177,-0.43421397,0.6904218,11.486334800720215,3.1977031230926514,1.693894863128662,-44.08464050292969,-160.45431518554688, 3.0182580947875977
533,463697345,0.47523543,0.32640842,-0.4531778,0.6798814,9.423160552978516,-10.8049898147583,-6.5213727951049805,-85.44458770751953,-137.62831115722656, 20.09963035583496
534,463714012,0.4654201,0.33660197,-0.4622663,0.6755688,10.442366600036621,-5.527462482452393,-0.48256272077560425,-0.9563112258911133,-118.0423355102539, 20.44915008544922
535,463730679,0.4604628,0.34320426,-0.47150204,0.66923153,8.593961715698242,-5.568026065826416,0.48013532161712646,-30.797250747680664,-91.0704574584961, 3.1387782096862793
536,463747346,0.4574543,0.3491167,-0.47839177,0.6633207,9.11920166015625,-4.271345615386963,1.9528335332870483,-25.396276473999023,-73.15242767333984, -7.799079895019531
537,463764013,0.45630616,0.3533375,-0.4855182,0.65666544,10.05451488494873,-3.3899338245391846,1.4323521852493286,-38.71297836303711,-61.86747360229492, -12.501980781555176
538,463780680,0.4557683,0.35600287,-0.49262556,0.6502748,10.236804962158203,-2.672102928161621,0.9535267949104309,-44.11051559448242,-52.116912841796875, -9.280417442321777
539,463797347,0.45545962,0.35784906,-0.49837282,0.64507776,10.200780868530273,-3.908762216567993,0.6276373267173767,-37.11912155151367,-40.5043830871582, -7.1135945320129395
540,463814014,0.4546275,0.3600635,-0.5012501,0.64219654,10.331931114196777,-3.0795419216156006,1.46750009059906,-14.015207290649414,-29.253963470458984, -5.866970062255859
541,463830681,0.45268798,0.3629771,-0.5027052,0.64078766,9.747774124145508,-2.2980830669403076,2.3124232292175293,2.260141611099243,-28.081192016601562, -2.306532621383667
542,463847348,0.45010063,0.36609533,-0.5041625,0.6396906,9.457934379577637,-2.159348249435425,2.0284171104431152,5.5745649337768555,-30.46953582763672, 0.8154919147491455
543,463864015,0.4471007,0.36964965,-0.50579005,0.63846433,9.1201171875,-3.0111265182495117,1.8740402460098267,6.757664680480957,-34.688568115234375, 1.148202896118164
544,463880682,0.4430471,0.3750476,-0.5062398,0.6377853,8.689726829528809,-3.7089483737945557,1.8291364908218384,22.171762466430664,-41.45103454589844, -1.9568511247634888
545,463897349,0.438126,0.38184646,-0.50575244,0.6375372,8.932551383972168,-3.2041072845458984,1.3254773616790771,34.2802734375,-46.664794921875, -4.147769927978516
546,463914016,0.43288803,0.38891882,-0.50571775,0.6368672,8.89498233795166,-2.7444417476654053,1.4635037183761597,32.48118209838867,-51.4485969543457, -3.803497076034546
547,463930683,0.42747828,0.3958955,-0.5065874,0.63553005,8.97165298461914,-2.7454988956451416,1.3649017810821533,26.370878219604492,-56.116310119628906, -2.2948648929595947
548,463947350,0.4212658,0.40345442,-0.50748676,0.6342058,9.106325149536133,-3.1213104724884033,1.228924036026001,30.178897857666016,-61.52182388305664, -0.7037845849990845
549,463964017,0.41571096,0.41030332,-0.5087396,0.63247114,9.442444801330566,-3.1137242317199707,1.391882300376892,23.31988525390625,-58.30595016479492, -1.3120286464691162
550,463980684,0.4117467,0.41545284,-0.51131064,0.62962306,9.197881698608398,-2.7964680194854736,1.2371922731399536,4.344487190246582,-52.27513885498047, -1.7544611692428589
551,463997351,0.40810743,0.42004082,-0.51479346,0.6261005,9.248184204101562,-2.452235698699951,1.2060482501983643,-4.4958295822143555,-53.22292709350586, -0.49509844183921814
552,464014018,0.4042237,0.42463222,-0.5190295,0.6220122,9.24859619140625,-2.9132821559906006,1.11922025680542,-9.02977466583252,-57.86320495605469, 1.1334971189498901
553,464030685,0.40000886,0.42963114,-0.52349067,0.6175497,9.244083404541016,-3.0668132305145264,0.7334781289100647,-9.23452091217041,-62.52043151855469, 0.7096548080444336
554,464047352,0.3955547,0.43507856,-0.5281881,0.6125851,9.22590160369873,-2.9387309551239014,0.3211284875869751,-10.106437683105469,-67.43286895751953, -0.5752065777778625
555,464064019,0.39117634,0.44053718,-0.53349274,0.6068722,9.46709156036377,-2.3557910919189453,0.3559403419494629,-15.582559585571289,-71.10470581054688, -1.1566656827926636
556,464080686,0.38693297,0.4456777,-0.54019195,0.5998725,9.572031021118164,-3.1532680988311768,0.2669115364551544,-27.389863967895508,-76.94377899169922, 0.2134932577610016
557,464097353,0.3825603,0.45088053,-0.5481019,0.59155625,10.032301902770996,-3.7512807846069336,0.40095996856689453,-36.714210510253906,-84.95006561279297, 0.7209871411323547
558,464114020,0.37799922,0.4564763,-0.5567427,0.5820512,10.505461692810059,-3.9536807537078857,0.38467201590538025,-42.557472229003906,-92.88224029541016, -0.8594399690628052
559,464130687,0.3736448,0.4625328,-0.56579024,0.5712569,11.590285301208496,-2.448681354522705,0.3931591212749481,-48.576377868652344,-99.05545806884766, -5.528726100921631
560,464147354,0.36941853,0.4687546,-0.57540697,0.5592013,12.322896957397461,-2.20627498626709,0.4386889338493347,-55.709022521972656,-104.69921875, -8.09717845916748
561,464164021,0.36499408,0.47550887,-0.58565223,0.5456026,13.14272403717041,-1.805023193359375,0.83101886510849,-62.24543380737305,-114.12438201904297, -11.32409381866455
562,464180688,0.3602122,0.48334864,-0.59585124,0.5306436,14.680938720703125,-0.7928837537765503,1.5433225631713867,-63.66659927368164,-123.99615478515625, -17.904396057128906
563,464197355,0.35549805,0.4925288,-0.6060328,0.5135766,16.852169036865234,-0.5707024335861206,3.5491042137145996,-69.15253448486328,-135.6121368408203, -28.89904022216797
564,464214022,0.3504416,0.5032537,-0.61633295,0.49402463,18.714866638183594,-2.539695978164673,7.273044586181641,-75.00717163085938,-151.26219177246094, -39.77469253540039
565,464230689,0.346112,0.5142712,-0.6290689,0.46904564,18.558671951293945,-4.62080717086792,12.1519775390625,-108.12004089355469,-173.9271697998047, -48.12022018432617
566,464247356,0.34147438,0.5256875,-0.64462495,0.43761474,18.410429000854492,-4.472892761230469,13.347285270690918,-143.1334228515625,-206.2231903076172, -54.24460983276367
567,464264023,0.33870175,0.53676957,-0.66148305,0.39949942,17.094772338867188,-4.968777179718018,5.765613555908203,-184.26210021972656,-224.33453369140625, -69.38310241699219
568,464280690,0.33377248,0.5480789,-0.6752692,0.3636168,16.831632614135742,-3.532940626144409,-5.007640838623047,-157.18441772460938,-219.45382690429688, -70.65349578857422
569,464297357,0.3223282,0.5608011,-0.6823637,0.3405679,15.900612831115723,-5.711491107940674,-3.128002405166626,-53.04441833496094,-189.50535583496094, -56.69391632080078
570,464314024,0.30758798,0.57259357,-0.6853853,0.32828847,14.200974464416504,-7.078922271728516,2.99389386177063,17.658472061157227,-152.26271057128906, -36.46901321411133
571,464330691,0.29765645,0.5802578,-0.68696284,0.32059887,10.275572776794434,-7.4933977127075195,7.740740776062012,14.851126670837402,-99.222900390625, -23.8705997467041
572,464347358,0.29259953,0.5837467,-0.6861998,0.32055452,8.398809432983398,-8.783387184143066,11.226090431213379,28.086389541625977,-31.784059524536133, -8.614748001098633
573,464364025,0.296663,0.5814748,-0.6843133,0.32495192,5.087235927581787,-5.828347682952881,11.424798965454102,3.2720000743865967,43.935699462890625, 2.8529605865478516
574,464380692,0.30868918,0.57541704,-0.681008,0.33141276,3.956941604614258,-3.0160984992980957,7.253437519073486,-23.44089698791504,100.93191528320312, 1.3789180517196655
575,464397359,0.32592228,0.56450415,-0.67756945,0.34060192,4.545372009277344,-4.520712852478027,5.430574893951416,-41.284271240234375,147.4202117919922, 17.487016677856445
576,464414026,0.34492663,0.5505181,-0.67192686,0.35562629,4.645273208618164,-3.8471322059631348,4.73629093170166,-22.719417572021484,190.43853759765625, 32.1422233581543
577,464430693,0.3662818,0.5336823,-0.6642922,0.37381393,5.219494819641113,-2.579444169998169,3.9996681213378906,-18.90538215637207,224.957275390625, 39.4899787902832
578,464447360,0.38875446,0.51435184,-0.6545231,0.39485726,6.604194164276123,-1.7984087467193604,3.1385228633880615,-10.762694358825684,252.32577514648438, 47.34742736816406
579,464464027,0.4110003,0.4927489,-0.64281493,0.41840923,7.613376617431641,-2.481048822402954,2.2155017852783203,0.5204058289527893,271.52825927734375, 58.02248001098633
580,464480694,0.43196464,0.46949184,-0.6286335,0.4447514,8.689179420471191,-3.0898566246032715,1.3085359334945679,19.640748977661133,287.071533203125, 68.50897979736328
581,464497361,0.45325217,0.4438452,-0.612595,0.47147787,10.444916725158691,-3.0162177085876465,0.4756852090358734,18.84099769592285,302.54632568359375, 72.97775268554688
582,464514028,0.47491124,0.4154148,-0.5952562,0.49755412,11.922469139099121,-2.995722770690918,-0.5538011193275452,10.515881538391113,315.22576904296875, 77.4874496459961
583,464530695,0.49610558,0.3841948,-0.57741404,0.52236646,13.015081405639648,-3.7026045322418213,-1.6015346050262451,-0.7014970183372498,320.929931640625, 84.9164810180664
584,464547362,0.51403064,0.35218346,-0.5581131,0.54794997,14.377979278564453,-5.1152119636535645,-2.460124969482422,13.559228897094727,317.8447570800781, 98.56761169433594
585,464564029,0.526797,0.32198864,-0.5357134,0.57603765,15.733744621276855,-5.472657680511475,-3.0637097358703613,53.78730773925781,308.26910400390625, 112.37075805664062
586,464580696,0.53515667,0.294215,-0.510532,0.6053115,17.578060150146484,-4.328185558319092,-3.828477144241333,87.74844360351562,295.20361328125, 119.050048828125
587,464597363,0.5408946,0.2683987,-0.48412466,0.6332602,18.513713836669922,-3.272541046142578,-4.927116870880127,100.73168182373047,279.7521057128906, 115.75359344482422
588,464614030,0.54554045,0.24429417,-0.45825514,0.6578057,18.908811569213867,-2.3710789680480957,-6.78722620010376,95.4698715209961,260.4609375, 103.17729949951172
589,464630697,0.5491148,0.22284232,-0.43483952,0.67803305,17.660566329956055,-1.853426456451416,-9.212520599365234,82.56209564208984,228.71742248535156, 87.63890075683594
590,464647364,0.5508552,0.20546673,-0.41509798,0.69428784,16.2595157623291,-1.2890913486480713,-13.12319564819336,71.78620910644531,184.3885955810547, 74.67127990722656
591,464664031,0.55028534,0.1930864,-0.4013298,0.7062847,14.428391456604004,0.6852412819862366,-19.426944732666016,53.35794448852539,125.44425201416016, 63.8082275390625
592,464680698,0.54713356,0.1881118,-0.39675784,0.71263045,13.58568286895752,1.3319761753082275,-24.926403045654297,24.60859489440918,40.23814392089844, 46.78935623168945
593,464697365,0.54249537,0.18962395,-0.40292463,0.7123154,13.341315269470215,2.2483510971069336,-22.334537506103516,-19.77805519104004,-44.407257080078125, 25.269468307495117
594,464714032,0.5378959,0.19722857,-0.41526687,0.7066275,12.182403564453125,2.3850109577178955,-15.02890396118164,-42.170894622802734,-103.99954986572266, -3.724879503250122
595,464730699,0.5310933,0.21179838,-0.42539272,0.7015145,18.213674545288086,-0.2581730782985687,10.693896293640137,-0.9764196276664734,-135.02789306640625, -13.738507270812988
596,464747366,0.5222433,0.23606864,-0.4255048,0.70034224,15.78917121887207,-7.1222991943359375,15.796653747558594,97.22541046142578,-145.5045623779297, -32.40184783935547
597,464764033,0.51102346,0.26798308,-0.42913947,0.69489545,20.604997634887695,12.787530899047852,0.5870938897132874,99.03926849365234,-208.90167236328125, -53.02372360229492
598,464780700,0.49813032,0.2869689,-0.44351453,0.68761176,16.447986602783203,2.0950443744659424,-0.41162174940109253,-0.09541986137628555,-193.10699462890625, 6.574780464172363
599,464797367,0.48851413,0.2979887,-0.46238214,0.67731786,9.608485221862793,-6.3634467124938965,-0.7606656551361084,-64.2576904296875,-166.7337188720703, 13.975312232971191
600,464814034,0.47681624,0.31117302,-0.47378263,0.67182434,7.41510009765625,-12.23458480834961,-5.469944477081299,-2.650021553039551,-148.49945068359375, 17.584022521972656
601,464830701,0.4659965,0.32672825,-0.47356272,0.67218626,9.393126487731934,-2.938652515411377,-0.6633794903755188,76.048828125,-105.92450714111328, 0.049774862825870514
602,464847368,0.45882618,0.3382769,-0.4758127,0.6698133,9.423633575439453,-4.726340293884277,1.9479923248291016,34.69852828979492,-89.57075500488281, -7.005749225616455
603,464864035,0.45470345,0.34706473,-0.47973987,0.66531235,10.101815223693848,-2.2340121269226074,2.284527063369751,4.214014530181885,-77.13844299316406, -14.845171928405762
604,464880702,0.45164827,0.35302535,-0.48570016,0.65991104,10.718490600585938,-1.3869500160217285,1.7207638025283813,-19.452190399169922,-69.2051010131836, -8.365017890930176
605,464897369,0.4495096,0.35676196,-0.49249667,0.65430063,10.28248405456543,-2.970191478729248,1.3962277173995972,-33.082908630371094,-59.16963577270508, -3.701709747314453
606,464914036,0.44736245,0.36051625,-0.49695557,0.6503307,10.041157722473145,-3.547419309616089,1.3186676502227783,-16.93930435180664,-48.04071044921875, -4.384973049163818
607,464930703,0.44476143,0.36452433,-0.4997497,0.6477344,10.190149307250977,-3.042788505554199,2.056858539581299,-2.900118589401245,-42.213993072509766, -3.1302504539489746
608,464947370,0.44161087,0.36851242,-0.5021324,0.6457876,9.621615409851074,-2.230515480041504,1.6750231981277466,2.4733753204345703,-41.143917083740234, 0.33753252029418945
609,464964037,0.43795824,0.37256238,-0.50449765,0.6441057,9.338788986206055,-2.8953447341918945,1.5479671955108643,4.918778419494629,-42.44490051269531, 3.114377498626709
610,464980704,0.43439034,0.37698114,-0.5065167,0.6423638,9.03176498413086,-3.650233268737793,1.4567548036575317,7.13335657119751,-42.91075897216797, 0.38746505975723267
611,464997371,0.43115893,0.3815739,-0.50827104,0.64044064,8.851832389831543,-3.734863758087158,1.5836620330810547,7.314093589782715,-42.20222854614258, -2.943955659866333
612,465014038,0.43010798,0.38444227,-0.51138455,0.63694376,8.89686107635498,-3.5456204414367676,1.1613709926605225,-15.008136749267578,-35.16421127319336, -7.628873348236084
613,465030705,0.4299215,0.38672757,-0.5147193,0.63298756,8.577241897583008,-3.694131851196289,0.8248454332351685,-21.605825424194336,-31.45297622680664, -10.144001960754395
614,465047372,0.42955926,0.3894513,-0.517261,0.629482,8.76292896270752,-3.322176456451416,0.8359820246696472,-14.800801277160645,-30.452856063842773, -11.714367866516113
615,465064039,0.42865565,0.39269513,-0.51936656,0.6263412,9.091316223144531,-2.98854923248291,1.0377835035324097,-8.635820388793945,-32.375694274902344, -11.31639289855957
616,465080706,0.42703378,0.3963505,-0.5213689,0.62347645,9.387787818908691,-2.421095609664917,1.1610362529754639,-4.059887886047363,-35.676021575927734, -9.161090850830078
617,465097373,0.42479998,0.39993307,-0.52404153,0.6204668,9.329729080200195,-1.9569315910339355,0.9796155691146851,-6.005188941955566,-39.933494567871094, -4.8736138343811035
618,465114040,0.42185184,0.40362877,-0.52732265,0.6172974,9.134533882141113,-2.3639776706695557,0.7020413875579834,-6.886678218841553,-45.218963623046875, -1.0232988595962524
619,465130707,0.41769776,0.4085257,-0.5301526,0.61447,9.021279335021973,-2.9343173503875732,0.5385932922363281,3.094114065170288,-52.443912506103516, -0.5197762846946716
620,465147374,0.41310886,0.41415614,-0.5329308,0.61139244,9.291829109191895,-3.0048270225524902,0.9035624265670776,5.7267279624938965,-57.69266891479492, -2.2262179851531982
621,465164041,0.4087181,0.4197366,-0.5366837,0.607241,9.377982139587402,-3.2632412910461426,1.1456196308135986,-3.0174479484558105,-62.5991096496582, -3.157115936279297
622,465180708,0.4048049,0.42486158,-0.5420759,0.6014811,9.659208297729492,-3.524170160293579,0.8583006262779236,-18.460973739624023,-68.20154571533203, -3.2652029991149902
623,465197375,0.40111488,0.4296917,-0.54918456,0.5940272,9.8553466796875,-3.944390296936035,0.6860350370407104,-33.35200119018555,-75.89393615722656, -2.795219659805298
624,465214042,0.39727858,0.4344782,-0.5574019,0.58540714,10.113834381103516,-3.692765474319458,0.4246644973754883,-41.97649002075195,-82.78907775878906, -1.9812278747558594
625,465230709,0.39340937,0.43944177,-0.56604856,0.57594204,10.592036247253418,-2.3750221729278564,0.5100653171539307,-46.36762619018555,-87.34235382080078, -3.5568559169769287
626,465247376,0.38905087,0.4450233,-0.575094,0.5655624,11.35884952545166,-1.8113412857055664,-0.08713335543870926,-48.36336898803711,-95.5571060180664, -5.2855353355407715
627,465264043,0.3833655,0.4519076,-0.5840653,0.55468756,11.833963394165039,-2.211134672164917,0.564856767654419,-42.49306869506836,-107.2050552368164, -6.815693378448486
628,465280710,0.37637213,0.46033084,-0.5930164,0.5429283,12.584115982055664,-2.8326265811920166,0.7959973812103271,-37.85378646850586,-121.04802703857422, -10.392818450927734
629,465297377,0.36832538,0.47027862,-0.601775,0.5301334,13.933308601379395,-3.0383341312408447,1.72041916847229,-34.08895492553711,-133.8463134765625, -15.961204528808594
630,465314044,0.35942656,0.48221835,-0.6100877,0.5158209,15.605366706848145,-3.434000015258789,3.2239394187927246,-30.956531524658203,-148.4567108154297, -26.378314971923828
631,465330711,0.3510721,0.49453676,-0.61865735,0.49944487,16.90358543395996,-3.8638484477996826,5.610448360443115,-41.4150505065918,-155.0582275390625, -34.14051818847656
632,465347378,0.34917948,0.5030693,-0.63092476,0.47637087,17.39202308654785,-2.960623264312744,9.638588905334473,-113.75092315673828,-146.3661651611328, -43.8173942565918
633,465364045,0.35142526,0.5094699,-0.64699364,0.44535384,17.325096130371094,-2.3990883827209473,10.179605484008789,-180.15042114257812,-158.1786651611328, -54.03924560546875
634,465380712,0.3491763,0.5195487,-0.6626729,0.41110808,15.806081771850586,-2.9624462127685547,5.024872779846191,-168.72386169433594,-199.96206665039062, -65.80437469482422
635,465397379,0.34189475,0.53159535,-0.6773797,0.37639222,16.85773277282715,-3.37202787399292,-1.5005184412002563,-145.42807006835938,-227.90638732910156, -65.1572494506836
636,465414046,0.3358102,0.5430219,-0.6861578,0.34863508,17.98394775390625,-4.360559940338135,-0.3054681122303009,-103.49434661865234,-181.37796020507812, -70.68621826171875
637,465430713,0.32346034,0.5548348,-0.69201046,0.32962614,13.191967964172363,-7.028445243835449,-0.5065774917602539,-30.928848266601562,-172.50856018066406, -48.22788619995117
638,465447380,0.31187615,0.5639469,-0.6951048,0.31863236,10.96225357055664,-5.133805274963379,3.6387739181518555,4.499335289001465,-126.0760726928711, -29.84343910217285
639,465464047,0.3016756,0.56922394,-0.69655365,0.3158943,10.27062702178955,-8.45391845703125,11.402793884277344,33.94036865234375,-75.59197235107422, -3.243286609649658
640,465480714,0.29546455,0.56958103,-0.69646984,0.3212599,6.394575119018555,-8.202750205993652,13.01732063293457,50.19002914428711,-11.031831741333008, 22.430116653442383
641,465497381,0.2944938,0.5676042,-0.6928098,0.333337,4.138261318206787,-5.190812587738037,10.080432891845703,64.89241790771484,52.653831481933594, 21.630435943603516
642,465514048,0.300116,0.5612876,-0.68728936,0.35002878,5.536922454833984,-3.085620403289795,8.897872924804688,56.58938980102539,115.71028900146484, 29.251327514648438
643,465530715,0.31405622,0.5500013,-0.681154,0.36728263,5.982160568237305,-2.54996919631958,6.591971397399902,18.333553314208984,170.3548583984375, 31.49476432800293
644,465547382,0.3345433,0.53419805,-0.6736019,0.3859714,6.882318496704102,-1.8652218580245972,5.7500810623168945,-5.899144172668457,220.87518310546875, 33.834938049316406
645,465564049,0.3610725,0.514159,-0.66505605,0.40369257,7.868374347686768,-0.8117058277130127,4.224044322967529,-39.70197677612305,258.809326171875, 31.515695571899414
646,465580716,0.39076635,0.49062398,-0.6551854,0.42109624,9.359204292297363,-0.5074876546859741,3.1305878162384033,-57.34967803955078,285.1378479003906, 33.21604537963867
647,465597383,0.42138267,0.46349645,-0.6441269,0.43898582,10.395567893981934,-1.4457916021347046,1.7651232481002808,-64.49362182617188,304.5225830078125, 44.00222396850586
648,465614050,0.45103055,0.43359712,-0.6313923,0.45815828,11.958311080932617,-2.455522298812866,-0.04754668474197388,-58.69633865356445,317.5525817871094, 57.54414749145508
649,465630717,0.47720888,0.40273172,-0.61609644,0.48010853,12.880167007446289,-3.008486270904541,-1.1066069602966309,-31.203886032104492,321.77679443359375, 73.61357879638672
650,465647384,0.49983028,0.37172073,-0.5986428,0.50360745,13.555704116821289,-3.5040042400360107,-1.6608197689056396,-8.131129264831543,318.58831787109375, 85.0521469116211
651,465664051,0.5187131,0.34110397,-0.57881504,0.52873254,14.378373146057129,-3.8967902660369873,-1.7676641941070557,17.722278594970703,314.192626953125, 95.87911987304688
652,465680718,0.53344077,0.3123029,-0.55516064,0.5565109,15.889575004577637,-3.4700677394866943,-2.3399620056152344,58.4364013671875,310.9851379394531, 104.24166870117188
653,465697385,0.5447182,0.28531316,-0.5281849,0.5855763,17.940895080566406,-2.6575429439544678,-3.241431474685669,90.15579986572266,305.8961486816406, 108.13776397705078
654,465714052,0.5530508,0.26121852,-0.4984792,0.6143439,18.921539306640625,-2.5814077854156494,-4.6402082443237305,116.7324447631836,293.2646789550781, 103.0525131225586
655,465730719,0.559246,0.24050067,-0.46680206,0.6414821,18.952882766723633,-1.9527101516723633,-6.18833065032959,136.18479919433594,276.35302734375, 90.81461334228516
656,465747386,0.5640605,0.22243264,-0.43689483,0.66444165,18.122316360473633,-1.856523871421814,-8.632988929748535,127.47079467773438,246.63108825683594, 75.31291198730469
657,465764053,0.5672407,0.20740844,-0.4116865,0.68244714,16.61763572692871,-1.4240612983703613,-12.098579406738281,105.46460723876953,202.1519317626953, 61.66206741333008
658,465780720,0.5688499,0.19579324,-0.39353815,0.6951278,14.109761238098145,-0.10607707500457764,-17.68048095703125,72.84423828125,146.74957275390625, 48.73286437988281
659,465797387,0.56871957,0.18899524,-0.38532194,0.7016879,12.932260513305664,0.6519715189933777,-24.31963348388672,30.067224502563477,72.13677215576172, 33.50344467163086
660,465814054,0.5673203,0.18794173,-0.38785207,0.7017096,12.901678085327148,1.2981826066970825,-24.28472900390625,-14.900469779968262,-9.207179069519043, 12.866387367248535
661,465830721,0.56499493,0.19130139,-0.3997137,0.69599825,11.673917770385742,0.18750575184822083,-19.59665298461914,-56.715370178222656,-76.53783416748047, -4.668844699859619
662,465847388,0.56172055,0.19728513,-0.41477436,0.68812144,11.7122802734375,-1.8139063119888306,-9.361615180969238,-66.46405029296875,-106.79168701171875, -11.489555358886719
663,465864055,0.55579394,0.20750466,-0.42464888,0.6838921,12.378716468811035,-7.201822757720947,20.41284942626953,-11.519418716430664,-109.30680084228516, -3.9398622512817383
664,465880722,0.54899436,0.22615153,-0.4252044,0.68312675,13.68713092803955,-7.454201698303223,13.699492454528809,75.82411193847656,-111.04020690917969, -24.5401554107666
665,465897389,0.53913295,0.25280696,-0.4300421,0.67859286,21.1760311126709,8.556320190429688,-1.4769651889801025,79.66786193847656,-179.69552612304688, -41.19235610961914
666,465914056,0.5293732,0.2683741,-0.4434706,0.67161995,18.67522621154785,6.278871536254883,-0.6335688233375549,-8.933351516723633,-163.63284301757812, -2.867151975631714
667,465930723,0.5228072,0.27597395,-0.46184963,0.6612156,11.090076446533203,-1.7486025094985962,1.7650591135025024,-77.1567153930664,-141.38902282714844, 3.4300272464752197
668,465947390,0.51548296,0.28143683,-0.4791563,0.65228826,6.885282516479492,-10.89229679107666,-4.829517364501953,-73.82058715820312,-127.42513275146484, 16.95553207397461
669,465964057,0.50678843,0.29028708,-0.4855303,0.650507,9.402298927307129,-7.217163562774658,-1.6478664875030518,13.477277755737305,-94.51395416259766, 16.031383514404297
670,465980724,0.5007996,0.2981048,-0.48909158,0.6489398,9.091922760009766,-3.9462344646453857,1.3236656188964844,17.805070877075195,-70.61585998535156, 2.4569761753082275
671,465997391,0.49565703,0.30596986,-0.49190992,0.6470944,8.836782455444336,-4.871945381164551,2.6171295642852783,18.61835479736328,-66.00389099121094, -3.98172664642334
672,466014058,0.4923585,0.3128204,-0.49471977,0.6441887,9.857723236083984,-1.463299036026001,2.1959941387176514,7.727062225341797,-57.47669219970703, -12.417561531066895
673,466030725,0.49009684,0.31662607,-0.5000876,0.63989514,10.031055450439453,-1.929235816001892,3.2740914821624756,-20.869104385375977,-52.126243591308594, -5.839300632476807
674,466047392,0.48852512,0.31915417,-0.5060753,0.6351157,10.347892761230469,-2.4884042739868164,1.9717012643814087,-31.090341567993164,-47.308494567871094, -4.7606096267700195
675,466064059,0.48564884,0.3225021,-0.51024574,0.6322869,10.244736671447754,-2.6056711673736572,2.024799108505249,-10.754532814025879,-45.05989074707031, 0.6540828347206116
676,466080726,0.4814229,0.32690218,-0.51285,0.63115126,9.793992042541504,-2.37027907371521,2.255342721939087,8.494433403015137,-45.402462005615234, 5.010323524475098
677,466097393,0.47614008,0.33212218,-0.51516306,0.63054955,9.258000373840332,-2.6685612201690674,2.1406021118164062,16.725271224975586,-50.5436897277832, 7.8149309158325195
678,466114060,0.47066867,0.33776352,-0.51746196,0.6297778,8.90992546081543,-3.4083375930786133,1.8572431802749634,17.9888973236084,-53.40102767944336, 6.541372776031494
679,466130727,0.4665806,0.34230125,-0.5205973,0.6277827,8.99931526184082,-3.811753749847412,1.9012680053710938,3.2280025482177734,-49.26804733276367, 2.4469492435455322
680,466147394,0.46419275,0.34535104,-0.5246639,0.6244882,8.745194435119629,-3.9870119094848633,1.8176690340042114,-14.222179412841797,-42.827247619628906, -1.555751919746399
681,466164061,0.46311456,0.3472668,-0.5297725,0.6198967,8.753094673156738,-3.5324859619140625,1.5390015840530396,-30.108043670654297,-39.660945892333984, -4.765117645263672
682,466180728,0.4632286,0.34789068,-0.5361943,0.61391133,9.033062934875488,-3.10237455368042,1.4709492921829224,-47.75061798095703,-37.34088897705078, -6.448338031768799
683,466197395,0.46401083,0.3477022,-0.54325813,0.60718036,9.035697937011719,-3.0597176551818848,1.2415978908538818,-57.40086364746094,-35.29607009887695, -7.1082658767700195
684,466214062,0.46405914,0.3483106,-0.5497413,0.6009273,9.028138160705566,-3.1053717136383057,1.2939852476119995,-48.899696350097656,-38.38786697387695, -6.880523204803467
685,466230729,0.4629639,0.3502864,-0.55549043,0.5953103,9.091168403625488,-3.2406888008117676,1.0822324752807617,-36.36915588378906,-44.512550354003906, -7.051822662353516
686,466247396,0.4608043,0.35354537,-0.5605926,0.5902551,9.162138938903809,-2.9305546283721924,0.8794841170310974,-24.93045425415039,-50.43419647216797, -7.368229866027832
687,466264063,0.45791477,0.35741922,-0.5655634,0.585409,9.130008697509766,-2.3480629920959473,0.5620158314704895,-19.877182006835938,-54.83348846435547, -6.434834003448486
688,466280730,0.45417947,0.36202288,-0.57042617,0.58075345,9.134181022644043,-2.814500331878662,0.27301788330078125,-14.328042984008789,-60.266456604003906, -5.5316243171691895
689,466297397,0.44896287,0.36801788,-0.5745062,0.57700783,9.366403579711914,-2.7174391746520996,0.29939427971839905,0.3932187855243683,-66.93516540527344, -4.185488700866699
690,466314064,0.4431157,0.37470052,-0.5783623,0.57336295,9.417313575744629,-3.0357673168182373,0.058998867869377136,5.394996643066406,-71.22095489501953, -4.661019802093506
691,466330731,0.43677112,0.3816783,-0.58245075,0.56947696,9.57203483581543,-3.0591776371002197,0.0339590460062027,5.6994218826293945,-75.70515441894531, -4.017945766448975
692,466347398,0.43016592,0.3888171,-0.5866836,0.56531495,9.84118366241455,-3.228832721710205,0.05388737469911575,5.191928863525391,-78.55219268798828, -4.100951671600342
693,466364065,0.4236888,0.39565852,-0.5914008,0.5605241,10.218225479125977,-3.1240644454956055,-0.030275188386440277,-0.4565182030200958,-80.00921630859375, -3.9727091789245605
694,466380732,0.41740078,0.4023538,-0.5965363,0.5550068,10.478391647338867,-2.9288275241851807,-0.012100644409656525,-5.9664154052734375,-81.88838195800781, -5.090644836425781
695,466397399,0.4113651,0.40892404,-0.6018696,0.5489199,10.794297218322754,-3.051711082458496,0.10610504448413849,-10.118532180786133,-82.53935241699219, -6.630419731140137
696,466414066,0.4050735,0.41606796,-0.60755515,0.5419225,11.166268348693848,-3.091792106628418,0.1992643177509308,-12.882627487182617,-89.3423843383789, -9.625505447387695
697,466430733,0.398348,0.4239006,-0.61354953,0.5340267,11.791647911071777,-2.5411813259124756,0.5029492974281311,-14.635796546936035,-97.17872619628906, -12.505450248718262
698,466447400,0.39121395,0.4324799,-0.6200383,0.5248482,12.984556198120117,-2.359231472015381,1.197892665863037,-18.633991241455078,-106.76979064941406, -16.221952438354492
