PacketCounter,SampleTimeFine,Quat_W,Quat_X,Quat_Y,Quat_Z,Acc_X,Acc_Y,Acc_Z,Gyr_X,Gyr_Y,Gyr_Z 
2,100363532,0.6446625,0.2792174,-0.6868568,0.1862145,9.760213851928711,1.160841941833496,-0.9276258945465088,-1.1248970031738281,-0.7256077527999878, 0.5672765374183655
3,100380199,0.6453116,0.27938554,-0.6864388,0.18525246,9.750853538513184,1.0688972473144531,-0.9564533233642578,-2.2164206504821777,-0.5884133577346802, 0.6095758676528931
4,100396866,0.64565635,0.27949563,-0.6861889,0.18481067,9.746606826782227,1.0308806896209717,-0.9681129455566406,-1.8516829013824463,-0.35592687129974365, 0.6494932174682617
5,100413533,0.64584756,0.27933863,-0.68614894,0.18452826,9.690360069274902,1.034075140953064,-0.9884843230247498,-1.5102399587631226,-0.10530661046504974, 0.4132416844367981
6,100430200,0.64594394,0.27908346,-0.68623304,0.18426423,9.723950386047363,1.0281298160552979,-0.971228837966919,-1.4397411346435547,0.08997101336717606, 0.300430566072464
7,100446867,0.6460419,0.2787454,-0.6863501,0.18399586,9.711997032165527,1.0688825845718384,-0.9830595850944519,-1.5713391304016113,0.20860904455184937, 0.16779519617557526
8,100463534,0.64616925,0.27828977,-0.6865256,0.18358324,9.698894500732422,1.0957767963409424,-0.9701259732246399,-2.0803403854370117,0.22059579193592072, 0.2708479166030884
9,100480201,0.6462109,0.27821442,-0.6865493,0.18346234,9.719170570373535,1.077451229095459,-0.9399470090866089,-1.9991095066070557,0.17788659036159515, 0.23207025229930878
10,100496868,0.64625657,0.27804133,-0.68662864,0.18326664,9.733595848083496,1.0936064720153809,-0.903663158416748,-2.2177398204803467,-0.22525088489055634, 0.41645607352256775
11,100513535,0.6463552,0.27773803,-0.68673754,0.18297021,9.735149383544922,1.0556491613388062,-0.9874997138977051,-2.0874736309051514,-0.3094654381275177, 0.513976514339447
12,100530202,0.6464199,0.27748963,-0.686829,0.18277535,9.68551254272461,1.0409448146820068,-1.0138227939605713,-1.411887288093567,-0.10117016732692719, 0.5907249450683594
13,100546869,0.6464213,0.2773954,-0.68687373,0.1827454,9.69757080078125,1.0837301015853882,-0.9722238779067993,-1.5730937719345093,-0.04565464332699776, 0.6411691904067993
14,100563536,0.64650774,0.27701408,-0.68702805,0.18243738,9.726476669311523,1.1078723669052124,-0.9165953397750854,-2.7654542922973633,-0.11309286952018738, 0.7452847361564636
15,100580203,0.6466358,0.27651122,-0.68722695,0.18199699,9.7302827835083,1.0641533136367798,-0.9320129752159119,-4.1954755783081055,-0.3848308324813843, 0.8643966317176819
16,100596870,0.64671665,0.2761904,-0.6873463,0.1817462,9.721794128417969,0.9556702971458435,-0.9869279861450195,-3.6665987968444824,-0.33899688720703125, 0.8433685898780823
17,100613537,0.64678305,0.27584475,-0.6874807,0.18152583,9.700937271118164,0.960803747177124,-0.9968072772026062,-2.078317165374756,-0.1503593772649765, 0.7396499514579773
18,100630204,0.6467804,0.27572033,-0.6875343,0.18152168,9.719112396240234,1.0014376640319824,-0.9874199032783508,-1.2521663904190063,-0.06795049458742142, 0.5664055943489075
19,100646871,0.64679325,0.27556425,-0.6875988,0.18146844,9.702369689941406,1.0423321723937988,-0.961054265499115,-1.7438664436340332,-0.07480189204216003, 0.4565912187099457
20,100663538,0.6468512,0.27528813,-0.6877067,0.18127175,9.719069480895996,1.0041815042495728,-0.9515740871429443,-2.111626148223877,-0.08571290224790573, 0.34375447034835815
21,100680205,0.6468991,0.2750333,-0.68780345,0.18112096,9.721460342407227,1.0039616823196411,-0.9493167400360107,-1.800214171409607,-0.0524291917681694, 0.4161999523639679
22,100696872,0.64693725,0.2748237,-0.68787664,0.1810251,9.74315071105957,1.0274461507797241,-0.9896776676177979,-1.1991609334945679,0.04047446325421333, 0.3880771994590759
23,100713539,0.646949,0.27469215,-0.6879269,0.1809915,9.751021385192871,1.0580520629882812,-0.9690257906913757,-1.504118800163269,-0.04982951655983925, 0.3973746597766876
24,100730206,0.6469936,0.27445412,-0.68801874,0.18084423,9.723304748535156,1.0263605117797852,-0.9962720274925232,-1.8671271800994873,-0.08434262126684189, 0.3990266025066376
25,100746873,0.64706147,0.2742498,-0.68806547,0.18073359,9.731417655944824,1.0077937841415405,-1.0083215236663818,-1.9916306734085083,0.22696049511432648, 0.3419743478298187
26,100763540,0.6472123,0.27380887,-0.6881989,0.18035278,9.711823463439941,0.9937135577201843,-1.006405234336853,-2.3870396614074707,0.28111860156059265, 0.09673276543617249
27,100780207,0.6473402,0.2734565,-0.6882924,0.18007159,9.736664772033691,0.9972601532936096,-0.9564849138259888,-2.1112420558929443,0.3769741654396057, 0.1284669041633606
28,100796874,0.6474088,0.27339208,-0.68826056,0.18004528,9.7365083694458,1.0127179622650146,-0.9661269187927246,-1.9370882511138916,0.481742799282074, -0.017608728259801865
29,100813541,0.6474334,0.27342454,-0.68820673,0.1801126,9.726822853088379,1.0153344869613647,-0.9522870182991028,-1.9645963907241821,0.31109824776649475, 0.055675603449344635
30,100830208,0.64750034,0.2732224,-0.6882667,0.17994961,9.692018508911133,0.9869276285171509,-0.9333516359329224,-1.6806925535202026,0.13036221265792847, 0.05034816265106201
31,100846875,0.64752847,0.27306256,-0.68834364,0.17979656,9.689133644104004,1.0618382692337036,-0.8903475403785706,-1.8376981019973755,-0.22974589467048645, 0.01007219310849905
32,100863542,0.64755905,0.272778,-0.68850476,0.17950189,9.737098693847656,1.123751163482666,-0.889350950717926,-3.4845569133758545,-0.7776015996932983, 0.18863113224506378
33,100880209,0.64758927,0.27246428,-0.6886846,0.17917874,9.740670204162598,1.0699070692062378,-0.9338415861129761,-4.216695785522461,-0.9644847512245178, 0.3347387909889221
34,100896876,0.64765316,0.2721555,-0.68881863,0.17890202,9.74262809753418,1.0205377340316772,-1.036673665046692,-3.8638172149658203,-0.5191311240196228, 0.401882529258728
35,100913543,0.64775467,0.2717765,-0.6889553,0.17858379,9.75014877319336,0.9744120240211487,-1.016918420791626,-3.516021966934204,-0.21049799025058746, 0.41485533118247986
36,100930210,0.64786303,0.27146026,-0.6890383,0.17835128,9.704126358032227,0.9290268421173096,-1.0338072776794434,-2.4378552436828613,0.201924130320549, 0.3367621898651123
37,100946877,0.64791894,0.27145624,-0.6889769,0.17839193,9.693948745727539,0.9849241971969604,-1.0482051372528076,-1.8167470693588257,0.4996333122253418, 0.06558772921562195
38,100963544,0.6480119,0.2713646,-0.6889432,0.17832346,9.703615188598633,0.9304042458534241,-1.014053225517273,-1.905751347541809,0.582234263420105, -0.09661109745502472
39,100980211,0.6480785,0.27134788,-0.6888961,0.17828868,9.6941499710083,0.9130956530570984,-0.9778632521629333,-0.8001407384872437,0.559874415397644, -0.3716786503791809
40,100996878,0.6481883,0.27112114,-0.68893963,0.17806607,9.736658096313477,1.0053828954696655,-0.9208447933197021,-0.2671276330947876,0.5413819551467896, -0.37304893136024475
41,101013545,0.64822006,0.27112836,-0.68891186,0.17804672,9.72479248046875,1.098202109336853,-0.9064573645591736,-0.7666136622428894,0.2696440815925598, -0.3425186276435852
42,101030212,0.6482721,0.2710605,-0.68891567,0.17794633,9.723318099975586,1.0351853370666504,-0.9348663091659546,-1.9336175918579102,0.10486477613449097, -0.2462148517370224
43,101046879,0.6483041,0.2709892,-0.6889391,0.1778478,9.720213890075684,1.008590817451477,-0.9509876370429993,-1.874529242515564,-0.073021799325943, -0.15603254735469818
44,101063546,0.6482609,0.27112043,-0.68890053,0.17795408,9.71670913696289,1.0153295993804932,-0.9331336617469788,-1.4779295921325684,-0.2051064819097519, -0.05917814001441002
45,101080213,0.6482906,0.27091926,-0.68900394,0.17775212,9.73654556274414,1.0309319496154785,-0.9209762811660767,-1.9184426069259644,-0.3667866587638855, 0.04625013470649719
46,101096880,0.6483327,0.27073744,-0.68908554,0.17755866,9.741148948669434,1.0051249265670776,-1.0067843198776245,-1.8723264932632446,-0.23767299950122833, -0.048920243978500366
47,101113547,0.64833903,0.2707295,-0.6890848,0.17755036,9.723459243774414,0.9867177605628967,-1.044546365737915,-1.457669734954834,-0.0489586740732193, -0.020566998049616814
48,101130214,0.6483703,0.2707085,-0.6890707,0.17752312,9.706267356872559,0.9997970461845398,-1.0204100608825684,-1.1083767414093018,0.18432818353176117, -0.15417562425136566
49,101146881,0.64840454,0.27080137,-0.68898684,0.17758247,9.714189529418945,1.020336627960205,-1.0014045238494873,-1.2724133729934692,0.41740378737449646, -0.3285469114780426
50,101163548,0.6485357,0.27067524,-0.68895876,0.17740454,9.74943733215332,1.0018388032913208,-1.0062384605407715,-1.7429697513580322,0.6618129014968872, -0.5420287847518921
51,101180215,0.64871806,0.2705711,-0.688875,0.17722224,9.7514009475708,0.9974105358123779,-0.9749212861061096,-1.797358512878418,1.1119049787521362, -0.8231282234191895
52,101196882,0.6489523,0.27038565,-0.68879557,0.17695493,9.759451866149902,0.984916090965271,-0.9041799902915955,-1.8865289688110352,1.3647663593292236, -0.950179934501648
53,101213549,0.64911866,0.27038723,-0.6886578,0.17687897,9.797306060791016,1.0506023168563843,-0.9524749517440796,-1.9805406332015991,1.197950839996338, -0.8177878856658936
54,101230216,0.6492841,0.2702065,-0.6886251,0.17667474,9.733790397644043,1.064516305923462,-0.9660061001777649,-2.2171378135681152,0.8483118414878845, -0.45038652420043945
55,101246883,0.6494168,0.2699928,-0.6886399,0.1764565,9.685966491699219,1.0228079557418823,-0.9538065791130066,-2.2398946285247803,0.5166658163070679, -0.23762182891368866
56,101263550,0.6494961,0.2698463,-0.6886531,0.1763371,9.682757377624512,1.0697619915008545,-0.9380369782447815,-1.7969229221343994,0.3263377845287323, -0.009860889054834843
57,101280217,0.6495612,0.2696818,-0.6886906,0.1762022,9.675897598266602,1.0805039405822754,-0.9876255393028259,-1.7139251232147217,0.16839711368083954, 0.05481758341193199
58,101296884,0.6495957,0.26959398,-0.6887025,0.1761631,9.676898002624512,1.0069793462753296,-1.025150179862976,-1.8652318716049194,0.11557088792324066, 0.21788080036640167
59,101313551,0.6496423,0.2693859,-0.68877566,0.17602383,9.703030586242676,1.0127142667770386,-0.9558250904083252,-1.287217378616333,0.05493283271789551, 0.2764570713043213
60,101330218,0.6496263,0.2693373,-0.68880916,0.17602569,9.693791389465332,1.0132032632827759,-0.9314814805984497,-1.3506728410720825,-0.17026041448116302, 0.30566832423210144
61,101346885,0.6496086,0.26915237,-0.6889365,0.17587604,9.732690811157227,1.0414528846740723,-0.9158972501754761,-1.6136001348495483,-0.5891433358192444, 0.33835020661354065
62,101363552,0.6495583,0.26905188,-0.6890533,0.17575769,9.7329740524292,1.0172007083892822,-0.9165491461753845,-2.334764003753662,-0.889657199382782, 0.22664035856723785
63,101380219,0.6494642,0.26907116,-0.6891399,0.17573632,9.720120429992676,0.9891852140426636,-0.9796085953712463,-1.8864649534225464,-1.0052984952926636, 0.15229953825473785
64,101396886,0.64938635,0.26903623,-0.6892445,0.17566757,9.71023941040039,1.0563768148422241,-0.9600090384483337,-1.931722640991211,-0.9758566617965698, 0.16180182993412018
65,101413553,0.64936644,0.26875997,-0.6894468,0.17536984,9.728320121765137,1.0215153694152832,-0.91805100440979,-2.52880597114563,-1.0750547647476196, 0.2273062914609909
66,101430220,0.64931947,0.26859367,-0.6895959,0.17521252,9.77862548828125,1.0203187465667725,-0.9642642140388489,-2.0837981700897217,-0.9345946311950684, 0.34700727462768555
67,101446887,0.64929605,0.2685401,-0.68964887,0.1751727,9.775683403015137,0.9890571236610413,-1.0014115571975708,-2.1323981285095215,-0.4402695298194885, 0.24427470564842224
68,101463554,0.6493196,0.2683507,-0.68974346,0.17500289,9.748068809509277,1.0093302726745605,-1.0024486780166626,-2.2489490509033203,-0.34153255820274353, 0.2036529928445816
69,101480221,0.64935726,0.26825976,-0.6897643,0.17492023,9.739086151123047,1.0075374841690063,-0.9815316796302795,-2.7664146423339844,-0.054247695952653885, 0.1097952350974083
70,101496888,0.64944583,0.26795915,-0.6898732,0.17462312,9.738109588623047,1.012467622756958,-0.9565969705581665,-3.2322583198547363,-0.1649329513311386, 0.08370869606733322
71,101513555,0.6495623,0.26763156,-0.6899765,0.17428365,9.727225303649902,1.072247862815857,-0.9946424961090088,-3.4721853733062744,-0.04073699191212654, -0.03482046350836754
72,101530222,0.6496685,0.2673661,-0.6900439,0.17402804,9.678301811218262,1.0123341083526611,-1.0152628421783447,-3.0719363689422607,0.11767115443944931, 0.030664805322885513
73,101546889,0.64977294,0.26709396,-0.6901149,0.1737741,9.698821067810059,0.9954173564910889,-0.9629341959953308,-2.5751771926879883,0.16652734577655792, 0.027104636654257774
74,101563556,0.6498494,0.26688498,-0.6901706,0.17358811,9.738454818725586,1.0024175643920898,-0.9597991108894348,-2.2462339401245117,0.11448237299919128, 0.06758551299571991
75,101580223,0.64987594,0.2668442,-0.69017076,0.17355041,9.725693702697754,1.0034669637680054,-0.9415908455848694,-2.4280457496643066,0.0006211080471985042, 0.0597224161028862
76,101596890,0.64993304,0.26655865,-0.6903046,0.17324303,9.719432830810547,1.0869792699813843,-0.8736023902893066,-3.4057209491729736,-0.4812755286693573, 0.06835389882326126
77,101613557,0.6500033,0.26624465,-0.6904531,0.17286988,9.686976432800293,1.0670311450958252,-0.980646014213562,-4.349331378936768,-0.6303925514221191, -0.028353258967399597
78,101630224,0.6500483,0.26593384,-0.6906172,0.17252359,9.678436279296875,0.9763399362564087,-1.0325220823287964,-3.882962703704834,-0.7397845983505249, 0.11198513954877853
79,101646891,0.65004855,0.26574227,-0.6907453,0.17230545,9.710872650146484,0.9938256740570068,-0.9899224042892456,-3.030738115310669,-0.7351613640785217, 0.14026154577732086
80,101663558,0.65004075,0.26561308,-0.6908359,0.17216997,9.745610237121582,0.9911884069442749,-0.9866954684257507,-2.3582382202148438,-0.5329747200012207, 0.15746048092842102
81,101680225,0.6500298,0.26542518,-0.69096386,0.17198811,9.715259552001953,1.0065008401870728,-0.9415859580039978,-2.259744644165039,-0.6610510349273682, 0.23758982121944427
82,101696892,0.6500187,0.26527885,-0.691071,0.1718247,9.730420112609863,0.9732781052589417,-0.9749695658683777,-2.5167551040649414,-0.6468614935874939, 0.136317178606987
83,101713559,0.64997935,0.26524013,-0.6911379,0.1717649,9.804060935974121,0.9780048131942749,-0.9808967113494873,-2.2277801036834717,-0.623553991317749, 0.11905422806739807
84,101730226,0.64995855,0.26508525,-0.69126123,0.17158602,9.745238304138184,1.018247127532959,-0.947560727596283,-2.155564785003662,-0.7303589582443237, 0.09268596023321152
85,101746893,0.6499282,0.2648086,-0.6914903,0.17120479,9.65436840057373,1.1556580066680908,-0.8460174798965454,-3.996694564819336,-1.5004686117172241, -0.007261199876666069
86,101763560,0.6499709,0.26431102,-0.691795,0.1705799,9.710929870605469,1.1975349187850952,-0.9704287052154541,-6.050834655761719,-1.6523267030715942, -0.011410459876060486
87,101780227,0.65006524,0.26378584,-0.6920523,0.16998816,9.72844123840332,0.9995341897010803,-1.1013957262039185,-6.087870121002197,-1.1054697036743164, 0.14023594558238983
88,101796894,0.65011346,0.2634101,-0.6922423,0.16961238,9.79638671875,0.9653952717781067,-1.0668210983276367,-4.963114261627197,-0.8753780722618103, 0.39495426416397095
89,101813561,0.65018475,0.26301867,-0.69242287,0.16920999,9.743480682373047,1.0487228631973267,-0.9083399176597595,-4.823945999145508,-0.7058218717575073, 0.26377877593040466
90,101830228,0.65032756,0.26248315,-0.69265276,0.16854982,9.697042465209961,1.0951532125473022,-0.9647239446640015,-6.878804683685303,-0.8902336955070496, -0.19547617435455322
91,101846895,0.650479,0.2618335,-0.6929597,0.16771138,9.68396282196045,1.0749591588974,-1.003106713294983,-8.947376251220703,-1.4509469270706177, -0.25498729944229126
92,101863562,0.6506078,0.26125756,-0.6932248,0.16701293,9.790870666503906,0.9383004903793335,-1.049673080444336,-7.845133304595947,-1.1996222734451294, -0.027712948620319366
93,101880229,0.65067923,0.26091897,-0.6933838,0.16660395,9.753416061401367,0.8940271735191345,-1.0798604488372803,-5.672202110290527,-0.8001792430877686, 0.05045061931014061
94,101896896,0.6507457,0.26054826,-0.6935673,0.1661606,9.713814735412598,0.9600619673728943,-1.0232418775558472,-4.755804538726807,-0.8139843344688416, -0.03592180833220482
95,101913563,0.65082586,0.2601899,-0.6937329,0.16571555,9.691819190979004,1.0226949453353882,-0.9727879166603088,-4.747596263885498,-0.6864076256752014, -0.15333044528961182
96,101930230,0.6509576,0.2598312,-0.6938551,0.16524926,9.71319580078125,1.034669280052185,-1.0528249740600586,-5.713322639465332,-0.37461134791374207, -0.303356796503067
97,101946897,0.6511122,0.25945404,-0.6939598,0.16479169,9.715775489807129,0.9292439222335815,-1.0967626571655273,-5.097734451293945,-0.0707935094833374, -0.3013334274291992
98,101963564,0.651254,0.259167,-0.6940147,0.16445188,9.704404830932617,0.9061571359634399,-1.0898785591125488,-3.518608808517456,0.26641690731048584, -0.34034156799316406
99,101980231,0.65133303,0.25916657,-0.69396275,0.16435814,9.68645191192627,0.9332024455070496,-1.0542742013931274,-2.4295694828033447,0.391842246055603, -0.5798458456993103
100,101996898,0.6514092,0.25924873,-0.6938682,0.164326,9.729506492614746,0.967488169670105,-0.9887945055961609,-1.8849796056747437,0.5717074275016785, -0.7624900937080383
101,102013565,0.6514839,0.25930777,-0.6937974,0.16423619,9.72887134552002,0.9767420887947083,-1.020619511604309,-1.7212755680084229,0.44460436701774597, -0.9293822646141052
102,102030232,0.6515475,0.2594008,-0.6937219,0.16415611,9.67818832397461,0.9708896279335022,-1.0288962125778198,-1.062196969985962,0.44337502121925354, -1.0930476188659668
103,102046899,0.65157706,0.25959736,-0.69361717,0.16417058,9.638747215270996,1.029419183731079,-1.0242228507995605,-0.4368502199649811,0.42465218901634216, -1.1446956396102905
104,102063566,0.65159607,0.2597366,-0.6935589,0.16412078,9.653072357177734,1.0475376844406128,-1.0436614751815796,-0.39070895314216614,0.19116680324077606, -1.1287901401519775
105,102080233,0.6515767,0.25993064,-0.69349504,0.16416022,9.722043991088867,1.0616374015808105,-0.9653946161270142,-0.13118824362754822,0.07993082702159882, -0.9091227054595947
106,102096900,0.6515655,0.26007795,-0.693449,0.16416612,9.751466751098633,1.1515265703201294,-0.8963423371315002,-0.6811313629150391,0.015194734558463097, -0.7992699146270752
107,102113567,0.65159863,0.26004493,-0.69347215,0.163989,9.78164005279541,1.1159523725509644,-0.9581184983253479,-2.1531317234039307,-0.1730906367301941, -0.715682864189148
108,102130234,0.65160245,0.2599732,-0.6935338,0.16382663,9.739550590515137,1.0385140180587769,-0.9980473518371582,-1.8912544250488281,-0.3770701587200165, -0.39499902725219727
109,102146901,0.65158993,0.2600451,-0.6935337,0.16376284,9.693153381347656,0.976021409034729,-1.0479023456573486,-1.34455144405365,-0.23853106796741486, -0.667466938495636
110,102163568,0.65154386,0.26024565,-0.693494,0.16379501,9.717138290405273,0.9372502565383911,-1.0464681386947632,-0.3017175793647766,-0.19957414269447327, -0.8817299604415894
111,102180235,0.6515103,0.2604425,-0.6934557,0.16377787,9.726314544677734,1.1024401187896729,-0.9372757077217102,-0.43729841709136963,-0.20873068273067474, -1.1205555200576782
112,102196902,0.6515322,0.260506,-0.6934573,0.16358273,9.721113204956055,1.1283214092254639,-1.0535355806350708,-2.0283849239349365,-0.2971201539039612, -1.2704795598983765
113,102213569,0.6515444,0.26060218,-0.69344,0.16345443,9.724264144897461,1.0526374578475952,-1.0222619771957397,-2.340924024581909,-0.262645423412323, -1.0655012130737305
114,102230236,0.6515591,0.2607945,-0.69335866,0.16343436,9.674053192138672,0.9954559803009033,-1.0411628484725952,-1.6948179006576538,0.08186459541320801, -1.1223100423812866
115,102246903,0.6515626,0.2609652,-0.6932968,0.16341105,9.692961692810059,1.0268292427062988,-1.0217639207839966,-0.9241317510604858,0.0636027380824089, -1.0801259279251099
116,102263570,0.65154874,0.2611514,-0.69324833,0.16337413,9.674640655517578,1.069783329963684,-1.0182546377182007,-1.0408999919891357,-0.1335061937570572, -1.1617408990859985
117,102280237,0.6514963,0.26138112,-0.6932114,0.16337264,9.702861785888672,1.0572822093963623,-1.012859582901001,-0.9370406866073608,-0.38796842098236084, -1.1164319515228271
118,102296904,0.65162486,0.26189557,-0.6928472,0.16358133,9.89304256439209,1.1997238397598267,-0.5825490355491638,1.8814257383346558,2.056898355484009, -2.375065803527832
119,102313571,0.6538653,0.26205948,-0.6908071,0.16300549,9.71885871887207,1.1140626668930054,-0.7561042904853821,-4.483381748199463,18.676496505737305, -9.692654609680176
120,102330238,0.6549501,0.26253882,-0.6896564,0.16275162,9.434837341308594,0.8030805587768555,-1.2092270851135254,-1.8157106637954712,9.238614082336426, -6.721633434295654
121,102346905,0.6554485,0.26297125,-0.68905264,0.16260348,9.680460929870605,1.3070095777511597,-0.8423448801040649,-0.06736140698194504,4.382084369659424, -4.494312286376953
122,102363572,0.65574116,0.26296553,-0.68890667,0.16205068,9.683594703674316,1.351158857345581,-0.9378464221954346,-3.602375030517578,1.1582382917404175, -3.217339277267456
123,102380239,0.6556989,0.2630946,-0.6889491,0.16183099,9.77723503112793,1.110086441040039,-1.088691234588623,-2.704496145248413,-1.0284909009933472, -1.478493094444275
124,102396906,0.65546167,0.26342544,-0.68902355,0.16193746,9.694479942321777,1.09329092502594,-1.0733084678649902,-0.5199505686759949,-1.789866328239441, -0.6404710412025452
125,102413573,0.6551562,0.2636771,-0.68921024,0.16196968,9.672401428222656,1.0766335725784302,-1.0742906332015991,0.4350892901420593,-2.4461026191711426, -0.47444960474967957
126,102430240,0.654786,0.2639648,-0.6894456,0.16199665,9.73294448852539,1.1311041116714478,-1.0320525169372559,-0.14998796582221985,-3.1070125102996826, -0.4442394971847534
127,102446907,0.65433383,0.26407617,-0.68987656,0.16180722,9.78101634979248,1.1607199907302856,-0.8928545713424683,-1.6155340671539307,-4.509078025817871, -0.17670202255249023
128,102463574,0.6536648,0.26433834,-0.69042903,0.16172574,9.752019882202148,1.130757212638855,-0.8726533055305481,-1.5904334783554077,-6.236872673034668, 0.1876450628042221
129,102480241,0.65286237,0.2644403,-0.69122875,0.16138473,9.713276863098145,1.249795913696289,-0.8637844324111938,-2.688258647918701,-8.169082641601562, 0.2966912090778351
130,102496908,0.65204424,0.26456147,-0.69201523,0.16112264,9.786360740661621,1.1499580144882202,-1.0094209909439087,-3.2479724884033203,-8.20008659362793, 0.6663337349891663
131,102513575,0.6512769,0.2647986,-0.69265646,0.16108173,9.6701021194458,1.0533138513565063,-1.0803571939468384,-1.5824424028396606,-7.029918193817139, 0.7860473990440369
132,102530242,0.6507588,0.2649037,-0.69313467,0.16094519,9.79411792755127,1.2341524362564087,-0.9276890158653259,-2.013542652130127,-5.022151470184326, 0.3193327784538269
133,102546909,0.6509933,0.26479152,-0.6930823,0.16040678,9.707918167114258,1.2221479415893555,-1.005479335784912,-6.36871337890625,0.35494720935821533, -2.16805100440979
134,102563576,0.65121716,0.26458323,-0.69310045,0.15976237,9.64548110961914,0.9999105930328369,-1.1581679582595825,-6.100241661071777,0.05536826327443123, -2.169613838195801
135,102580243,0.65126324,0.26457584,-0.6931567,0.15934141,9.71131706237793,1.203275203704834,-0.9278844594955444,-4.486268997192383,-0.844284176826477, -1.809332251548767
136,102596910,0.65127337,0.26448485,-0.6933014,0.15882094,9.708064079284668,1.2190275192260742,-1.0470596551895142,-4.710227966308594,-1.426192283630371, -1.721340298652649
137,102613577,0.6511597,0.26445654,-0.69351906,0.15838327,9.668710708618164,1.0330164432525635,-1.108652114868164,-3.3367838859558105,-2.188477039337158, -1.4365651607513428
138,102630244,0.6509282,0.2646616,-0.69371265,0.158145,9.660133361816406,1.111008644104004,-1.1083261966705322,-1.767417073249817,-2.614262342453003, -1.5134543180465698
139,102646911,0.65070677,0.2647266,-0.6939883,0.15773746,9.645500183105469,1.3077641725540161,-1.0256987810134888,-2.81095552444458,-3.0175347328186035, -1.5214967727661133
140,102663578,0.6505146,0.26468873,-0.69429797,0.1572284,9.691976547241211,1.255936622619629,-1.1725051403045654,-4.32309103012085,-3.166754722595215, -1.3967119455337524
141,102680245,0.65035367,0.2646096,-0.69458103,0.15677805,9.768050193786621,1.2115212678909302,-1.0370954275131226,-4.228785514831543,-2.7353084087371826, -1.0183738470077515
142,102696912,0.6522074,0.2637945,-0.6934297,0.1555426,10.119314193725586,1.618404507637024,-0.051874998956918716,-12.58607006072998,12.76756763458252, -5.881758213043213
143,102713579,0.6543639,0.26280057,-0.6921194,0.15399626,9.296369552612305,1.084395408630371,-1.5010825395584106,-15.377814292907715,14.46511173248291, -6.998260021209717
144,102730246,0.65547913,0.26216796,-0.69156843,0.1528014,9.526229858398438,1.3061829805374146,-1.2400916814804077,-12.748295783996582,6.147879123687744, -4.502139568328857
145,102746913,0.6560734,0.2613268,-0.69167644,0.15119433,9.470871925354004,1.4640487432479858,-1.1175827980041504,-14.63122844696045,0.2993038594722748, -3.705571413040161
146,102763580,0.6561517,0.26088312,-0.6920729,0.14980026,9.253643035888672,1.3086680173873901,-1.1777682304382324,-10.889256477355957,-3.4328715801239014, -3.5954995155334473
147,102780247,0.6561541,0.2609682,-0.6922853,0.14865662,9.311246871948242,1.6413239240646362,-0.8127650022506714,-7.628360271453857,-3.131422281265259, -5.168055534362793
148,102796914,0.6562267,0.26084137,-0.692584,0.14716023,9.148184776306152,1.7548801898956299,-1.033008337020874,-9.016672134399414,-3.407437801361084, -5.7825422286987305
149,102813581,0.6563251,0.2604745,-0.69300616,0.14537206,9.222294807434082,1.8184517621994019,-0.825767993927002,-13.243094444274902,-4.342367172241211, -5.574428558349609
150,102830248,0.6562165,0.25963125,-0.69392544,0.14296517,9.173687934875488,1.8845837116241455,-0.834577739238739,-18.019699096679688,-8.145015716552734, -5.007956027984619
151,102846915,0.6554732,0.2584599,-0.6956354,0.1401598,9.368432998657227,1.6217620372772217,-0.8823783993721008,-20.568635940551758,-15.069972038269043, -3.213172197341919
152,102863582,0.6542763,0.25713587,-0.69781554,0.13732131,9.870161056518555,1.1450450420379639,-0.3056395351886749,-21.149477005004883,-19.286951065063477, -1.3299944400787354
153,102880249,0.6528291,0.25614038,-0.69996274,0.13512392,10.275277137756348,0.16894777119159698,-0.38101649284362793,-16.303991317749023,-19.59528350830078, 0.16163569688796997
154,102896916,0.6508667,0.2561128,-0.70203376,0.1338942,10.279446601867676,0.875767707824707,-0.717729389667511,-5.419656276702881,-20.8420467376709, 0.008189674466848373
155,102913583,0.64946216,0.2560771,-0.70370835,0.13197765,9.524200439453125,1.195044994354248,-1.6841529607772827,-9.118301391601562,-17.558645248413086, -4.309611797332764
156,102930250,0.6483718,0.25554,-0.70549256,0.12881644,9.394575119018555,1.1653131246566772,-1.5691020488739014,-17.428203582763672,-18.134897232055664, -7.624674320220947
157,102946917,0.6475876,0.25409546,-0.7075699,0.12414031,9.889411926269531,1.1388036012649536,-1.2802813053131104,-30.340686798095703,-19.901756286621094, -9.65641975402832
158,102963584,0.64665353,0.25245884,-0.70988977,0.118996605,9.3623685836792,0.8389623165130615,-1.3019273281097412,-33.727455139160156,-22.41044044494629, -10.233654022216797
159,102980251,0.64519334,0.2523482,-0.71189135,0.115137696,9.51749324798584,0.7332230806350708,-1.5120517015457153,-19.154050827026367,-22.52643585205078, -12.176102638244629
160,102996918,0.6433638,0.25410542,-0.71322656,0.11323192,9.541396141052246,1.1635384559631348,-2.0993409156799316,0.8896908760070801,-19.27477264404297, -13.721467018127441
161,103013585,0.6414643,0.25663647,-0.71415114,0.112470634,9.601614952087402,1.9505199193954468,-1.923154354095459,9.520636558532715,-16.508275985717773, -13.01889705657959
162,103030252,0.639885,0.25856647,-0.71499485,0.11168336,9.795755386352539,2.050342559814453,-1.823285460472107,8.196222305297852,-13.785196304321289, -10.867072105407715
163,103046919,0.6384322,0.2599461,-0.7159093,0.11093447,9.775717735290527,1.8953754901885986,-1.886138916015625,5.724526405334473,-12.959856986999512, -7.958487033843994
164,103063586,0.6370215,0.26103243,-0.71688044,0.110219136,9.717656135559082,1.8399182558059692,-1.5831648111343384,3.073570966720581,-12.954541206359863, -6.058867454528809
165,103080253,0.6355649,0.26226553,-0.71776414,0.10994942,9.621731758117676,1.594956874847412,-2.0211257934570312,8.84514331817627,-11.599400520324707, -5.430063724517822
166,103096920,0.6340418,0.2640539,-0.71836686,0.11052437,9.617029190063477,1.8609092235565186,-2.037141799926758,14.55035400390625,-9.804295539855957, -4.739532947540283
167,103113587,0.6326696,0.26535836,-0.71901715,0.111034475,9.730396270751953,1.937778115272522,-1.8735167980194092,13.40298843383789,-8.700140953063965, -2.9500346183776855
168,103130254,0.6315588,0.26611063,-0.7196658,0.111356035,9.728550910949707,1.7914199829101562,-1.7160284519195557,9.443284034729004,-7.344175338745117, -1.2197924852371216
169,103146921,0.63043195,0.26717672,-0.72014576,0.11208276,9.591723442077637,1.3243803977966309,-1.8830190896987915,11.091772079467773,-6.543945789337158, -0.9648822546005249
170,103163588,0.629271,0.26869237,-0.7204122,0.11326429,9.696258544921875,1.399895191192627,-1.4549974203109741,14.045419692993164,-5.5623650550842285, -1.33980131149292
171,103180255,0.6280764,0.2700849,-0.7207853,0.11420606,9.60802173614502,1.4102954864501953,-1.8301395177841187,14.265242576599121,-6.2048869132995605, -1.9384729862213135
172,103196922,0.6268065,0.2716985,-0.7211101,0.115298346,9.60052490234375,1.3541113138198853,-1.921836256980896,11.979522705078125,-7.032868385314941, -1.6270095109939575
173,103213589,0.62541777,0.27305156,-0.72164875,0.11626968,9.470715522766113,1.3521231412887573,-2.0312552452087402,15.787666320800781,-7.57288932800293, -1.4525363445281982
174,103230256,0.6239192,0.2751145,-0.7219088,0.117833264,9.377601623535156,1.6918054819107056,-1.778531551361084,19.83494758605957,-6.792370796203613, -2.4257311820983887
175,103246923,0.6225749,0.27689198,-0.7221609,0.11922696,9.361091613769531,1.8223545551300049,-1.6850340366363525,19.052257537841797,-5.804960250854492, -2.201491355895996
176,103263590,0.62100756,0.27866092,-0.72257406,0.12076548,9.585335731506348,2.0962905883789062,-1.612642526626587,14.16153621673584,-8.4114351272583, 0.18019188940525055
177,103280257,0.61916786,0.27969387,-0.72355694,0.12193507,9.206070899963379,1.9888609647750854,-1.8606599569320679,14.246946334838867,-11.402621269226074, 2.5479352474212646
178,103296924,0.61687756,0.28098398,-0.7247178,0.1236703,9.321338653564453,1.8982502222061157,-1.97040593624115,15.094962120056152,-14.213493347167969, 5.228654384613037
179,103313591,0.61423725,0.28186926,-0.7262896,0.12556306,9.584962844848633,2.144207239151001,-1.8057326078414917,15.639410018920898,-16.852102279663086, 8.779007911682129
180,103330258,0.6113409,0.28196007,-0.7284085,0.12720843,9.517640113830566,1.9272303581237793,-2.1458988189697266,14.056778907775879,-19.741640090942383, 12.334577560424805
181,103346925,0.60786504,0.28224286,-0.73083204,0.12932116,9.257725715637207,1.6701241731643677,-2.5667765140533447,13.86205768585205,-23.902406692504883, 15.43667984008789
182,103363592,0.6039981,0.2823079,-0.73363614,0.13140225,9.378371238708496,1.3882582187652588,-2.4457485675811768,15.500162124633789,-26.929603576660156, 16.95197296142578
183,103380259,0.59984905,0.2821468,-0.7367623,0.13325068,9.70996379852295,1.5193097591400146,-2.0736243724823,13.625387191772461,-29.933475494384766, 17.99895668029785
184,103396926,0.59591895,0.28099266,-0.74025476,0.13396583,9.532509803771973,1.9799171686172485,-1.9848192930221558,3.0494303703308105,-31.644346237182617, 18.859468460083008
185,103413593,0.59214216,0.27959678,-0.74370396,0.13452841,9.532317161560059,1.250604271888733,-2.669300079345703,0.7269493937492371,-30.834575653076172, 19.355253219604492
186,103430260,0.588271,0.27867836,-0.746831,0.13608563,9.390216827392578,1.0161529779434204,-2.679426670074463,8.548348426818848,-28.48958396911621, 20.33737564086914
187,103446927,0.58433956,0.2779354,-0.7498286,0.13804483,9.41205883026123,1.4308539628982544,-2.4796528816223145,11.696139335632324,-27.65279197692871, 20.812946319580078
188,103463594,0.5805278,0.27702168,-0.75278765,0.13984749,9.438312530517578,1.343064308166504,-2.5100462436676025,9.79017162322998,-27.06403923034668, 20.954618453979492
189,103480261,0.57666844,0.27577505,-0.7558957,0.14150485,9.448111534118652,1.3520115613937378,-2.559234619140625,7.789645671844482,-27.866504669189453, 22.395830154418945
190,103496928,0.5726147,0.2741252,-0.759292,0.14298064,9.830430030822754,1.1389659643173218,-2.623898983001709,5.253532886505127,-30.00299644470215, 24.54701805114746
191,103513595,0.5679403,0.27257273,-0.7629258,0.14523233,9.58203125,1.1694490909576416,-2.581429958343506,10.737757682800293,-32.83013916015625, 28.116107940673828
192,103530262,0.5625053,0.27123755,-0.76684767,0.1481987,9.291093826293945,1.641206979751587,-2.3965771198272705,16.490625381469727,-36.85545349121094, 31.069223403930664
193,103546929,0.5565503,0.26914307,-0.77145237,0.15058297,9.16247272491455,1.8446890115737915,-2.6752026081085205,10.787196159362793,-42.592445373535156, 34.65740966796875
194,103563596,0.55011916,0.26645228,-0.77642345,0.15342398,10.345911026000977,1.5041773319244385,-2.8804914951324463,11.432247161865234,-45.092376708984375, 40.797061920166016
195,103580263,0.5435273,0.26280653,-0.78168803,0.15644398,11.22984504699707,1.8876943588256836,-2.5932459831237793,8.829544067382812,-45.77473831176758, 47.29339599609375
196,103596930,0.53714,0.25877059,-0.78694785,0.1588444,11.134696006774902,0.6212355494499207,-2.379746675491333,3.661153793334961,-45.45112991333008, 46.92058181762695
197,103613597,0.5296347,0.25596848,-0.79223996,0.16224402,11.115960121154785,-0.37819838523864746,-2.7197866439819336,15.004083633422852,-51.3116340637207, 45.45511245727539
198,103630264,0.52098876,0.25373837,-0.79784936,0.16620542,11.258964538574219,-0.5753083825111389,-3.273362159729004,21.78129005432129,-58.41972351074219, 46.18701934814453
199,103646931,0.5114062,0.25062004,-0.8042264,0.1699215,11.851198196411133,-0.45820337533950806,-3.4078447818756104,17.99409294128418,-65.7934341430664, 52.558441162109375
200,103663598,0.50153637,0.24588805,-0.8113291,0.17246877,12.754944801330566,0.17320136725902557,-2.742509126663208,5.488714694976807,-70.15179443359375, 58.94183349609375
201,103680265,0.49166787,0.23964304,-0.8189149,0.1738179,13.789970397949219,0.4419855773448944,-1.7660479545593262,-6.98864221572876,-72.1955337524414, 64.09111022949219
202,103696932,0.48185855,0.23212929,-0.8266845,0.1747032,14.140151977539062,0.7333105802536011,-1.4707781076431274,-14.206340789794922,-71.96851348876953, 69.94869995117188
203,103713599,0.4701352,0.22269744,-0.8361361,0.1739408,14.51795482635498,1.022759199142456,-1.0146688222885132,-28.890310287475586,-89.01852416992188, 80.44888305664062
204,103730266,0.4558112,0.21211165,-0.847,0.17273046,14.805464744567871,0.9711847305297852,-1.9285985231399536,-32.90041732788086,-108.15817260742188, 91.00108337402344
205,103746933,0.43847817,0.20093477,-0.8589572,0.17191494,14.923589706420898,1.7621023654937744,-3.867224931716919,-29.36347198486328,-128.13096618652344, 100.94963836669922
206,103763600,0.4218378,0.18783301,-0.87087727,0.16835862,13.909407615661621,4.554929256439209,0.0889369547367096,-52.236183166503906,-125.67882537841797, 103.32342529296875
207,103780267,0.40678912,0.17515005,-0.88142014,0.16414505,10.559013366699219,2.782311201095581,-1.4227263927459717,-55.32911682128906,-113.89244842529297, 95.53427124023438
208,103796934,0.39358148,0.1646202,-0.88997793,0.16103785,9.335663795471191,2.9865150451660156,-3.219184398651123,-42.52259826660156,-98.53533172607422, 81.25727844238281
209,103813601,0.3830462,0.15568364,-0.8967817,0.15754676,9.385946273803711,2.6329164505004883,-1.9960999488830566,-41.55775833129883,-79.79056549072266, 65.67267608642578
210,103830268,0.37701356,0.14957882,-0.9005353,0.1565991,8.249837875366211,1.5217057466506958,0.8778828382492065,-19.86223793029785,-44.55183029174805, 46.912635803222656
211,103846935,0.37490836,0.14755926,-0.90074676,0.16225088,7.122967720031738,3.10425066947937,2.260439395904541,31.376005172729492,-8.938486099243164, 30.981731414794922
212,103863602,0.3780785,0.14533961,-0.8991021,0.16597772,7.995852470397949,2.881802558898926,2.3147475719451904,15.705927848815918,26.513334274291992, 19.694547653198242
213,103880269,0.38578364,0.14405663,-0.89541817,0.1692485,6.791812896728516,2.032294273376465,1.344391107559204,13.150140762329102,58.0242805480957, 5.707048416137695
214,103896936,0.39742857,0.14426088,-0.8896611,0.17246078,6.679812908172607,2.2272958755493164,0.09309279918670654,15.256917953491211,85.77655792236328, -10.081584930419922
215,103913603,0.41276976,0.14496894,-0.8822615,0.17383821,6.8504204750061035,2.499864101409912,-0.498938649892807,3.71633243560791,110.30490112304688, -24.024343490600586
216,103930270,0.4314804,0.14552267,-0.8736129,0.17160478,7.0649895668029785,2.2931296825408936,-1.0029206275939941,-20.458024978637695,130.74420166015625, -38.45083236694336
217,103946937,0.45282847,0.1462188,-0.8635438,0.16690889,7.3052191734313965,1.7932052612304688,-1.841457486152649,-35.76234817504883,148.0536346435547, -51.0184211730957
218,103963604,0.4762994,0.14713301,-0.85195965,0.16017416,7.834856033325195,1.6009609699249268,-2.5301880836486816,-47.56769943237305,162.99607849121094, -62.53420639038086
219,103980271,0.5016705,0.14824952,-0.83868057,0.15153849,8.65652084350586,1.294470191001892,-2.991791248321533,-58.08323287963867,177.4779510498047, -73.68921661376953
220,103996938,0.5282594,0.14979869,-0.8236634,0.14170767,9.426151275634766,0.7081433534622192,-3.480175495147705,-62.90731430053711,188.7908172607422, -83.31056213378906
221,104013605,0.55522954,0.15220574,-0.8069013,0.13215081,9.970158576965332,-0.11603507399559021,-3.8235414028167725,-56.93634796142578,196.72572326660156, -89.33780670166016
222,104030272,0.5819756,0.1562346,-0.78826237,0.124650665,10.395650863647461,-0.48946741223335266,-4.197926998138428,-37.41101837158203,203.36045837402344, -92.27334594726562
223,104046939,0.60838467,0.16205151,-0.7677778,0.1188477,10.952608108520508,0.039381951093673706,-3.85910964012146,-19.13735008239746,209.29689025878906, -96.9039306640625
224,104063606,0.6347619,0.16857181,-0.7456012,0.11287035,11.612838745117188,0.6024096608161926,-3.6163504123687744,-15.719810485839844,215.54391479492188, -103.22144317626953
225,104080273,0.661197,0.17472243,-0.7219015,0.10558795,12.296758651733398,0.817909836769104,-3.3352437019348145,-22.933055877685547,221.38272094726562, -108.84133911132812
226,104096940,0.6874213,0.18042666,-0.69676733,0.09702312,12.953697204589844,0.5727856755256653,-2.9412431716918945,-30.061664581298828,225.77333068847656, -114.05349731445312
227,104113607,0.7130554,0.18578812,-0.67023987,0.08839377,13.56737232208252,-0.84779292345047,-3.3011879920959473,-30.3590087890625,229.8252716064453, -114.11612701416016
228,104130274,0.7366221,0.1941944,-0.642389,0.08374272,14.026578903198242,-0.7625948190689087,-3.6492257118225098,6.3218865394592285,230.22467041015625, -109.21295928955078
229,104146941,0.7584674,0.20369175,-0.61382973,0.08031223,13.905198097229004,-1.4527297019958496,-4.1468024253845215,19.911354064941406,227.48599243164062, -107.93962097167969
230,104163608,0.7774255,0.21551761,-0.5856167,0.07883581,13.678971290588379,-2.537757396697998,-5.021881580352783,44.123291015625,215.28167724609375, -105.6694107055664
231,104180275,0.7921313,0.23044525,-0.55946505,0.080137014,11.839402198791504,-2.703507423400879,-6.3814778327941895,77.05082702636719,189.9835968017578, -98.17290496826172
232,104196942,0.80276775,0.24352652,-0.53831273,0.08048812,9.27795696258545,-2.358738422393799,-8.849976539611816,66.9910888671875,147.07351684570312, -86.30823516845703
233,104213609,0.80849224,0.25131837,-0.52631193,0.078583755,7.6038947105407715,-3.5013253688812256,-11.317420959472656,32.5261344909668,78.06039428710938, -61.35784912109375
234,104230276,0.8080667,0.25471097,-0.5255687,0.07699451,7.660948276519775,-5.918385982513428,-12.047187805175781,13.657164573669434,-3.2500030994415283, -21.18660545349121
235,104246943,0.80223984,0.25578776,-0.53368556,0.07850919,8.908079147338867,-4.9107441902160645,-10.047163963317871,16.70546531677246,-64.71148681640625, 22.4249324798584
236,104263610,0.7932344,0.2550601,-0.5468624,0.08164152,9.335294723510742,-1.9062747955322266,-7.512024402618408,15.487370491027832,-99.92634582519531, 48.23574447631836
237,104280277,0.78424746,0.2524953,-0.56048715,0.08400245,12.555588722229004,7.3262529373168945,5.709360122680664,2.2144293785095215,-102.19185638427734, 51.489463806152344
238,104296944,0.7798985,0.2428299,-0.57163805,0.07760119,13.793097496032715,5.052919387817383,9.191883087158203,-76.46812438964844,-82.18553924560547, 24.77605628967285
239,104313611,0.7723283,0.23716427,-0.58447814,0.07514966,9.846004486083984,-3.027916193008423,-2.8676912784576416,-34.9468879699707,-99.68821716308594, 34.82122802734375
240,104330278,0.76071775,0.23691554,-0.5992311,0.078114145,12.109478950500488,-1.6533725261688232,-4.580483436584473,21.1873836517334,-119.84066009521484, 46.770790100097656
241,104346945,0.74971443,0.23624046,-0.6129858,0.07979524,11.99889087677002,-1.2657487392425537,0.1371036022901535,13.178638458251953,-113.69231414794922, 39.64149475097656
242,104363612,0.7391568,0.23891836,-0.62438005,0.0819455,9.983298301696777,-0.5506594181060791,-2.6845672130584717,33.016693115234375,-100.66441345214844, 23.660192489624023
243,104380279,0.72860795,0.24327904,-0.63453805,0.08548306,10.693073272705078,1.5190272331237793,-3.9674973487854004,48.169246673583984,-92.86723327636719, 21.310781478881836
244,104396946,0.7200685,0.2434765,-0.6440656,0.08602406,11.240407943725586,3.4317145347595215,-2.6784400939941406,11.188597679138184,-83.31473541259766, 22.170730590820312
245,104413613,0.7141635,0.23799194,-0.65317637,0.0817983,12.0855131149292,2.189392328262329,-1.3590352535247803,-42.26173400878906,-74.0689468383789, 21.520009994506836
246,104430280,0.70918584,0.231193,-0.6615571,0.07712049,10.506013870239258,0.731938898563385,-0.6951391696929932,-51.87404251098633,-66.24490356445312, 23.488927841186523
247,104446947,0.703714,0.22726445,-0.6690422,0.074297056,9.874781608581543,0.278324156999588,-0.6486577391624451,-28.19127655029297,-62.666221618652344, 18.27125358581543
248,104463614,0.6972048,0.22735125,-0.6757187,0.07497503,9.84736442565918,0.9270897507667542,-1.2894169092178345,9.368033409118652,-60.09128189086914, 15.94394302368164
249,104480281,0.6908333,0.22783054,-0.6819836,0.07577112,10.03708553314209,1.906168818473816,-1.2516522407531738,11.7789888381958,-57.46800994873047, 13.928435325622559
250,104496948,0.684898,0.22836713,-0.6876943,0.076419935,9.936249732971191,1.2898691892623901,-1.4436233043670654,10.951692581176758,-53.032012939453125, 11.86196517944336
251,104513615,0.6791997,0.2290882,-0.692962,0.07752586,10.461081504821777,1.8692715167999268,-1.3358044624328613,13.828167915344238,-49.18582534790039, 12.296066284179688
252,104530282,0.67419225,0.22865723,-0.6979387,0.07786169,10.241559982299805,1.807692050933838,-1.5353119373321533,3.836754560470581,-45.12712478637695, 13.358977317810059
253,104546949,0.6691636,0.22881041,-0.7026035,0.07883195,9.904786109924316,0.9481711983680725,-2.044870138168335,9.780122756958008,-43.088287353515625, 13.016631126403809
254,104563616,0.66391945,0.23002928,-0.7069107,0.08108661,9.85256576538086,1.2984753847122192,-2.065314531326294,21.407005310058594,-41.01688003540039, 13.295116424560547
255,104580283,0.6588818,0.23111695,-0.7109894,0.0833897,9.860036849975586,1.8019566535949707,-1.7809308767318726,20.836990356445312,-38.81858825683594, 13.665008544921875
256,104596950,0.65426606,0.23194085,-0.7147098,0.085611634,9.805562019348145,1.7192225456237793,-1.8718699216842651,18.786767959594727,-35.15336608886719, 13.804671287536621
257,104613617,0.6500345,0.23242263,-0.7181649,0.087601215,9.53520393371582,1.750763177871704,-1.714699625968933,15.662753105163574,-32.30638885498047, 13.834943771362305
258,104630284,0.6462595,0.2326985,-0.72128195,0.08917655,9.426816940307617,1.704131007194519,-1.8154464960098267,12.191765785217285,-29.16952896118164, 12.245923042297363
259,104646951,0.64278454,0.23321524,-0.7240194,0.09074506,9.22052001953125,1.484018087387085,-1.9235255718231201,13.004476547241211,-26.25346565246582, 10.297870635986328
260,104663618,0.6393743,0.23406865,-0.7265402,0.09247572,9.142698287963867,1.6768239736557007,-1.9252415895462036,15.355409622192383,-25.026893615722656, 9.015398979187012
261,104680285,0.6360463,0.23451115,-0.7291401,0.09383284,9.370769500732422,1.7739149332046509,-1.8809564113616943,11.526690483093262,-25.409666061401367, 9.574445724487305
262,104696952,0.632729,0.23398317,-0.7321539,0.09411023,9.262367248535156,2.1264185905456543,-1.8346378803253174,1.6125617027282715,-28.386381149291992, 10.453581809997559
263,104713619,0.6297415,0.23301643,-0.73504037,0.094047025,9.286248207092285,1.7511727809906006,-2.427837610244751,-2.4307799339294434,-26.538352966308594, 10.845849990844727
264,104730286,0.62659687,0.23227192,-0.7378835,0.09462604,9.174013137817383,0.9949280619621277,-2.4986655712127686,2.0795462131500244,-26.339702606201172, 12.600300788879395
265,104746953,0.6231375,0.23142079,-0.7409266,0.09577048,9.686604499816895,1.4770559072494507,-2.1793389320373535,4.879474639892578,-27.899646759033203, 16.140562057495117
266,104763620,0.61964196,0.22982755,-0.7442102,0.09682265,9.846291542053223,1.8288930654525757,-2.1606059074401855,1.1500985622406006,-28.85101318359375, 19.979238510131836
267,104780287,0.61584365,0.22781897,-0.7478504,0.09775065,9.682645797729492,1.672628402709961,-1.8563417196273804,-0.9926767349243164,-31.912914276123047, 22.391569137573242
268,104796954,0.61136025,0.22630475,-0.75174,0.0995587,9.55345630645752,0.9273315668106079,-2.028010368347168,6.550139427185059,-35.517662048339844, 24.469738006591797
269,104813621,0.6057606,0.22512212,-0.75621974,0.10249925,9.887514114379883,1.1579046249389648,-1.88784921169281,15.143680572509766,-42.29448699951172, 29.221588134765625
270,104830288,0.59926665,0.22356817,-0.76143336,0.10543285,9.667770385742188,1.664104700088501,-1.647081971168518,14.441878318786621,-49.80940628051758, 32.91506576538086
271,104846955,0.59169763,0.22202244,-0.7673653,0.10840016,9.255169868469238,1.507071614265442,-1.6953763961791992,15.798395156860352,-58.4081916809082, 34.92796325683594
272,104863622,0.58257526,0.22062054,-0.77422327,0.11185306,9.684043884277344,1.1667770147323608,-1.7347748279571533,20.639009475708008,-69.7861557006836, 38.744754791259766
273,104880289,0.57177395,0.2186029,-0.7822835,0.11541395,10.174976348876953,1.5874581336975098,-1.4650521278381348,20.379438400268555,-82.94815063476562, 45.59055709838867
274,104896956,0.5598017,0.21610107,-0.7910635,0.11891715,10.667186737060547,1.6432608366012573,-1.8296934366226196,19.365516662597656,-91.8281021118164, 50.00518035888672
275,104913623,0.54613674,0.21382774,-0.80052173,0.123196505,11.422345161437988,1.1557494401931763,-2.4342803955078125,26.437402725219727,-102.72237396240234, 54.16618728637695
276,104930290,0.5316302,0.21207534,-0.80971813,0.12942159,13.211321830749512,1.3305729627609253,-2.3514530658721924,40.568946838378906,-103.9888916015625, 58.949684143066406
277,104946957,0.51652,0.2091258,-0.81923425,0.13538322,15.011720657348633,1.0918488502502441,-2.1662211418151855,35.3298454284668,-107.88440704345703, 65.67388153076172
278,104963624,0.49998882,0.20485458,-0.8296037,0.14072563,17.62608528137207,-0.478351354598999,-1.2813265323638916,28.40379524230957,-118.63681030273438, 73.48739624023438
279,104980291,0.48033878,0.19828697,-0.8420057,0.14485705,19.926149368286133,-0.7353895306587219,0.5802726149559021,16.024152755737305,-142.98240661621094, 88.31050109863281
280,104996958,0.45792404,0.1900191,-0.8558996,0.14708662,20.69601058959961,0.7022207379341125,1.2739039659500122,1.6734484434127808,-164.9278106689453, 96.67133331298828
281,105013625,0.4324609,0.18011546,-0.87102634,0.1478146,20.374998092651367,2.229059934616089,-1.9210190773010254,-9.580704689025879,-187.17788696289062, 106.29517364501953
282,105030292,0.40541673,0.16955641,-0.88577795,0.1492826,19.11046600341797,8.114398956298828,-0.01568228006362915,-4.748941421508789,-194.02781677246094, 113.60651397705078
283,105046959,0.38409138,0.1572255,-0.8985265,0.14284238,13.403338432312012,5.350037574768066,2.005553960800171,-62.422061920166016,-161.09140014648438, 94.22532653808594
284,105063626,0.3676507,0.1503766,-0.9065608,0.14271563,9.692838668823242,2.397643804550171,-0.040462978184223175,-9.560568809509277,-117.07388305664062, 67.17168426513672
285,105080293,0.3582658,0.14691105,-0.9105862,0.14455341,9.394885063171387,2.494304656982422,1.5380936861038208,7.883269309997559,-64.26204681396484, 39.992835998535156
286,105096960,0.3542468,0.14885418,-0.90974253,0.15722732,9.635363578796387,2.842207908630371,4.068894863128662,88.47528839111328,-13.126633644104004, 22.595426559448242
287,105113627,0.35628432,0.15258282,-0.90625185,0.1687835,5.619418144226074,5.512711524963379,1.7498531341552734,82.49981689453125,28.09366226196289, -0.5173007249832153
288,105130294,0.36526945,0.15526275,-0.901657,0.1717166,6.752366065979004,5.595301628112793,0.801920473575592,20.2163143157959,66.26741790771484, -24.289125442504883
289,105146961,0.38100496,0.15650673,-0.89555573,0.16828762,6.578327655792236,3.798062562942505,0.5581914782524109,-28.23720359802246,106.80757141113281, -40.91462326049805
290,105163628,0.4015254,0.15885024,-0.8867808,0.1648143,5.946058750152588,1.1468592882156372,-0.3932002782821655,-27.6782283782959,141.9641571044922, -56.204345703125
291,105180295,0.4251636,0.16384318,-0.8748189,0.16456963,6.499366760253906,0.20118828117847443,-1.3444478511810303,-0.47693994641304016,170.31756591796875, -70.4657211303711
292,105196962,0.45077342,0.17109494,-0.86007327,0.16674483,6.941105842590332,0.20159780979156494,-1.9343868494033813,21.60264015197754,190.51324462890625, -82.3540267944336
293,105213629,0.4782838,0.1791386,-0.8433025,0.16731745,7.782179355621338,0.3074115216732025,-2.420963764190674,14.657622337341309,205.26673889160156, -96.5726547241211
294,105230296,0.50767386,0.18638779,-0.8249928,0.16405421,8.466743469238281,-0.2910116910934448,-3.567502021789551,-10.752148628234863,217.4463348388672, -108.64742279052734
295,105246963,0.538094,0.19297731,-0.8049806,0.15881123,9.025114059448242,-0.9174744486808777,-3.9787254333496094,-23.694982528686523,227.4737548828125, -115.17559814453125
296,105263630,0.56865776,0.200312,-0.7829272,0.15339023,9.784408569335938,-1.0345861911773682,-4.00757360458374,-19.893394470214844,234.80807495117188, -122.84623718261719
297,105280297,0.59923637,0.2082837,-0.75869864,0.14802045,9.803454399108887,-0.4767933487892151,-3.99410343170166,-14.861428260803223,242.830078125, -129.11048889160156
298,105296964,0.6301683,0.21589826,-0.7324325,0.14077824,10.654306411743164,-0.10336252301931381,-4.046968460083008,-24.542598724365234,250.79380798339844, -138.26271057128906
299,105313631,0.66127235,0.22311732,-0.70399094,0.13166068,11.737711906433105,-0.09229732304811478,-4.1158576011657715,-33.860015869140625,258.7307434082031, -147.81683349609375
300,105330298,0.692575,0.2289756,-0.6734001,0.12017746,13.055550575256348,0.26075443625450134,-3.811030149459839,-49.87030029296875,267.1163330078125, -155.4912872314453
301,105346965,0.72458893,0.22895886,-0.64151067,0.10494241,14.575495719909668,-2.335683584213257,-4.705525875091553,-95.28953552246094,275.59295654296875, -148.81637573242188
302,105363632,0.752319,0.23418114,-0.6078539,0.09843356,16.487218856811523,-5.0599260330200195,-6.959385871887207,-22.6623477935791,275.5003967285156, -128.1787109375
303,105380299,0.7743789,0.24614798,-0.57430506,0.099611156,15.735297203063965,-4.443165302276611,-8.056018829345703,53.41915512084961,259.12457275390625, -112.66059112548828
304,105396966,0.790933,0.25990635,-0.54428434,0.10309454,12.659558296203613,-2.988121509552002,-9.119763374328613,79.86710357666016,221.62249755859375, -97.54168701171875
305,105413633,0.8032752,0.26852345,-0.5214676,0.10351889,10.765291213989258,-2.36348295211792,-11.994855880737305,43.06025695800781,165.0340118408203, -79.00462341308594
306,105430300,0.81086856,0.26860258,-0.510537,0.09847232,5.886037349700928,-3.852874994277954,-15.215818405151367,-24.11815071105957,78.20826721191406, -53.521766662597656
307,105446967,0.81069577,0.26639935,-0.51312226,0.09224752,5.418783664703369,-6.284402847290039,-15.621062278747559,-37.06737518310547,-25.38842010498047, -22.35329818725586
308,105463634,0.80469185,0.26262844,-0.5250337,0.08852664,8.922344207763672,-6.947178363800049,-12.357855796813965,-32.367576599121094,-92.29108428955078, 17.831090927124023
309,105480301,0.7942374,0.26147228,-0.5408796,0.0909319,11.38563346862793,-2.490036964416504,-2.225656270980835,9.571019172668457,-120.63772583007812, 51.98579788208008
310,105496968,0.78639805,0.26025417,-0.552853,0.09055048,19.44694709777832,12.067302703857422,16.300487518310547,-3.2577145099639893,-94.63371276855469, 28.452007293701172
311,105513635,0.7794681,0.25189447,-0.56735885,0.084158026,11.506345748901367,-0.974906861782074,-1.6548974514007568,-66.91558074951172,-110.93783569335938, 27.408615112304688
312,105530302,0.76633996,0.24788022,-0.5865285,0.08522272,12.030780792236328,-2.225370168685913,-9.31754207611084,-6.635354995727539,-149.73165893554688, 62.04350662231445
313,105546969,0.75514656,0.24052478,-0.604007,0.08412557,12.054217338562012,-0.25983455777168274,1.002462387084961,-34.2266845703125,-134.35121154785156, 60.270423889160156
314,105563636,0.74469507,0.23983023,-0.61718106,0.08365683,8.666070938110352,-3.9560563564300537,-5.208246231079102,4.611724853515625,-111.64720916748047, 28.328582763671875
315,105580303,0.7321572,0.24826491,-0.6278294,0.0902267,11.927560806274414,-0.4231867790222168,-5.306381702423096,86.23472595214844,-101.15811157226562, 22.587013244628906
316,105596970,0.72137743,0.25325665,-0.637342,0.096286684,12.268518447875977,2.5847721099853516,-2.3751895427703857,64.33535766601562,-86.57762145996094, 31.77448844909668
317,105613637,0.7130442,0.25358713,-0.64629453,0.09780053,11.822150230407715,1.060944676399231,-1.9011112451553345,17.142194747924805,-77.97624206542969, 27.013639450073242
318,105630304,0.7060309,0.2522259,-0.65452486,0.09746735,12.023643493652344,1.384818434715271,-1.0719026327133179,-2.2080886363983154,-70.90515899658203, 23.28339195251465
319,105646971,0.70073366,0.2479726,-0.66227597,0.09419496,9.978385925292969,1.4641035795211792,-1.0677915811538696,-32.13138198852539,-64.01859283447266, 20.05324363708496
320,105663638,0.6957722,0.24546225,-0.6687021,0.0921238,9.892080307006836,0.45623883605003357,-1.9534530639648438,-17.980140686035156,-55.19003677368164, 15.437016487121582
321,105680305,0.69040173,0.24659325,-0.6736488,0.09345907,10.91203784942627,1.0393428802490234,-2.118922472000122,16.72476577758789,-46.54914093017578, 12.749113082885742
322,105696972,0.68528795,0.24837382,-0.6777854,0.096425,10.22075366973877,1.9345215559005737,-1.7794928550720215,27.44411849975586,-39.16920852661133, 15.93808650970459
323,105713639,0.68084526,0.24972504,-0.6813236,0.09942518,9.832146644592285,2.102057695388794,-1.7042962312698364,24.831512451171875,-32.88291931152344, 16.63694190979004
324,105730306,0.6769386,0.25013188,-0.68470734,0.10180527,9.749762535095215,2.145684242248535,-1.5843573808670044,16.691572189331055,-30.073514938354492, 17.532926559448242
325,105746973,0.673541,0.24888267,-0.68838316,0.102610245,9.574065208435059,2.1695594787597656,-1.3012080192565918,0.4905301630496979,-30.59095573425293, 18.153419494628906
326,105763640,0.6703381,0.24648246,-0.69243073,0.10214167,9.619002342224121,1.9790109395980835,-1.2601217031478882,-11.460618019104004,-32.76433563232422, 18.21409034729004
327,105780307,0.66715103,0.24366327,-0.6966534,0.101054505,9.219512939453125,1.9857529401779175,-1.2321902513504028,-16.483667373657227,-34.25657272338867, 17.654874801635742
328,105796974,0.66373384,0.24054219,-0.7011882,0.09966064,9.4710111618042,0.4881817698478699,-1.5362906455993652,-19.166841506958008,-37.10017776489258, 18.389604568481445
329,105813641,0.659484,0.23916395,-0.70554566,0.10043375,9.91359806060791,0.7093634605407715,-0.9775407314300537,0.731356143951416,-37.91972732543945, 20.150836944580078
330,105830308,0.6550706,0.23912033,-0.7093897,0.10232422,9.464544296264648,1.2586932182312012,-1.3491731882095337,12.829063415527344,-35.48123550415039, 18.00788116455078
331,105846975,0.6509299,0.23862927,-0.7131639,0.103652656,9.19228458404541,1.8816869258880615,-1.525865912437439,7.67352294921875,-34.45635223388672, 17.355546951293945
332,105863642,0.6471799,0.23713154,-0.7170271,0.10391844,9.364590644836426,1.6266881227493286,-1.3335602283477783,-2.742058277130127,-33.9787483215332, 17.416664123535156
333,105880309,0.6434105,0.23536249,-0.720951,0.10419742,9.890971183776855,1.4358766078948975,-1.5324338674545288,-3.8925111293792725,-34.14686584472656, 18.939226150512695
334,105896976,0.6396527,0.23323986,-0.724946,0.104388654,9.52513313293457,1.7923555374145508,-1.8842787742614746,-5.956460475921631,-34.31224060058594, 20.422706604003906
335,105913643,0.6359379,0.23090859,-0.7289119,0.10465077,9.357121467590332,1.241092562675476,-2.062309980392456,-6.562971115112305,-33.72416687011719, 21.714218139648438
336,105930310,0.6316888,0.22905873,-0.7329875,0.10597582,9.756706237792969,1.1111382246017456,-1.7630822658538818,1.6432512998580933,-35.55912780761719, 24.52015495300293
337,105946977,0.6269837,0.22723232,-0.7373,0.10791487,9.890104293823242,1.5754495859146118,-1.5842946767807007,5.389819622039795,-37.95743179321289, 27.784526824951172
338,105963644,0.6220128,0.22478959,-0.7420021,0.109556004,9.850187301635742,1.578498363494873,-1.6547677516937256,1.3563264608383179,-41.018863677978516, 30.446203231811523
339,105980311,0.6162021,0.22255585,-0.7471509,0.11193541,9.53850269317627,1.0033293962478638,-1.8497971296310425,6.984569072723389,-46.25489807128906, 33.87611770629883
340,105996978,0.60902256,0.22073892,-0.75302386,0.11541744,9.409366607666016,1.2988414764404297,-1.470964789390564,15.957640647888184,-55.01115417480469, 38.57832336425781
341,106013645,0.60061264,0.2185972,-0.7598013,0.11908713,9.828043937683105,1.6574301719665527,-1.183078408241272,16.725271224975586,-64.65311431884766, 43.408294677734375
342,106030312,0.59072024,0.21588959,-0.7677059,0.122755595,10.114899635314941,1.4968552589416504,-1.3020048141479492,15.69394302368164,-76.6202392578125, 49.28459548950195
343,106046979,0.5790462,0.21323757,-0.77658355,0.1270953,10.195571899414062,1.8140532970428467,-1.7104586362838745,21.29302978515625,-89.05753326416016, 54.6811637878418
344,106063646,0.5657321,0.21109504,-0.7859652,0.13283408,10.800053596496582,1.721939206123352,-2.3069074153900146,32.76365280151367,-98.241455078125, 59.72111129760742
345,106080313,0.5508825,0.2100893,-0.79530346,0.14100878,13.071715354919434,2.983813762664795,-2.6130800247192383,52.624603271484375,-103.89952850341797, 64.4100112915039
346,106096980,0.5365051,0.20819034,-0.8041563,0.1488352,15.68118953704834,2.3585705757141113,-1.9399077892303467,47.136749267578125,-99.14498138427734, 66.84259796142578
347,106113647,0.5211229,0.20638575,-0.8130352,0.15751159,16.956987380981445,-0.32929274439811707,-2.0150821208953857,53.60617446899414,-103.72159576416016, 70.54525756835938
348,106130314,0.5016944,0.2041862,-0.82360566,0.16818066,18.79033660888672,0.7251001596450806,0.7746139764785767,67.24335479736328,-129.19979858398438, 86.68331146240234
349,106146981,0.47991815,0.1982315,-0.8366777,0.17422187,19.19917106628418,-0.14825208485126495,1.260136365890503,28.48670196533203,-153.3605194091797, 98.23273468017578
350,106163648,0.4547859,0.19172744,-0.8498474,0.18485151,19.468463897705078,2.880751609802246,0.16106992959976196,57.527679443359375,-166.16769409179688, 120.71170806884766
351,106180315,0.429172,0.18227635,-0.8640177,0.18989538,16.91263198852539,6.930824279785156,-1.0932883024215698,15.039937019348145,-175.80691528320312, 122.4410171508789
352,106196982,0.4075254,0.17088841,-0.8776426,0.18564452,13.801851272583008,4.982507228851318,-1.3125485181808472,-50.12936782836914,-159.8033905029297, 100.71668243408203
353,106213649,0.39041275,0.16333129,-0.88738275,0.18290107,10.608492851257324,0.5210145115852356,-1.5694539546966553,-30.64154624938965,-124.71482849121094, 71.50807189941406
354,106230316,0.3764183,0.16235782,-0.89197123,0.19062267,10.9935941696167,4.515768051147461,1.4864275455474854,53.86170959472656,-88.41215515136719, 49.7337646484375
355,106246983,0.3693705,0.1586497,-0.8960382,0.18844515,9.544342041015625,7.91378116607666,2.8702192306518555,-20.97905158996582,-51.97409439086914, 31.235950469970703
356,106263650,0.3696726,0.15262759,-0.8996427,0.17518625,6.188117980957031,5.626278877258301,2.1231634616851807,-102.51266479492188,-14.664366722106934, 7.36886739730835
357,106280317,0.37628138,0.1478918,-0.9005243,0.15998933,6.424500942230225,2.769256353378296,2.078897714614868,-114.55065155029297,27.651470184326172, -15.949975967407227
358,106296984,0.38822958,0.14552072,-0.89777154,0.14868778,6.780620098114014,0.507603645324707,1.1934750080108643,-85.74039459228516,71.44316864013672, -30.081546783447266
359,106313651,0.40433463,0.14736325,-0.8910424,0.14436412,6.408570289611816,-0.37275683879852295,0.4219357669353485,-31.520214080810547,110.36897277832031, -45.6994514465332
360,106330318,0.4238604,0.15245774,-0.88090223,0.14529422,6.446346282958984,-0.5391262769699097,-0.19115953147411346,9.618755340576172,142.8984375, -57.874542236328125
361,106346985,0.44625768,0.15975654,-0.86786103,0.14882697,6.963780403137207,-0.43931901454925537,-0.926007866859436,31.687973022460938,169.27610778808594, -69.55398559570312
362,106363652,0.47115013,0.16801031,-0.85244405,0.15208276,7.7066168785095215,0.33454248309135437,-1.2575745582580566,32.64909362792969,190.18301391601562, -81.26602935791016
363,106380319,0.49875525,0.17529397,-0.8351835,0.15160386,8.850873947143555,0.8946146368980408,-1.4887878894805908,6.405601978302002,208.76527404785156, -92.64299774169922
364,106396986,0.5285241,0.18158776,-0.8160038,0.1477362,9.564922332763672,0.4500780999660492,-2.4766104221343994,-17.061521530151367,224.72898864746094, -103.14669036865234
365,106413653,0.559184,0.18779321,-0.7949059,0.14202695,10.202098846435547,0.5199753046035767,-3.4106850624084473,-26.884000778198242,234.5052032470703, -112.64887237548828
366,106430320,0.5905091,0.19376868,-0.7719659,0.1334973,11.148016929626465,0.8344553709030151,-3.828962564468384,-42.24985885620117,241.8318328857422, -125.27385711669922
367,106446987,0.6224769,0.19799404,-0.7472847,0.12201121,11.48537826538086,0.3393401503562927,-3.8393054008483887,-64.31471252441406,250.01087951660156, -130.9093017578125
368,106463654,0.65444386,0.20129378,-0.7206357,0.10894335,12.475125312805176,-0.4940468966960907,-4.001106262207031,-74.75995635986328,257.086669921875, -135.62149047851562
369,106480321,0.6855675,0.2055592,-0.6917167,0.096285045,13.517480850219727,-1.1003735065460205,-4.22091817855835,-65.52330017089844,263.0033874511719, -141.10227966308594
370,106496988,0.7161709,0.20863846,-0.6607336,0.08366965,14.54122543334961,-2.6260783672332764,-4.395317554473877,-68.81609344482422,271.153076171875, -137.86727905273438
371,106513655,0.74338543,0.21718842,-0.62765837,0.07907091,15.422943115234375,-3.613821268081665,-5.898701190948486,0.6213388442993164,274.4591979980469, -124.33845520019531
372,106530322,0.7670618,0.22863993,-0.59419745,0.07918028,15.80936336517334,-2.8514304161071777,-7.1122260093688965,41.26795196533203,266.68377685546875, -111.49999237060547
373,106546989,0.78701365,0.23870507,-0.5632382,0.079952136,14.692035675048828,-2.9854085445404053,-7.710940361022949,41.14432907104492,240.14007568359375, -96.42745971679688
374,106563656,0.80271685,0.24621859,-0.53724355,0.07994906,11.984437942504883,-2.4994912147521973,-9.791696548461914,28.566650390625,197.02842712402344, -80.30424499511719
375,106580323,0.81420475,0.24810213,-0.5194483,0.07543057,7.645864963531494,-2.647414445877075,-14.107534408569336,-16.579084396362305,131.74566650390625, -68.27522277832031
376,106596990,0.8192116,0.24505079,-0.51411206,0.06731664,5.127477645874023,-4.953601360321045,-16.113283157348633,-52.48274230957031,35.40444564819336, -46.199581146240234
377,106613657,0.8174097,0.23976928,-0.5202571,0.06070171,6.629011631011963,-6.513031482696533,-14.676033973693848,-53.621299743652344,-49.6319465637207, -7.4241228103637695
378,106630324,0.81097096,0.23338094,-0.5333789,0.05802177,8.783833503723145,-5.928863525390625,-11.459724426269531,-41.05912780761719,-98.35027313232422, 32.029518127441406
379,106646991,0.80150676,0.23127599,-0.5481446,0.060299408,9.625253677368164,-0.07029038667678833,-5.3518781661987305,5.189821243286133,-112.25767517089844, 47.74905014038086
380,106663658,0.7952178,0.23104902,-0.5575688,0.057985585,13.704190254211426,16.561811447143555,14.929084777832031,-4.615484714508057,-78.87785339355469, 5.540987968444824
381,106680325,0.79486626,0.21174198,-0.56723404,0.039980467,14.932729721069336,1.3072147369384766,3.561446189880371,-178.63970947265625,-74.86984252929688, -8.966567993164062
382,106696992,0.78537935,0.1993353,-0.5849951,0.035008077,15.924971580505371,-6.656564235687256,-11.195878982543945,-79.00621032714844,-137.6692352294922, 49.648685455322266
383,106713659,0.77279055,0.19254375,-0.60370743,0.03548387,13.562544822692871,-1.4725826978683472,1.0135843753814697,-22.75707244873047,-149.03868103027344, 58.4549674987793
384,106730326,0.76172024,0.1901222,-0.61838305,0.035192795,8.204007148742676,-4.874080657958984,-2.2980847358703613,-3.7395129203796387,-123.35970306396484, 30.49249267578125
385,106746993,0.7486503,0.20114917,-0.63018876,0.04386494,10.362005233764648,-0.6885949969291687,-6.173653602600098,108.11567687988281,-108.35875701904297, 16.9273681640625
386,106763660,0.73665774,0.21058042,-0.6405315,0.05206606,11.384014129638672,4.50308895111084,-3.3503496646881104,96.79188537597656,-96.28511810302734, 19.028606414794922
387,106780327,0.72876775,0.20846574,-0.6501907,0.05188236,11.683131217956543,2.9429945945739746,-1.1652683019638062,-4.327174663543701,-82.73863983154297, 24.96715545654297
388,106796994,0.7220195,0.20501807,-0.65892804,0.049694214,12.64012336730957,1.0966190099716187,-1.6008557081222534,-21.279325485229492,-75.4089584350586, 19.16900062561035
389,106813661,0.7164049,0.19898829,-0.6671739,0.04524173,10.282767295837402,2.3178303241729736,-0.8881642818450928,-45.790679931640625,-70.1351089477539, 18.547203063964844
390,106830328,0.7114986,0.19261546,-0.6745893,0.039980166,9.293479919433594,0.08165552467107773,-1.0067204236984253,-51.90433883666992,-63.7965202331543, 14.799592971801758
391,106846995,0.7060962,0.19129369,-0.680661,0.03918847,11.399693489074707,0.10388343036174774,-1.631173014640808,-5.437931537628174,-54.995643615722656, 11.591931343078613
392,106863662,0.70076185,0.19228442,-0.6857961,0.040539645,10.472073554992676,1.7477402687072754,-2.0126967430114746,15.976717948913574,-47.934844970703125, 9.907526969909668
393,106880329,0.69623375,0.19328073,-0.69001466,0.042202253,9.665746688842773,1.5751227140426636,-1.6289788484573364,16.658761978149414,-39.30725860595703, 9.945780754089355
394,106896996,0.69183517,0.19460897,-0.69393814,0.04406239,9.774531364440918,2.175211191177368,-1.1150763034820557,19.09711265563965,-37.11655807495117, 8.886478424072266
395,106913663,0.68780506,0.19333316,-0.6983273,0.043421853,9.466480255126953,2.983825445175171,-0.5450823903083801,-5.854445457458496,-40.14018630981445, 9.935680389404297
396,106930330,0.6840589,0.18904126,-0.70337725,0.039840218,9.655950546264648,2.1858246326446533,-0.8720632195472717,-34.81149673461914,-44.92226791381836, 11.324563980102539
397,106946997,0.6799051,0.18523054,-0.70855504,0.03699417,9.520410537719727,0.9269142150878906,-1.1024326086044312,-28.494892120361328,-46.67960739135742, 12.751070022583008
398,106963664,0.67517537,0.18413709,-0.7133561,0.036812246,9.279806137084961,0.2690129578113556,-1.4671294689178467,-1.9845385551452637,-45.02999496459961, 11.634037017822266
399,106980331,0.6699588,0.18566455,-0.71773607,0.039230965,9.193887710571289,0.8906238079071045,-1.2992976903915405,23.65900993347168,-42.8416748046875, 10.430703163146973
400,106996998,0.6649575,0.18693222,-0.72192675,0.04134779,9.486300468444824,2.354248046875,-1.0855635404586792,20.747888565063477,-41.23191452026367, 10.01566219329834
401,107013665,0.66048485,0.18599829,-0.72626334,0.041307583,9.671326637268066,2.3887341022491455,-1.3524725437164307,-0.7427346110343933,-41.43494415283203, 11.129500389099121
402,107030332,0.6561092,0.18441395,-0.730646,0.04085052,9.548306465148926,1.3619122505187988,-1.7870606184005737,-5.913116455078125,-41.517921447753906, 12.528928756713867
403,107046999,0.6514636,0.18392213,-0.73486334,0.041757155,9.469944953918457,1.0722852945327759,-2.0554006099700928,6.254617691040039,-40.7116813659668, 13.060007095336914
404,107063666,0.6465613,0.18416086,-0.73900574,0.043745857,9.638384819030762,1.5382691621780396,-2.002889394760132,15.33958911895752,-40.517974853515625, 14.191095352172852
405,107080333,0.6415395,0.18422104,-0.74322534,0.045888573,9.72530746459961,1.740633249282837,-1.9143732786178589,15.457286834716797,-41.22682571411133, 15.91788387298584
406,107097000,0.6363963,0.18374714,-0.74762243,0.047933433,9.755061149597168,1.8873987197875977,-2.0183255672454834,12.700831413269043,-42.593074798583984, 18.482418060302734
407,107113667,0.63093185,0.18284841,-0.75230604,0.05027096,9.895744323730469,1.617317795753479,-2.117603063583374,12.660507202148438,-44.99574661254883, 22.420639038085938
408,107130334,0.62484264,0.18193038,-0.75735384,0.053743817,10.170797348022461,1.5883042812347412,-2.073298931121826,19.11164665222168,-48.38154220581055, 28.122215270996094
409,107147001,0.6180327,0.18103135,-0.7628143,0.05811751,9.830945014953613,1.9286707639694214,-1.8891702890396118,24.63691520690918,-52.799072265625, 32.678157806396484
410,107163668,0.610443,0.18010156,-0.7687457,0.062872075,9.579389572143555,1.6303263902664185,-1.957132339477539,27.291950225830078,-58.41714096069336, 35.36286926269531
411,107180335,0.6015367,0.1792728,-0.7754624,0.068360314,9.70586109161377,1.1637413501739502,-1.9295637607574463,32.88964080810547,-67.82125091552734, 39.454830169677734
412,107197002,0.5910089,0.17766874,-0.7833639,0.07405124,10.216909408569336,1.1689950227737427,-1.6545844078063965,32.20962905883789,-80.77070617675781, 46.65085983276367
413,107213669,0.57886636,0.17538764,-0.79234713,0.07961887,10.171265602111816,2.4102730751037598,-1.658511996269226,30.221023559570312,-93.69467163085938, 51.943687438964844
414,107230336,0.56529737,0.17271084,-0.80212945,0.08484314,11.36806583404541,2.7349610328674316,-2.440765619277954,28.068641662597656,-104.87165832519531, 54.49769592285156
415,107247003,0.55027664,0.17035218,-0.81221753,0.09207931,13.275068283081055,2.298203706741333,-3.4117722511291504,41.95918655395508,-111.8902587890625, 61.79753112792969
416,107263670,0.5336821,0.16770397,-0.82282174,0.100118026,14.679970741271973,1.8298921585083008,-2.675088405609131,46.874542236328125,-121.53865814208984, 68.07189178466797
417,107280337,0.5163237,0.1660338,-0.8331378,0.10827861,17.3662166595459,-0.04480218142271042,-1.6333447694778442,52.24293899536133,-125.38678741455078, 63.19695281982422
418,107297004,0.4988902,0.16317022,-0.84329844,0.11546469,19.794496536254883,0.3077584207057953,0.8757495284080505,42.62493133544922,-125.5739974975586, 66.45448303222656
419,107313671,0.47952884,0.15843108,-0.85466766,0.12039538,19.957401275634766,1.5605436563491821,2.329993486404419,24.318187713623047,-142.07969665527344, 72.49665832519531
420,107330338,0.45773354,0.15237306,-0.8672752,0.12286773,19.201570510864258,0.46205398440361023,0.7549643516540527,7.15513277053833,-162.22019958496094, 75.54541778564453
421,107347005,0.43218896,0.14726499,-0.879896,0.13156243,18.02745246887207,3.006103277206421,-2.4811363220214844,51.16796112060547,-179.06130981445312, 92.68223571777344
422,107363672,0.40944034,0.13902362,-0.8917471,0.1334847,14.241408348083496,7.884966850280762,1.7835900783538818,-1.2359511852264404,-163.98944091796875, 88.2649154663086
423,107380339,0.392632,0.13181897,-0.9005939,0.13188908,10.301621437072754,1.908112645149231,-0.9056016802787781,-22.750545501708984,-123.55685424804688, 63.78509521484375
424,107397006,0.37961715,0.1310309,-0.9049585,0.14061274,9.883663177490234,3.450340986251831,1.1301853656768799,59.11220169067383,-84.51056671142578, 44.44866943359375
425,107413673,0.37354186,0.1324431,-0.9061305,0.14782734,9.769474983215332,4.302582740783691,3.3096189498901367,52.32655334472656,-36.58439636230469, 17.2999210357666
426,107430340,0.37391043,0.13552725,-0.9041973,0.15572654,7.223091125488281,4.765770435333252,4.042083740234375,58.206092834472656,10.338188171386719, -0.6548991799354553
427,107447007,0.38131514,0.13906252,-0.90002054,0.15881969,5.607176780700684,4.33226203918457,3.2681000232696533,25.368703842163086,54.781837463378906, -25.359336853027344
428,107463674,0.3951949,0.14222273,-0.8937363,0.15757309,6.944188594818115,2.317563772201538,1.5004253387451172,-6.327932357788086,96.55577087402344, -43.436214447021484
429,107480341,0.41404018,0.1469535,-0.8846143,0.15631092,6.3165788650512695,2.207233428955078,0.7207292318344116,-3.92081880569458,132.99203491210938, -61.24011993408203
430,107497008,0.43704706,0.15246326,-0.873026,0.15352766,6.5424299240112305,1.1155638694763184,-0.14050325751304626,-12.494147300720215,162.89950561523438, -77.23217010498047
431,107513675,0.46285835,0.15911396,-0.85877025,0.15152167,7.320924282073975,0.05227512866258621,-1.1729055643081665,-4.516404151916504,187.3205108642578, -87.4730453491211
432,107530342,0.49069318,0.16684946,-0.84210163,0.14915222,7.973575592041016,0.5708258152008057,-1.8480210304260254,-2.9097793102264404,205.3936767578125, -99.76577758789062
433,107547009,0.52065176,0.17377752,-0.8235516,0.1431297,8.81280517578125,0.8272569179534912,-2.8064136505126953,-27.292072296142578,220.65768432617188, -111.73345947265625
434,107563676,0.55223674,0.17912292,-0.8031883,0.13356017,9.683691024780273,0.28610125184059143,-3.4581825733184814,-53.2017822265625,233.67227172851562, -119.22449493408203
435,107580343,0.58438617,0.18404995,-0.7807097,0.12292672,10.694539070129395,-0.807675838470459,-3.8629841804504395,-59.42070770263672,243.89813232421875, -124.07996368408203
436,107597010,0.61618847,0.19053142,-0.75561047,0.114292234,11.288104057312012,-1.6699886322021484,-4.045140266418457,-39.7910041809082,253.79641723632812, -127.43681335449219
437,107613677,0.6472834,0.1992031,-0.7278396,0.10766583,11.610869407653809,-1.1092156171798706,-4.06202507019043,-17.056198120117188,262.38299560546875, -133.28782653808594
438,107630344,0.67795724,0.20900185,-0.69752234,0.100773565,12.916788101196289,-0.8603854179382324,-4.240819454193115,-10.91288948059082,270.46246337890625, -143.32054138183594
439,107647011,0.70827544,0.21794257,-0.66510725,0.092083074,14.18802261352539,-1.5229746103286743,-4.177208423614502,-21.580703735351562,276.6138000488281, -150.39561462402344
440,107663678,0.7367132,0.22644977,-0.63149786,0.084762424,14.885821342468262,-3.764172315597534,-5.879663944244385,-13.857291221618652,276.2308654785156, -142.395751953125
441,107680345,0.76112366,0.2384368,-0.59746224,0.082929894,15.556925773620605,-2.756429672241211,-7.040106773376465,34.121665954589844,267.53790283203125, -128.1159210205078
442,107697012,0.7821501,0.24872816,-0.5655128,0.08106093,15.377086639404297,-2.126453161239624,-7.472232341766357,29.437896728515625,243.77212524414062, -116.07891845703125
443,107713679,0.7989082,0.25579074,-0.5386165,0.078798145,13.16150951385498,-3.041163921356201,-9.36531925201416,14.999855041503906,201.2867889404297, -94.71099090576172
444,107730346,0.811379,0.25752243,-0.519451,0.07427763,9.584369659423828,-2.8851773738861084,-13.140769004821777,-19.326335906982422,142.0596923828125, -71.56192016601562
445,107747013,0.8183887,0.253013,-0.5117753,0.06565589,5.507160663604736,-3.3214502334594727,-15.51279067993164,-65.04576873779297,54.63958740234375, -49.120723724365234
446,107763680,0.81834275,0.2454103,-0.5165809,0.056864034,6.453826904296875,-6.016963958740234,-15.447222709655762,-76.48504638671875,-39.035499572753906, -14.380864143371582
447,107780347,0.81272686,0.23773524,-0.52936435,0.05225484,8.496729850769043,-6.813490867614746,-12.132190704345703,-55.81875228881836,-96.32957458496094, 24.92546844482422
448,107797014,0.8030167,0.23424916,-0.54536337,0.053575885,9.646486282348633,-4.479425430297852,-6.284936428070068,-5.325507640838623,-120.75811767578125, 49.39525604248047
449,107813681,0.7937561,0.23749718,-0.5570605,0.05683504,14.400294303894043,9.048112869262695,12.500900268554688,39.964962005615234,-94.52014923095703, 27.620697021484375
450,107830348,0.7894287,0.23240799,-0.5659399,0.05000944,13.67464542388916,4.902987480163574,6.909461498260498,-51.09920883178711,-73.59590911865234, -1.937911868095398
451,107847015,0.77910626,0.22671622,-0.58253723,0.047367044,13.325871467590332,-3.3423352241516113,-12.188315391540527,-31.161956787109375,-131.97679138183594, 37.528724670410156
452,107863682,0.7670822,0.21907689,-0.6011723,0.04671436,16.24460792541504,-0.17025141417980194,-0.4832673668861389,-31.699352264404297,-145.6948699951172, 59.60228729248047
453,107880349,0.7570374,0.21170616,-0.6166007,0.04334064,8.881914138793945,-3.6397957801818848,-0.9765105247497559,-43.49335479736328,-124.7024154663086, 38.604270935058594
454,107897016,0.74465585,0.21800034,-0.6289797,0.048460484,9.175210952758789,-1.3349839448928833,-6.007156848907471,67.94727325439453,-110.39994812011719, 21.033639907836914
455,107913683,0.7331233,0.22297922,-0.64023465,0.053946055,12.409771919250488,4.460132122039795,-4.030026912689209,61.85285568237305,-99.8669204711914, 26.537437438964844
456,107930350,0.72448015,0.22079854,-0.65070784,0.05436902,10.258432388305664,1.954662561416626,-2.1516759395599365,-0.7015020847320557,-88.22034454345703, 30.277822494506836
457,107947017,0.7163729,0.218226,-0.6604489,0.054723397,12.015735626220703,0.6673962473869324,-1.636300802230835,-3.5208935737609863,-82.07854461669922, 30.37244415283203
458,107963684,0.70890564,0.21483393,-0.6696904,0.053047046,10.891844749450684,2.1838858127593994,-1.330431580543518,-17.5671329498291,-79.40699768066406, 23.07020378112793
459,107980351,0.7028944,0.20873931,-0.67823005,0.048699133,9.829143524169922,2.1290481090545654,-1.4397976398468018,-44.95146179199219,-72.20608520507812, 20.938135147094727
460,107997018,0.69750917,0.20432994,-0.6852926,0.04587218,10.546290397644043,0.2893065810203552,-2.3877007961273193,-30.129648208618164,-60.493553161621094, 18.121253967285156
461,108013685,0.6919685,0.20349671,-0.69108063,0.046651695,10.895084381103516,0.5518675446510315,-2.0130162239074707,4.617473125457764,-51.12910842895508, 16.79636001586914
462,108030352,0.6870282,0.20385651,-0.6957621,0.048476417,10.164127349853516,0.8621253967285156,-2.0897326469421387,14.763443946838379,-41.904090881347656, 14.323685646057129
463,108047019,0.6825624,0.20478553,-0.6997499,0.050215863,9.929521560668945,1.161033034324646,-1.61287260055542,16.59827423095703,-36.64069366455078, 10.03819465637207
464,108063686,0.6786759,0.2050335,-0.70338863,0.05103839,9.876974105834961,1.865748405456543,-1.4380724430084229,8.286365509033203,-33.25820541381836, 8.299838066101074
465,108080353,0.67547655,0.20354293,-0.7069675,0.04998959,9.798596382141113,2.015009880065918,-1.18048095703125,-9.830029487609863,-31.67144012451172, 7.650116920471191
466,108097020,0.67266047,0.20103952,-0.71051186,0.04779463,9.801304817199707,1.3459275960922241,-1.2838391065597534,-20.635000228881836,-30.89717674255371, 7.081991672515869
467,108113687,0.6698006,0.1995348,-0.71372175,0.046415783,9.363173484802246,0.7982460856437683,-1.648229956626892,-11.865726470947266,-28.755325317382812, 5.528424263000488
468,108130354,0.6665717,0.20005003,-0.7165612,0.046927705,9.026872634887695,0.7703810930252075,-1.7382822036743164,7.3303680419921875,-26.899349212646484, 3.9156997203826904
469,108147021,0.6628972,0.20202963,-0.7192591,0.049172264,9.308631896972656,1.4352127313613892,-1.4768943786621094,23.226898193359375,-26.528244018554688, 4.565426349639893
470,108163688,0.65907,0.2034712,-0.7222178,0.05126373,9.578265190124512,2.3088772296905518,-1.2224371433258057,20.135496139526367,-28.50438117980957, 6.927098751068115
471,108180355,0.6553244,0.20337091,-0.7255782,0.052217346,9.537652015686035,2.065708875656128,-1.4638367891311646,7.240732192993164,-30.976232528686523, 9.967073440551758
472,108197022,0.6512275,0.20293273,-0.729308,0.05320912,9.378716468811035,1.495166301727295,-1.5670362710952759,6.2660040855407715,-34.221126556396484, 12.4732084274292
473,108213689,0.6465236,0.20291418,-0.73335844,0.054941915,9.312427520751953,1.5380102396011353,-1.4901736974716187,12.58644962310791,-37.8213996887207, 14.35132884979248
474,108230356,0.6411099,0.20331609,-0.73778,0.057633463,9.76622486114502,1.594892144203186,-1.565801739692688,20.138587951660156,-41.88481903076172, 17.276126861572266
475,108247023,0.6350373,0.20296867,-0.7429072,0.0601683,9.678566932678223,2.6314785480499268,-1.2450616359710693,16.683456420898438,-48.282527923583984, 21.63600730895996
476,108263690,0.62886274,0.20154168,-0.7483876,0.061877653,9.517448425292969,2.283897638320923,-2.0341930389404297,7.760756492614746,-51.09012222290039, 24.115026473999023
477,108280357,0.6222889,0.20047025,-0.7539391,0.06437629,9.638141632080078,1.040095329284668,-2.3138320446014404,13.891819953918457,-52.54065704345703, 25.999496459960938
478,108297024,0.61497134,0.20053947,-0.7595532,0.068361945,9.604944229125977,0.7657159566879272,-2.4718856811523438,27.484355926513672,-55.155433654785156, 26.871383666992188
479,108313691,0.6071428,0.20082487,-0.76534534,0.072757095,9.545557022094727,1.3466112613677979,-2.4949350357055664,31.163578033447266,-58.15632247924805, 27.962600708007812
480,108330358,0.59907085,0.20023417,-0.7715128,0.076081656,9.787057876586914,1.5667178630828857,-2.4669272899627686,22.031118392944336,-62.092281341552734, 28.76556396484375
481,108347025,0.59040034,0.19942541,-0.7780712,0.07913385,9.800633430480957,0.5575439929962158,-2.611783266067505,20.32088279724121,-67.19538879394531, 29.684295654296875
482,108363692,0.5808378,0.19841373,-0.7850965,0.08296369,10.102557182312012,1.008728265762329,-2.846604108810425,24.634700775146484,-72.74490356445312, 35.06789016723633
483,108380359,0.5705159,0.196274,-0.79279304,0.08641501,10.409622192382812,1.9717249870300293,-2.8788673877716064,18.75246238708496,-79.45816802978516, 41.02300262451172
484,108397026,0.5591912,0.19419724,-0.800894,0.09034169,10.652904510498047,1.8651411533355713,-2.796945810317993,22.724313735961914,-85.97384643554688, 43.736595153808594
485,108413693,0.5466744,0.19291857,-0.8090934,0.09642451,11.974268913269043,1.6248509883880615,-3.145784378051758,39.2192268371582,-90.61018371582031, 48.55098342895508
486,108430360,0.5330956,0.19091037,-0.817659,0.10390424,13.865141868591309,2.5653257369995117,-2.2834484577178955,45.4366340637207,-95.64315795898438, 59.090782165527344
487,108447027,0.5200866,0.18675004,-0.8263644,0.10842663,16.106746673583984,1.2695807218551636,-1.1867843866348267,20.106647491455078,-95.4139633178711, 60.18928909301758
488,108463694,0.5059114,0.18163124,-0.83569103,0.11262424,18.77211570739746,-0.2557193338871002,-0.013346165418624878,15.89067268371582,-104.11941528320312, 66.1883316040039
489,108480361,0.48780817,0.17508723,-0.8472112,0.116709664,19.636234283447266,0.7105088233947754,0.928512692451477,13.502569198608398,-133.5580596923828, 79.79988861083984
490,108497028,0.4667143,0.16701342,-0.8604724,0.11777769,19.74091911315918,2.135514259338379,2.037712812423706,-6.993524551391602,-159.4478759765625, 83.14447021484375
491,108513695,0.44098437,0.15909109,-0.87500125,0.12081238,18.777952194213867,0.5970433950424194,-2.9841055870056152,9.444024085998535,-189.05538940429688, 93.85801696777344
492,108530362,0.41497898,0.14995217,-0.88878006,0.12400404,17.7071590423584,7.4388837814331055,1.7200543880462646,7.628541946411133,-187.40496826171875, 101.12257385253906
493,108547029,0.3947011,0.13978644,-0.9000798,0.12052908,12.061555862426758,4.995804309844971,2.3777432441711426,-39.76121139526367,-151.5323944091797, 81.0848388671875
494,108563696,0.38069096,0.1339784,-0.90683997,0.121513866,10.23741626739502,3.621777296066284,2.559605121612549,-2.545380115509033,-99.896240234375, 56.75477600097656
495,108580363,0.37270445,0.13386197,-0.9088069,0.13131125,11.585176467895508,0.5873074531555176,3.63793683052063,65.79013061523438,-46.559207916259766, 34.96092987060547
496,108597030,0.37035343,0.13778976,-0.90669394,0.14750855,8.544715881347656,5.80067777633667,4.784460067749023,114.64134979248047,1.1968421936035156, 17.3017578125
497,108613697,0.37560275,0.14133874,-0.902708,0.15512742,6.132984638214111,5.885313034057617,3.208178997039795,54.94908905029297,45.48578643798828, -11.55355167388916
498,108630364,0.38821405,0.14347138,-0.89712656,0.15449838,7.395135402679443,4.607406139373779,2.6119892597198486,-5.297771453857422,88.73113250732422, -33.379390716552734
499,108647031,0.40703425,0.14517157,-0.88924044,0.14999978,6.1878533363342285,2.2693631649017334,1.4387314319610596,-33.95994567871094,129.7591552734375, -49.85143280029297
500,108663698,0.4303222,0.14819339,-0.8782617,0.14669025,6.443299293518066,0.7547011971473694,0.279125452041626,-24.24748420715332,165.52610778808594, -62.27880096435547
501,108680365,0.45702437,0.15309937,-0.8640682,0.14517514,6.808614253997803,-0.07392062246799469,-0.6234681010246277,-8.072080612182617,195.57684326171875, -75.06324005126953
502,108697032,0.48610643,0.15985227,-0.84691817,0.14449088,7.733416557312012,-0.3537342846393585,-1.4804961681365967,3.111302375793457,218.0479736328125, -88.91814422607422
503,108713699,0.5173278,0.16703485,-0.82722205,0.14203902,8.698452949523926,-0.4951804578304291,-2.6736183166503906,-5.571657657623291,236.66720581054688, -102.26226806640625
504,108730366,0.5500219,0.17401102,-0.8050958,0.13790186,9.50967025756836,-0.5788275003433228,-3.1422359943389893,-15.215251922607422,251.9912567138672, -111.32701873779297
505,108747033,0.58332235,0.18130974,-0.7805622,0.132607,10.510363578796387,-0.9209940433502197,-3.5874133110046387,-18.848384857177734,262.8052673339844, -120.96780395507812
506,108763700,0.6166872,0.1899143,-0.7532391,0.12751725,10.79206657409668,-0.9157215356826782,-3.875349521636963,-10.0460205078125,273.460693359375, -130.7199249267578
507,108780367,0.65028685,0.19969107,-0.7228782,0.121233396,12.402307510375977,-0.7500782012939453,-4.208667755126953,-8.9059419631958,285.0447082519531, -146.063232421875
508,108797034,0.68365866,0.21006371,-0.6897149,0.11303753,14.523669242858887,-0.6941350698471069,-5.218792915344238,-13.096047401428223,293.40557861328125, -161.2736358642578
509,108813701,0.71652937,0.21788323,-0.65505546,0.100075394,15.662001609802246,0.6338171362876892,-5.162181377410889,-45.82718276977539,293.2641906738281, -173.39401245117188
510,108830368,0.74950033,0.21584359,-0.6205413,0.08117553,16.243423461914062,-1.8689179420471191,-6.907237529754639,-121.43013763427734,290.997314453125, -158.13543701171875
511,108847035,0.77760935,0.21496716,-0.5867029,0.069949195,17.59405517578125,-2.738737106323242,-9.35208511352539,-75.84194946289062,277.623046875, -119.89929962158203
512,108863702,0.8004369,0.21331494,-0.556723,0.062107235,16.60746955871582,-5.853020191192627,-11.562932968139648,-60.39962387084961,241.22381591796875, -90.51840209960938
513,108880369,0.8153715,0.21434003,-0.53438693,0.060485765,10.096524238586426,-7.074517726898193,-15.264763832092285,-13.544721603393555,177.11538696289062, -52.073707580566406
514,108897036,0.8220385,0.21478082,-0.52413535,0.05834632,5.214796543121338,-4.5683794021606445,-17.952407836914062,-11.58438491821289,78.69998168945312, -31.70332145690918
515,108913703,0.8206814,0.21174999,-0.52802944,0.05319111,4.797598838806152,-4.18311071395874,-18.00358772277832,-35.950801849365234,-32.98114013671875, -12.198936462402344
516,108930370,0.813887,0.20562565,-0.5412631,0.048377696,7.783591270446777,-4.997818946838379,-13.857271194458008,-47.72174835205078,-103.55824279785156, 16.49408531188965
517,108947037,0.803732,0.20260932,-0.55731165,0.048664797,10.042168617248535,-0.5780790448188782,-5.111274242401123,-7.5683088302612305,-125.45306396484375, 38.49796676635742
518,108963704,0.7951206,0.202437,-0.5696845,0.04756532,17.353443145751953,6.991764545440674,11.280447959899902,1.8945976495742798,-102.02896118164062, 14.27454948425293
519,108980371,0.78474396,0.2061542,-0.5824399,0.04940993,13.041558265686035,-3.455142021179199,-1.0192477703094482,37.032081604003906,-108.32506561279297, 16.285573959350586
520,108997038,0.7681329,0.21688364,-0.59941894,0.060251743,12.333149909973145,-1.143670678138733,-8.419939994812012,118.31229400634766,-145.7044219970703, 44.767967224121094
521,109013705,0.7542681,0.21896434,-0.61557806,0.06479299,12.795341491699219,2.7624690532684326,-0.19625917077064514,42.8714714050293,-135.75682067871094, 44.71395492553711
522,109030372,0.74277115,0.21908666,-0.6293529,0.06486282,9.523482322692871,-1.575185775756836,-5.857283115386963,11.271674156188965,-119.23078918457031, 25.175840377807617
523,109047039,0.7309139,0.22286685,-0.6415715,0.06694257,13.040863990783691,1.4305317401885986,-4.765144348144531,39.86204147338867,-111.38700103759766, 17.392520904541016
524,109063706,0.722441,0.21877368,-0.6527081,0.06472592,11.098176956176758,2.512077569961548,-2.2378973960876465,-23.368080139160156,-93.93155670166016, 27.313220977783203
525,109080373,0.71613455,0.21208376,-0.66229045,0.05952612,11.46877384185791,0.09894315898418427,-1.8966419696807861,-52.230384826660156,-79.80850982666016, 20.880094528198242
526,109097040,0.71021056,0.2074896,-0.6704645,0.05501367,11.839394569396973,-0.24089008569717407,-1.8188496828079224,-38.768375396728516,-70.98115539550781, 12.514411926269531
527,109113707,0.7048275,0.20420082,-0.6774509,0.050800603,10.171802520751953,0.41792434453964233,-1.1365187168121338,-31.342912673950195,-62.7528076171875, 6.0540900230407715
528,109130374,0.6995531,0.20362717,-0.68323815,0.04844769,10.542683601379395,0.13178540766239166,-1.4031659364700317,-9.259167671203613,-54.78583526611328, 0.7033258676528931
529,109147041,0.69385767,0.20705605,-0.6878576,0.050412375,10.669617652893066,1.190417766571045,-2.0771775245666504,31.24690055847168,-46.45039749145508, 1.1604026556015015
530,109163708,0.6887971,0.21053484,-0.6916729,0.05312652,10.127527236938477,2.6465981006622314,-1.7955424785614014,34.39921951293945,-38.57343673706055, 3.1278200149536133
531,109180375,0.6848357,0.21175857,-0.695146,0.054133855,10.016823768615723,2.597550868988037,-1.3880776166915894,14.13535213470459,-33.38788986206055, 4.8872785568237305
532,109197042,0.6814097,0.21130611,-0.69864947,0.05403135,9.884943008422852,2.0301647186279297,-1.3418469429016113,0.14893199503421783,-31.98127555847168, 7.537250518798828
533,109213709,0.677876,0.2101481,-0.70243776,0.053881086,9.884391784667969,1.9373325109481812,-1.2492846250534058,-3.3327651023864746,-33.65730285644531, 11.171226501464844
534,109230376,0.67383426,0.20915438,-0.70658064,0.054276142,9.755722045898438,1.605182409286499,-1.2183715105056763,0.6717287302017212,-37.05461883544922, 13.633631706237793
535,109247043,0.6691399,0.20943607,-0.7108032,0.05609998,9.09619140625,1.6719870567321777,-1.353183627128601,14.433233261108398,-39.035037994384766, 14.421963691711426
536,109263710,0.66413945,0.21026805,-0.7150468,0.058433518,8.951108932495117,1.8816746473312378,-1.4069491624832153,19.892045974731445,-40.124732971191406, 14.232939720153809
537,109280377,0.658997,0.21095459,-0.71939397,0.06077516,9.340372085571289,1.8693567514419556,-1.4760258197784424,19.43382453918457,-41.243839263916016, 15.20129108428955
538,109297044,0.6539041,0.21126331,-0.7237544,0.062904835,9.12206745147705,1.9481430053710938,-1.6072312593460083,16.599382400512695,-41.22759246826172, 16.11734962463379
539,109313711,0.6489295,0.21085073,-0.72822255,0.06422392,8.806859970092773,1.8598164319992065,-1.7380880117416382,9.107681274414062,-42.0051155090332, 16.180002212524414
540,109330378,0.6439054,0.20980108,-0.73290086,0.06500617,9.070743560791016,1.6703903675079346,-1.7486395835876465,3.5595591068267822,-43.70052719116211, 17.314416885375977
541,109347045,0.63895935,0.2086913,-0.73746204,0.06579379,9.256842613220215,1.7058770656585693,-2.094313621520996,3.2633321285247803,-42.7689208984375, 17.448814392089844
542,109363712,0.6339405,0.20781952,-0.7419243,0.06692542,9.16893482208252,1.3518058061599731,-2.290377378463745,6.205292701721191,-42.32888412475586, 17.655344009399414
543,109380379,0.62868315,0.2070924,-0.7464419,0.06851989,9.420964241027832,0.9784581661224365,-2.343212842941284,9.513626098632812,-43.20165252685547, 19.129941940307617
544,109397046,0.6231703,0.20618135,-0.75114065,0.07025547,9.85589599609375,1.126397728919983,-2.2765660285949707,9.722789764404297,-45.01865768432617, 21.0626220703125
545,109413713,0.6175655,0.20503406,-0.75595087,0.07150202,9.675161361694336,1.0293521881103516,-2.346775531768799,6.263739109039307,-46.56412124633789, 20.39263916015625
546,109430380,0.6115586,0.20442651,-0.7608263,0.07313854,9.737751960754395,0.5763147473335266,-2.5207972526550293,11.119463920593262,-48.65980911254883, 19.53508758544922
547,109447047,0.60494095,0.20424466,-0.7659218,0.07546138,9.917787551879883,0.7178173065185547,-2.572237730026245,17.246191024780273,-52.042694091796875, 20.806564331054688
548,109463714,0.5975468,0.20414801,-0.77147156,0.07805727,9.846553802490234,1.0550881624221802,-2.3226218223571777,19.892778396606445,-57.6969108581543, 22.53206443786621
549,109480381,0.5893751,0.20390368,-0.77754706,0.08050355,9.669262886047363,1.006272792816162,-2.2295191287994385,19.303722381591797,-64.13304901123047, 23.859315872192383
550,109497048,0.58036274,0.20320235,-0.78422475,0.08294267,9.639513969421387,1.4158709049224854,-2.614586591720581,18.25986099243164,-70.84600830078125, 27.587512969970703
551,109513715,0.5706962,0.2016119,-0.79145485,0.085193016,10.056123733520508,1.6606638431549072,-2.9975411891937256,14.296732902526855,-76.35376739501953, 32.7847900390625
552,109530382,0.5601916,0.19960992,-0.7991168,0.08805553,10.32342529296875,1.3195770978927612,-3.152257204055786,16.92707061767578,-81.53685760498047, 38.531089782714844
553,109547049,0.54850966,0.19807164,-0.80709,0.09225267,10.781808853149414,0.904497504234314,-3.0938000679016113,27.477903366088867,-87.67430114746094, 42.27525329589844
554,109563716,0.5356101,0.19669864,-0.8153495,0.098167166,12.411109924316406,0.7166162133216858,-3.095590591430664,39.11129379272461,-93.30557250976562, 49.00273132324219
555,109580383,0.5214056,0.19338436,-0.8245736,0.10400736,14.575675964355469,0.9112086892127991,-2.6520259380340576,32.66497802734375,-103.00495147705078, 61.80170440673828
556,109597050,0.5057947,0.18825763,-0.83486336,0.10832482,16.55917739868164,-0.2230333536863327,-1.1140456199645996,18.647729873657227,-115.59172058105469, 69.05347442626953
557,109613717,0.48928624,0.18214527,-0.84552205,0.111870006,19.028715133666992,-0.6668549180030823,1.5614092350006104,11.673824310302734,-122.39525604248047, 73.17599487304688
558,109630384,0.47283757,0.17489837,-0.85610193,0.11368739,19.94256019592285,0.2518262267112732,3.023401975631714,-2.2079367637634277,-123.23281860351562, 73.82058715820312
559,109647051,0.45388827,0.16749944,-0.86777794,0.11353904,19.18878936767578,0.8619486093521118,0.241237610578537,-12.12896728515625,-143.95506286621094, 71.62482452392578
560,109663718,0.42927226,0.16150852,-0.88068074,0.118499525,18.442174911499023,3.553778648376465,-1.5164998769760132,28.315216064453125,-176.9783172607422, 85.04647827148438
561,109680385,0.4054264,0.15302277,-0.89329934,0.11928945,13.986544609069824,8.182272911071777,-1.135841965675354,-4.909419536590576,-174.21536254882812, 86.97431945800781
562,109697052,0.3863785,0.14299767,-0.9040019,0.11421076,12.88680362701416,6.779848098754883,0.4331468939781189,-48.65815734863281,-144.4254913330078, 74.23290252685547
563,109713719,0.37341708,0.13517302,-0.9112288,0.10931702,9.675680160522461,2.894421100616455,0.8542875647544861,-44.85690689086914,-99.03144836425781, 52.9383659362793
564,109730386,0.36599508,0.13296686,-0.9138741,0.11489945,10.103503227233887,-0.5818048715591431,1.7656382322311401,33.52322769165039,-47.153770446777344, 36.257938385009766
565,109747053,0.3639454,0.13730596,-0.91142565,0.13414192,8.974668502807617,4.606201171875,5.207472324371338,134.93115234375,6.616995811462402, 20.636220932006836
566,109763720,0.36893907,0.14169429,-0.90676194,0.14693429,5.042703151702881,5.915233135223389,2.9078493118286133,90.0596923828125,50.0210075378418, -4.303133010864258
567,109780387,0.38125792,0.14375709,-0.9006972,0.15073495,7.412769317626953,4.5124192237854,1.654042363166809,22.432697296142578,92.75935363769531, -21.28683090209961
568,109797054,0.39952403,0.14537996,-0.89259464,0.15006736,6.358133316040039,3.9171550273895264,0.3606054484844208,-10.119897842407227,130.88699340820312, -38.38108444213867
569,109813721,0.4225987,0.1463924,-0.8824823,0.14561889,6.408962726593018,3.3745226860046387,-0.3714101314544678,-37.70258331298828,162.7158660888672, -51.937320709228516
570,109830388,0.4493622,0.14707537,-0.87019575,0.13857119,6.9275898933410645,2.7463486194610596,-1.5163848400115967,-55.94477081298828,189.08705139160156, -63.33086013793945
571,109847055,0.47893375,0.14788513,-0.85545325,0.13020143,7.571535110473633,2.0078859329223633,-2.5141541957855225,-63.94675827026367,211.98980712890625, -73.3023910522461
572,109863722,0.5106056,0.14861287,-0.8382988,0.120214015,8.945411682128906,1.3278758525848389,-3.25598406791687,-73.70125579833984,230.69955444335938, -82.46131896972656
573,109880389,0.5436999,0.14937611,-0.818581,0.10955613,10.485268592834473,0.1543399691581726,-3.9239776134490967,-76.77395629882812,247.17640686035156, -88.80908203125
574,109897056,0.57678944,0.15258375,-0.79602665,0.10185272,10.853866577148438,-0.829640805721283,-4.91848611831665,-48.86538314819336,258.9447326660156, -94.43877410888672
575,109913723,0.6090331,0.16020438,-0.77060646,0.09787296,10.906880378723145,-0.6934564709663391,-5.262118816375732,-8.089520454406738,266.52838134765625, -106.25686645507812
576,109930390,0.6405149,0.17085367,-0.74262744,0.095154166,11.371009826660156,0.45008498430252075,-4.843843936920166,13.832372665405273,272.615478515625, -119.34217834472656
577,109947057,0.6716145,0.18218035,-0.71247774,0.09010994,13.291123390197754,0.6153134107589722,-5.283723831176758,6.805239200592041,277.1144714355469, -135.34278869628906
578,109963724,0.7019648,0.19370416,-0.68037117,0.08257945,14.203699111938477,0.2697911858558655,-5.8337931632995605,-2.3222548961639404,279.3262023925781, -149.78770446777344
579,109980391,0.73135203,0.20173481,-0.64754546,0.071500674,14.100528717041016,-1.963664174079895,-6.070964336395264,-34.113319396972656,275.6485900878906, -151.0110321044922
580,109997058,0.7569514,0.2124334,-0.6144926,0.065541975,14.719051361083984,-3.318927049636841,-8.491798400878906,7.462804794311523,265.82745361328125, -135.65948486328125
581,110013725,0.7783096,0.22448751,-0.5830237,0.06263482,15.041318893432617,-3.923551559448242,-9.532015800476074,32.871822357177734,243.6765594482422, -121.37370300292969
582,110030392,0.794273,0.23726568,-0.5558016,0.062609546,12.642057418823242,-5.200883388519287,-10.63308334350586,54.7690544128418,203.6553497314453, -100.08959197998047
583,110047059,0.80495185,0.24711482,-0.53576154,0.06282139,10.002740859985352,-4.0215020179748535,-12.336496353149414,45.173912048339844,146.09446716308594, -73.74533081054688
584,110063726,0.8117436,0.24721883,-0.525961,0.05762501,6.201189041137695,-3.2412006855010986,-14.235221862792969,-26.5491886138916,70.36507415771484, -48.82045364379883
585,110080393,0.8132823,0.2404075,-0.5275728,0.049429763,6.561513423919678,-5.134441375732422,-14.395960807800293,-71.6484375,-14.421060562133789, -19.1566104888916
586,110097060,0.8098723,0.23205805,-0.53701043,0.043309562,8.8352632522583,-5.863938808441162,-11.827720642089844,-67.26255798339844,-71.90936279296875, 12.536271095275879
587,110113727,0.8023605,0.22605552,-0.5507921,0.041771263,8.608346939086914,-3.850104570388794,-9.114603996276855,-32.065399169921875,-104.38813018798828, 37.410152435302734
588,110130394,0.7934855,0.22606772,-0.5634401,0.04253938,12.666089057922363,9.667195320129395,8.017389297485352,12.260042190551758,-101.24327087402344, 25.884328842163086
589,110147061,0.79043275,0.21509522,-0.57272273,0.030642077,17.580928802490234,4.301778316497803,10.09062671661377,-104.8127670288086,-76.87393188476562, -7.4862060546875
590,110163728,0.78054935,0.21005183,-0.5879945,0.029726947,11.860590934753418,-6.092244625091553,-8.522550582885742,-20.47281837463379,-121.41366577148438, 39.14981460571289
591,110180395,0.76644707,0.21042937,-0.6057916,0.035984196,12.713258743286133,-1.5864484310150146,-3.0093822479248047,43.17216491699219,-142.5817413330078, 60.079185485839844
592,110197062,0.754612,0.20935258,-0.6206948,0.038342807,10.209559440612793,-0.6876392364501953,0.015027940273284912,16.686864852905273,-123.07313537597656, 40.74923324584961
593,110213729,0.7429074,0.213649,-0.6329676,0.042365253,9.79372787475586,-0.5966892242431641,-5.883945465087891,52.16218566894531,-107.8703384399414, 22.566030502319336
594,110230396,0.7317205,0.21768671,-0.6441787,0.04723873,12.2255220413208,3.0694286823272705,-4.0105366706848145,54.053070068359375,-98.75616455078125, 26.259498596191406
595,110247063,0.7235287,0.21450225,-0.65443915,0.046951227,9.778377532958984,3.037611961364746,-1.9164514541625977,-9.347784042358398,-86.00102996826172, 29.882164001464844
596,110263730,0.71720445,0.20674871,-0.6641231,0.04258196,12.179996490478516,1.3085949420928955,-1.2602890729904175,-53.02904510498047,-79.22693634033203, 28.714839935302734
597,110280397,0.710824,0.19916244,-0.673536,0.037587397,11.001811027526855,0.6197719573974609,-1.2724857330322266,-54.911827087402344,-79.04505157470703, 24.50126075744629
598,110297064,0.704386,0.19276756,-0.68232965,0.033278313,10.07680892944336,0.2612628936767578,-1.1328850984573364,-45.687042236328125,-75.61978912353516, 21.49706268310547
599,110313731,0.6977576,0.19018055,-0.6898957,0.031778906,10.684138298034668,-0.2080085724592209,-1.7467445135116577,-13.540724754333496,-67.69176483154297, 15.642125129699707
600,110330398,0.6909491,0.19138078,-0.69627637,0.03409067,10.619994163513184,0.7084622383117676,-2.1068735122680664,23.186870574951172,-58.68183898925781, 14.409602165222168
601,110347065,0.6845999,0.19372131,-0.70169413,0.037691932,9.81394100189209,1.9261373281478882,-2.3747808933258057,34.38570022583008,-50.45912551879883, 13.66653060913086
602,110363732,0.6793976,0.19435774,-0.70645976,0.039480284,10.276972770690918,2.295436143875122,-2.127033233642578,16.247962951660156,-43.806968688964844, 12.180440902709961
603,110380399,0.67512757,0.19297779,-0.7109096,0.039622772,10.53625202178955,1.961059331893921,-1.8011549711227417,-2.3327035903930664,-39.43717956542969, 13.616966247558594
604,110397066,0.6713732,0.19031903,-0.7152141,0.038805436,9.962339401245117,1.744539499282837,-1.668540120124817,-13.61001968383789,-37.153629302978516, 15.084942817687988
605,110413733,0.6677386,0.1874684,-0.7193991,0.03802443,9.660645484924316,1.3685804605484009,-1.5799719095230103,-14.444074630737305,-35.90372085571289, 16.015892028808594
606,110430400,0.66397804,0.18587956,-0.7232657,0.038325783,9.24686050415039,0.8731871247291565,-1.9426257610321045,-3.054649591445923,-33.99314880371094, 14.366304397583008
607,110447067,0.66006553,0.1858558,-0.7267434,0.0401927,9.200343132019043,0.9857652187347412,-1.8446580171585083,12.16805362701416,-31.37449836730957, 13.259390830993652
608,110463734,0.65626246,0.18666032,-0.7298201,0.042900335,9.504934310913086,1.412940502166748,-1.8355005979537964,20.095056533813477,-28.159400939941406, 12.376852035522461
609,110480401,0.65269554,0.18733487,-0.73268986,0.045385562,9.265583992004395,1.602135419845581,-1.8705201148986816,18.148576736450195,-26.288957595825195, 11.679727554321289
610,110497068,0.64930075,0.18740827,-0.7355771,0.04704469,9.0328950881958,1.5747991800308228,-1.873711347579956,11.061015129089355,-26.376482009887695, 10.966516494750977
611,110513735,0.6460563,0.18706627,-0.7384443,0.048141234,9.12075424194336,1.378448247909546,-2.1219069957733154,6.173183917999268,-26.11688232421875, 10.482430458068848
612,110530402,0.6426488,0.18658862,-0.7414534,0.04933709,9.363554000854492,1.3818495273590088,-2.134648323059082,6.23555326461792,-27.397428512573242, 11.847249031066895
613,110547069,0.63908917,0.1859608,-0.74458706,0.050733346,9.425410270690918,1.5897789001464844,-1.8941400051116943,6.74487829208374,-28.413021087646484, 13.70795726776123
614,110563736,0.6354472,0.18503502,-0.7478621,0.051686,9.483609199523926,1.6723716259002686,-1.97891366481781,3.2217376232147217,-29.923301696777344, 13.497834205627441
615,110580403,0.63147527,0.18394081,-0.75141716,0.052699525,9.81527328491211,1.0418262481689453,-1.935883641242981,3.1199166774749756,-32.7099494934082, 15.110992431640625
616,110597070,0.6268895,0.18296176,-0.7553808,0.054171782,9.89959716796875,0.8673631548881531,-1.9418469667434692,6.617804050445557,-37.1249885559082, 17.241195678710938
617,110613737,0.6217626,0.18234059,-0.7596147,0.056115385,10.000998497009277,1.160150408744812,-1.9140007495880127,11.187395095825195,-40.65217208862305, 17.945701599121094
618,110630404,0.61594623,0.1818053,-0.764298,0.058358863,9.69052791595459,1.460729956626892,-1.9945987462997437,13.811324119567871,-45.84734344482422, 19.604652404785156
619,110647071,0.60924566,0.18146726,-0.7695001,0.06131264,9.682893753051758,1.5765857696533203,-1.9111251831054688,19.276853561401367,-51.899295806884766, 22.582841873168945
620,110663738,0.6013984,0.18121639,-0.77538604,0.06524935,9.758220672607422,1.651875615119934,-1.8925559520721436,25.9880428314209,-59.66389465332031, 27.58124542236328
621,110680405,0.59229636,0.18096824,-0.7820309,0.069738545,9.636004447937012,1.7392233610153198,-2.0753650665283203,30.171890258789062,-68.83184814453125, 31.36739158630371
622,110697072,0.58203405,0.18037479,-0.7894064,0.07442606,9.997820854187012,1.4657336473464966,-2.1864171028137207,30.93045425415039,-77.66233825683594, 35.50920486450195
623,110713739,0.57042044,0.17954831,-0.79750323,0.079822935,10.265961647033691,1.6272692680358887,-2.40516996383667,35.159523010253906,-86.91835021972656, 41.207401275634766
624,110730406,0.55768347,0.17847803,-0.8060591,0.08604532,11.42546558380127,1.4005638360977173,-2.9056458473205566,39.871925354003906,-93.76335906982422, 46.97898483276367
625,110747073,0.5438604,0.1763243,-0.8150933,0.09353606,13.743365287780762,1.9307500123977661,-3.0855045318603516,43.805824279785156,-99.46238708496094, 59.08698272705078
626,110763740,0.52987367,0.17242894,-0.8243919,0.09940129,15.067241668701172,1.2398719787597656,-1.3533400297164917,28.228124618530273,-102.28226470947266, 63.22152328491211
627,110780407,0.5167583,0.16880251,-0.8327799,0.10461476,17.49135971069336,-0.77656489610672,0.2539275884628296,25.115556716918945,-95.10334014892578, 57.669952392578125
628,110797074,0.4995024,0.16393447,-0.8433995,0.11090712,17.931150436401367,-0.6178418397903442,0.1722891926765442,30.074975967407227,-124.78993225097656, 74.17547607421875
629,110813741,0.47925198,0.15747017,-0.8557524,0.11492906,18.17397689819336,1.27042555809021,1.4964832067489624,13.465898513793945,-149.6562042236328, 79.8841552734375
630,110830408,0.45671317,0.14897558,-0.8694162,0.11547908,18.189556121826172,1.9038552045822144,-0.19926777482032776,-12.212569236755371,-169.84451293945312, 83.68585205078125
631,110847075,0.4321032,0.14059006,-0.8828276,0.118899465,16.671167373657227,4.886612892150879,-2.390856981277466,7.618664741516113,-178.80836486816406, 93.52339172363281
632,110863742,0.41102588,0.12910533,-0.8952105,0.11396605,12.29367733001709,7.166598796844482,-0.08577027916908264,-54.82112503051758,-160.02520751953125, 83.77787780761719
633,110880409,0.39555597,0.1197714,-0.9039867,0.109538496,10.487814903259277,2.024688720703125,0.4160025715827942,-47.68314743041992,-116.72197723388672, 64.54150390625
634,110897076,0.38596052,0.11677817,-0.9076822,0.11623655,11.253425598144531,0.26927709579467773,3.5608513355255127,37.7269172668457,-62.17281723022461, 46.84926223754883
635,110913743,0.38090813,0.12080295,-0.9062955,0.13763888,9.455976486206055,1.974825143814087,3.840230941772461,148.53102111816406,-14.387547492980957, 34.41840744018555
636,110930410,0.38191628,0.12681413,-0.901936,0.15674841,5.771447658538818,7.445870876312256,3.3680241107940674,137.24244689941406,27.15500831604004, 7.92874813079834
637,110947077,0.39057732,0.12868293,-0.8975144,0.15924299,6.8682756423950195,6.850686073303223,2.43023681640625,16.822301864624023,64.60130310058594, -18.136608123779297
638,110963744,0.4053958,0.1285681,-0.89180434,0.15430461,6.880486488342285,3.4379570484161377,0.3153836131095886,-38.314449310302734,101.50299072265625, -33.58457565307617
639,110980411,0.42498183,0.12921193,-0.883517,0.14863667,6.8113932609558105,2.9469785690307617,-0.13931679725646973,-42.10419464111328,136.36077880859375, -47.5241584777832
640,110997078,0.44837877,0.1301729,-0.8728412,0.14198674,7.043769836425781,2.188661813735962,-1.1236658096313477,-48.04907989501953,165.20098876953125, -58.26531982421875
641,111013745,0.47455198,0.1316148,-0.8597197,0.13550004,7.297339916229248,1.3812321424484253,-1.937290906906128,-45.656822204589844,189.0093994140625, -65.49247741699219
642,111030412,0.50259924,0.13355626,-0.84446436,0.12820661,8.438642501831055,1.175609827041626,-2.679265022277832,-45.99382400512695,205.5397491455078, -76.12690734863281
643,111047079,0.5324641,0.1352764,-0.82711107,0.118616775,9.630600929260254,0.5394328832626343,-3.1760153770446777,-62.39060974121094,221.6639404296875, -84.87094116210938
644,111063746,0.5634024,0.13666958,-0.80753833,0.108541906,10.429852485656738,-0.5670611262321472,-3.5880002975463867,-65.53242492675781,235.686279296875, -87.71788024902344
645,111080413,0.59416354,0.14082584,-0.78537136,0.10163688,10.983354568481445,-1.5106056928634644,-4.545241355895996,-35.127193450927734,245.66281127929688, -93.10265350341797
646,111097080,0.6239546,0.14958657,-0.76058924,0.099040754,11.06352424621582,-0.7150700092315674,-4.704286575317383,9.715542793273926,252.1051483154297, -102.2535171508789
647,111113747,0.6530528,0.1601989,-0.73394936,0.09579724,11.969121932983398,0.6270778775215149,-4.505631446838379,16.24587631225586,254.5957489013672, -116.16907501220703
648,111130414,0.68157834,0.17136513,-0.70571476,0.0897329,13.41086196899414,0.5168195366859436,-5.158265113830566,6.177459239959717,255.48025512695312, -133.0062255859375
649,111147081,0.70878416,0.18314765,-0.6763391,0.08153369,13.743690490722656,0.7303107380867004,-6.049071311950684,0.9574391841888428,251.64564514160156, -146.54725646972656
650,111163748,0.73525214,0.18939194,-0.6473117,0.067253,13.590251922607422,-0.1700611412525177,-5.618870735168457,-53.60911560058594,242.12286376953125, -149.6101531982422
651,111180415,0.7588278,0.19528745,-0.6187925,0.056030408,14.181612014770508,-2.960737943649292,-7.182666778564453,-38.24964141845703,230.98257446289062, -130.66282653808594
652,111197082,0.77854323,0.20352812,-0.5915401,0.05027177,13.875068664550781,-2.441016674041748,-7.349820613861084,1.9112451076507568,214.61019897460938, -109.0904769897461
653,111213749,0.79464,0.21179707,-0.5669849,0.047092512,12.494648933410645,-3.7649569511413574,-8.259139060974121,16.65222930908203,189.304443359375, -90.51734161376953
654,111230416,0.8063063,0.22082013,-0.5467271,0.046887554,11.058656692504883,-4.145033836364746,-9.479521751403809,37.39455032348633,152.91847229003906, -69.69417572021484
655,111247083,0.81291205,0.22957307,-0.53316724,0.046938002,8.022308349609375,-2.6305501461029053,-10.957328796386719,42.34339904785156,97.54752349853516, -55.65300750732422
656,111263750,0.8143308,0.23537081,-0.52866405,0.044502422,6.977847576141357,-2.7862837314605713,-11.94221305847168,21.905651092529297,25.26729965209961, -42.88540267944336
657,111280417,0.81134826,0.23841774,-0.53210217,0.0416945,8.22225284576416,-3.6430513858795166,-10.7947998046875,9.753843307495117,-34.61265182495117, -20.90995216369629
658,111297084,0.8051125,0.23943216,-0.541143,0.040383935,9.106307029724121,-3.8778209686279297,-8.608790397644043,7.543863773345947,-74.40660095214844, 4.8335771560668945
659,111313751,0.797075,0.23803669,-0.5535053,0.040522493,9.085320472717285,-2.095374345779419,-4.531735897064209,1.5811723470687866,-96.16490936279297, 27.620525360107422
660,111330418,0.7905997,0.2316247,-0.5655873,0.03759592,14.212693214416504,8.529123306274414,9.708721160888672,-40.090065002441406,-92.12225341796875, 28.909814834594727
661,111347085,0.78833944,0.20977126,-0.5779602,0.021896174,14.823524475097656,2.006019353866577,4.707557201385498,-180.48960876464844,-93.79862976074219, 19.055007934570312
662,111363752,0.780743,0.19310057,-0.5941209,0.013157055,11.174772262573242,-4.410528182983398,-6.320877552032471,-117.5829086303711,-126.26483154296875, 42.46980667114258
663,111380419,0.7702374,0.18377604,-0.61062115,0.010146537,12.136466026306152,-1.2920180559158325,-1.558727502822876,-50.941246032714844,-132.77593994140625, 43.78898620605469
664,111397086,0.7607422,0.17752908,-0.6242603,0.0073655373,9.492774963378906,-2.903031349182129,-1.0930085182189941,-34.772178649902344,-113.19184875488281, 28.316164016723633
665,111413753,0.74978137,0.18150559,-0.636189,0.012145506,10.546416282653809,-1.7472035884857178,-5.292023181915283,53.02125930786133,-101.7662353515625, 21.840017318725586
666,111430420,0.7384483,0.18852195,-0.647095,0.02054522,12.37993335723877,2.1027700901031494,-3.59378719329834,85.02894592285156,-93.71659088134766, 25.811603546142578
667,111447087,0.72932506,0.18967524,-0.6568746,0.024986528,11.282322883605957,2.5084784030914307,-1.387462854385376,34.89793395996094,-82.36997985839844, 29.973222732543945
668,111463754,0.7210246,0.18954465,-0.6659044,0.027718073,11.01353931427002,1.2176477909088135,-1.550430178642273,19.77116584777832,-76.8667984008789, 26.06943130493164
669,111480421,0.7137141,0.18559864,-0.6748746,0.026648352,10.407325744628906,2.9352498054504395,-0.2341713309288025,-17.84737777709961,-76.22343444824219, 24.406593322753906
670,111497088,0.7076043,0.17763613,-0.68359363,0.021021008,10.2496337890625,1.5336960554122925,-0.5009828805923462,-60.204444885253906,-74.48844909667969, 20.19810676574707
671,111513755,0.70162827,0.17273925,-0.6910616,0.017699676,10.558088302612305,0.38657575845718384,-2.117037773132324,-34.445804595947266,-65.38241577148438, 15.491645812988281
672,111530422,0.69591755,0.17132185,-0.6971542,0.01799645,10.218460083007812,1.081591010093689,-1.9833793640136719,-0.6369820237159729,-53.56839370727539, 14.7239990234375
673,111547089,0.69066685,0.17152996,-0.7022542,0.01990331,9.789995193481445,1.7065434455871582,-2.004103183746338,14.423624992370605,-44.89248275756836, 13.390105247497559
674,111563756,0.6861299,0.17110555,-0.7067525,0.021211969,10.068860054016113,2.003243923187256,-1.3112592697143555,7.761073112487793,-39.18809509277344, 12.7927827835083
675,111580423,0.68237114,0.16889258,-0.7109298,0.020597382,9.942939758300781,1.9989900588989258,-1.200271725654602,-10.895062446594238,-35.89344024658203, 11.933273315429688
676,111597090,0.6790053,0.16558114,-0.714972,0.018715702,9.809944152832031,1.4473559856414795,-1.156806230545044,-22.681434631347656,-34.65403747558594, 11.170713424682617
677,111613757,0.67560416,0.16267784,-0.7188898,0.017115029,9.639920234680176,0.9304683208465576,-1.215914011001587,-19.341197967529297,-33.9813232421875, 10.354206085205078
678,111630424,0.67204314,0.16115673,-0.7225747,0.016516067,9.290002822875977,0.9055315256118774,-1.56150484085083,-7.7687859535217285,-32.73794937133789, 7.931344032287598
679,111647091,0.66837513,0.16093716,-0.72600746,0.01695954,9.190098762512207,1.2711968421936035,-1.5773279666900635,3.5649099349975586,-31.099546432495117, 6.005001544952393
680,111663758,0.6647684,0.16114686,-0.72924453,0.017819747,9.449691772460938,1.609697699546814,-1.3762292861938477,7.566330909729004,-29.491535186767578, 5.549887180328369
681,111680425,0.66106254,0.16129744,-0.732547,0.018835023,9.552987098693848,1.834075689315796,-1.3533135652542114,8.172228813171387,-30.124385833740234, 6.642505168914795
682,111697092,0.6573406,0.16085966,-0.735967,0.019509,9.472898483276367,1.9900116920471191,-1.4446951150894165,3.7810821533203125,-31.062273025512695, 8.19810962677002
683,111713759,0.6535724,0.16016522,-0.73944724,0.020215701,9.39201831817627,1.8501312732696533,-1.8153672218322754,2.831219434738159,-31.517621994018555, 9.735673904418945
684,111730426,0.64977413,0.15930642,-0.74294543,0.021159597,9.538168907165527,1.4309910535812378,-1.8946254253387451,3.330387592315674,-31.481130599975586, 11.678791999816895
685,111747093,0.64565784,0.15875216,-0.7465897,0.022970881,9.644493103027344,1.377633810043335,-1.7238761186599731,9.451957702636719,-32.87664031982422, 14.212265014648438
686,111763760,0.6413061,0.15813713,-0.7503924,0.025115538,9.748679161071777,1.4681119918823242,-1.6342517137527466,11.132512092590332,-34.45399856567383, 16.223026275634766
687,111780427,0.636652,0.15728664,-0.7544392,0.02751871,9.93038558959961,1.1850873231887817,-1.7444586753845215,11.726357460021973,-36.82146453857422, 18.910627365112305
688,111797094,0.63157356,0.15653034,-0.75873095,0.030672291,9.968941688537598,1.2559136152267456,-1.9102033376693726,16.456274032592773,-39.36001205444336, 22.062030792236328
689,111813761,0.6259142,0.15592176,-0.7633536,0.03481144,9.8192138671875,1.2840138673782349,-2.0041301250457764,22.809795379638672,-42.860801696777344, 26.063091278076172
690,111830428,0.6196414,0.15506998,-0.7683657,0.04015519,9.902913093566895,1.439399003982544,-2.0583231449127197,28.668045043945312,-46.47516632080078, 33.10484313964844
691,111847095,0.61263734,0.1536602,-0.773917,0.046008877,9.673919677734375,2.2858307361602783,-1.6845983266830444,29.63855743408203,-52.01179885864258, 39.02634048461914
692,111863762,0.60512036,0.15118778,-0.7799789,0.05104015,9.622761726379395,2.3247365951538086,-2.0771987438201904,21.198244094848633,-57.51045227050781, 41.97311019897461
693,111880429,0.59681207,0.14866455,-0.78644705,0.056708675,9.792762756347656,1.381844401359558,-2.304048538208008,25.11667823791504,-62.84403991699219, 45.65792465209961
694,111897096,0.5877674,0.14603843,-0.7932325,0.06312582,10.270003318786621,1.761635422706604,-2.4052023887634277,29.3983097076416,-67.40214538574219, 49.935977935791016
695,111913763,0.578019,0.14246173,-0.8004625,0.06970674,11.36213493347168,2.3582193851470947,-2.606518268585205,26.994884490966797,-72.54602813720703, 56.58491134643555
696,111930430,0.5672708,0.1377132,-0.80834496,0.07627455,12.033560752868652,2.8470566272735596,-2.8184452056884766,22.971446990966797,-80.1865463256836, 64.1698226928711
697,111947097,0.55574584,0.13311252,-0.8164477,0.08271071,12.955069541931152,1.6655082702636719,-2.199873447418213,23.4797420501709,-85.66205596923828, 63.53422927856445
