PacketCounter,SampleTimeFine,Quat_W,Quat_X,Quat_Y,Quat_Z,Acc_X,Acc_Y,Acc_Z,Gyr_X,Gyr_Y,Gyr_Z 
1,124616585,0.26247492,-0.66433424,-0.37070617,-0.59358567,-0.753091037273407,-1.0000654458999634,1.4759002923965454,2.578268051147461,1.6681138277053833, -0.6665915250778198
2,124633252,0.26283947,-0.6644895,-0.37010473,-0.5936259,9.639968872070312,0.8355701565742493,-1.567803144454956,-1.2328673601150513,0.5658934116363525, 0.7484607100486755
3,124649919,0.26321635,-0.6647396,-0.36969504,-0.5934343,9.640201568603516,0.8403485417366028,-1.562160849571228,-1.3943041563034058,0.6093581914901733, 0.6464325189590454
4,124666586,0.26326647,-0.66506875,-0.3691712,-0.5933691,9.673964500427246,0.8282212018966675,-1.5226616859436035,-1.4444794654846191,0.6571258306503296, 0.586089015007019
5,124683253,0.26342738,-0.6652203,-0.36876047,-0.5933833,9.684123992919922,0.8347637057304382,-1.5048916339874268,-0.9066639542579651,0.6180664896965027, 0.6033135652542114
6,124699920,0.26362455,-0.6652197,-0.36850235,-0.5934568,9.677881240844727,0.8516579270362854,-1.510648250579834,-1.0990281105041504,0.53065025806427, 0.392136812210083
7,124716587,0.2637468,-0.66517305,-0.36829057,-0.59358627,9.686872482299805,0.7780865430831909,-1.5656484365463257,-0.8575387597084045,0.6537448763847351, 0.25795188546180725
8,124733254,0.26402822,-0.665097,-0.36825138,-0.59357053,9.71434497833252,0.7763195037841797,-1.570984959602356,-0.14384092390537262,0.6862345933914185, 0.12494514882564545
9,124749921,0.26419827,-0.6651097,-0.3680758,-0.5935895,9.67147159576416,0.8750810027122498,-1.531777024269104,-0.23179493844509125,0.8656259775161743, 0.14797095954418182
10,124766588,0.26433253,-0.665018,-0.36802232,-0.5936656,9.647738456726074,0.8710010647773743,-1.555922031402588,-1.3116905689239502,1.0851141214370728, -0.02250075712800026
11,124783255,0.2642636,-0.6650244,-0.36779755,-0.5938285,9.632072448730469,0.8513088226318359,-1.562618613243103,-1.3712912797927856,1.1816612482070923, 0.10104850679636002
12,124799922,0.2642152,-0.66499865,-0.3676043,-0.59399843,9.632776260375977,0.8912591338157654,-1.5343847274780273,-1.5508618354797363,1.4234706163406372, 0.1743648797273636
13,124816589,0.26417643,-0.6649442,-0.36745453,-0.5941693,9.652097702026367,0.8689187169075012,-1.5272407531738281,-1.8211655616760254,1.4188604354858398, 0.2707454562187195
14,124833256,0.26405415,-0.6649452,-0.3672021,-0.59437853,9.66905403137207,0.8314200043678284,-1.536395788192749,-1.9806814193725586,1.375575065612793, 0.4164048731327057
15,124849923,0.26398975,-0.66491246,-0.36703765,-0.59454536,9.70549488067627,0.8464841842651367,-1.4900411367416382,-2.0054359436035156,1.2315034866333008, 0.31364673376083374
16,124866590,0.2639138,-0.6648964,-0.3668601,-0.5947065,9.677072525024414,0.8329162001609802,-1.4280874729156494,-2.110217809677124,1.016574501991272, 0.3651922941207886
17,124883257,0.26386634,-0.664862,-0.36671978,-0.5948527,9.681924819946289,0.8736472129821777,-1.4611097574234009,-2.439852714538574,0.7790550589561462, 0.36739492416381836
18,124899924,0.26371515,-0.6648874,-0.3664974,-0.59502834,9.680730819702148,0.8097382187843323,-1.492405652999878,-2.5210964679718018,0.5634986162185669, 0.32335394620895386
19,124916591,0.26380268,-0.6648132,-0.36652732,-0.59505415,9.647865295410156,0.8074036836624146,-1.4620120525360107,-1.4908769130706787,0.29258671402931213, 0.3538394868373871
20,124933258,0.263678,-0.6648874,-0.36636323,-0.5951274,9.670706748962402,0.8857520222663879,-1.4283212423324585,-2.3284249305725098,-0.19425952434539795, 0.406928151845932
21,124949925,0.26355106,-0.66495436,-0.3662227,-0.5951954,9.766559600830078,0.8482821583747864,-1.4959789514541626,-2.647315502166748,-0.3403415083885193, 0.40913084149360657
22,124966592,0.26337573,-0.66502154,-0.36599708,-0.5953367,9.659759521484375,0.8492230176925659,-1.518845558166504,-2.4642491340637207,0.12018119543790817, 0.3157469630241394
23,124983259,0.26327896,-0.66500133,-0.36590987,-0.5954559,9.626028060913086,0.8157506585121155,-1.5418182611465454,-3.0457470417022705,0.22747281193733215, 0.09376168996095657
24,124999926,0.2630977,-0.6650316,-0.36573204,-0.5956112,9.643938064575195,0.747683584690094,-1.5368489027023315,-2.6115221977233887,0.32752880454063416, -0.016622642055153847
25,125016593,0.26295707,-0.66503996,-0.3655944,-0.59574866,9.65125560760498,0.783008873462677,-1.5200289487838745,-1.9018453359603882,0.44054481387138367, -0.18361742794513702
26,125033260,0.26278716,-0.6650276,-0.36547503,-0.5959104,9.698539733886719,0.7992345094680786,-1.5003763437271118,-2.393711805343628,0.5210327506065369, -0.45864662528038025
27,125049927,0.26274925,-0.6649192,-0.3654899,-0.59603894,9.670369148254395,0.7494646906852722,-1.5495580434799194,-1.6096172332763672,0.8007490038871765, -0.6395106911659241
28,125066594,0.26266617,-0.66483146,-0.36546138,-0.5961911,9.691040992736816,0.8650190830230713,-1.5113976001739502,-1.6223852634429932,0.8711071014404297, -0.7420895099639893
29,125083261,0.26253974,-0.6647559,-0.36539647,-0.59637064,9.703729629516602,0.8945022225379944,-1.4859334230422974,-2.5001068115234375,0.8729000687599182, -0.6753044128417969
30,125099928,0.26232445,-0.66473556,-0.36524445,-0.59658116,9.652115821838379,0.8588824272155762,-1.4788310527801514,-3.29207706451416,0.7260239720344543, -0.5407353043556213
31,125116595,0.26215714,-0.6647093,-0.36515328,-0.59673995,9.61562442779541,0.8019747138023376,-1.4532805681228638,-2.955552101135254,0.4951895773410797, -0.4873713552951813
32,125133262,0.2619947,-0.66471905,-0.36506033,-0.59685713,9.657544136047363,0.8893670439720154,-1.4309266805648804,-2.0799944400787354,0.23232640326023102, -0.43496769666671753
33,125149929,0.26159737,-0.6648826,-0.36478078,-0.5970203,9.6406888961792,1.073846459388733,-1.2887521982192993,-4.576695442199707,-0.49016308784484863, -0.17498597502708435
34,125166596,0.261041,-0.66508603,-0.36430988,-0.59732455,9.740802764892578,0.9751507043838501,-1.542980432510376,-6.0236334800720215,-0.1051657646894455, -0.0745713859796524
35,125183263,0.2607159,-0.6651227,-0.36398143,-0.59762585,9.663798332214355,0.6820260882377625,-1.6101807355880737,-4.816378593444824,0.854843020439148, -0.03366789221763611
36,125199930,0.26074734,-0.6649791,-0.3640048,-0.5977579,9.64350414276123,0.6756053566932678,-1.5879141092300415,-2.8053717613220215,0.9815618991851807, -0.1322895884513855
37,125216597,0.26065326,-0.6648643,-0.36388758,-0.59799767,9.679064750671387,0.758280873298645,-1.5685045719146729,-2.005679130554199,1.5431073904037476, -0.5443722605705261
38,125233264,0.26056543,-0.664699,-0.3638191,-0.5982613,9.651816368103027,0.7861838936805725,-1.5760525465011597,-2.051769256591797,1.7920883893966675, -0.898006796836853
39,125249931,0.26044905,-0.66454273,-0.36372426,-0.59854317,9.614457130432129,0.7749598622322083,-1.5401153564453125,-1.8308085203170776,1.8937453031539917, -1.0041329860687256
40,125266598,0.26056537,-0.66425943,-0.3638919,-0.5987053,9.618949890136719,0.7979176044464111,-1.4458953142166138,-0.6147560477256775,1.8697208166122437, -1.1513805389404297
41,125283265,0.26072308,-0.66395456,-0.36407933,-0.5988608,9.674428939819336,0.8867716789245605,-1.4295567274093628,0.13964684307575226,2.0248570442199707, -1.189684271812439
42,125299932,0.26085088,-0.66368866,-0.36423364,-0.59900606,9.677511215209961,0.8591172099113464,-1.4485992193222046,0.14511516690254211,1.8169074058532715, -1.08108651638031
43,125316599,0.26102054,-0.663419,-0.36441538,-0.5991202,9.672504425048828,0.8778299689292908,-1.4339417219161987,0.4336422085762024,1.7292094230651855, -0.9678014516830444
44,125333266,0.2611489,-0.663196,-0.36456797,-0.59921837,9.663472175598145,0.8731285333633423,-1.4570846557617188,0.2836158573627472,1.423253059387207, -0.8824344277381897
45,125349933,0.26128277,-0.66298795,-0.36475363,-0.5992773,9.664070129394531,0.8476772308349609,-1.4400218725204468,0.1325649470090866,1.1017239093780518, -0.8398404121398926
46,125366600,0.2614371,-0.66279036,-0.3649806,-0.5992904,9.667479515075684,0.8980739712715149,-1.407153844833374,0.08784515410661697,0.7851124405860901, -0.7772941589355469
47,125383267,0.2614983,-0.66264725,-0.36511168,-0.59934205,9.693367958068848,0.8754972815513611,-1.391366958618164,-0.1663416624069214,0.7338613867759705, -0.7575083374977112
48,125399934,0.2616734,-0.66247594,-0.3653374,-0.5993174,9.705855369567871,0.8553680181503296,-1.4276899099349976,0.20997931063175201,0.5319821238517761, -0.5364195108413696
49,125416601,0.26171347,-0.66238034,-0.3654219,-0.599354,9.715157508850098,0.8866167664527893,-1.4205266237258911,-0.07788822054862976,0.5213016867637634, -0.5477020144462585
50,125433268,0.2618303,-0.66222644,-0.36557233,-0.59938127,9.7269926071167,0.9051687717437744,-1.4034303426742554,-0.8076452016830444,0.649634063243866, -0.4398340582847595
51,125449935,0.26186833,-0.6621128,-0.3655911,-0.59947896,9.744063377380371,0.9408815503120422,-1.418912410736084,-1.4265762567520142,0.8840031623840332, -0.26203078031539917
52,125466602,0.261851,-0.6619904,-0.3655312,-0.599658,9.700477600097656,0.9009506106376648,-1.4701507091522217,-2.3927509784698486,1.2692564725875854, -0.25821441411972046
53,125483269,0.2618248,-0.66186994,-0.3654691,-0.59984034,9.68256950378418,0.7995455265045166,-1.4732950925827026,-2.2610890865325928,1.28281831741333, -0.30959346890449524
54,125499936,0.26185367,-0.6617137,-0.3654457,-0.60001415,9.683700561523438,0.8559763431549072,-1.4005569219589233,-1.4594372510910034,1.49658203125, -0.39192554354667664
55,125516603,0.2618546,-0.66153765,-0.36544204,-0.6002102,9.685820579528809,0.9138700366020203,-1.348838448524475,-2.122703790664673,1.5131535530090332, -0.6040499210357666
56,125533270,0.26176333,-0.661419,-0.3653791,-0.60041904,9.673696517944336,0.8360543847084045,-1.379417896270752,-2.2661092281341553,1.2588577270507812, -0.6809135675430298
57,125549937,0.26172346,-0.66130275,-0.36537418,-0.6005675,9.659716606140137,0.8708351850509644,-1.3790727853775024,-1.6981346607208252,0.988694965839386, -0.6188027858734131
58,125566604,0.26169202,-0.6611972,-0.36538187,-0.6006928,9.647683143615723,0.876599907875061,-1.4002904891967773,-1.3850324153900146,0.850757896900177, -0.5995293259620667
59,125583271,0.2617933,-0.6610395,-0.36550364,-0.60074806,9.653749465942383,0.8946772813796997,-1.4341171979904175,-0.8395331501960754,0.8007875084877014, -0.46109262108802795
60,125599938,0.26180607,-0.6609211,-0.36553094,-0.6008562,9.646026611328125,0.870278537273407,-1.469914197921753,-1.2282698154449463,0.8886646628379822, -0.47884225845336914
61,125616605,0.2618911,-0.66076696,-0.36561552,-0.6009372,9.670899391174316,0.869328498840332,-1.4132484197616577,-1.1394320726394653,0.9451149702072144, -0.396651029586792
62,125633272,0.26193607,-0.6606276,-0.36569425,-0.6010229,9.702220916748047,0.8734238743782043,-1.3719972372055054,-1.072903037071228,0.8462755680084229, -0.5540410876274109
63,125649939,0.26190838,-0.6605279,-0.36571342,-0.60113275,9.686443328857422,0.8636754751205444,-1.419951319694519,-1.114895224571228,0.7768780589103699, -0.6238998174667358
64,125666606,0.26194012,-0.6603737,-0.36579484,-0.60123897,9.678651809692383,0.8048257827758789,-1.430432915687561,-0.84250408411026,0.9908336997032166, -0.7438057065010071
65,125683273,0.2620496,-0.660168,-0.36595497,-0.6013196,9.655168533325195,0.8320857286453247,-1.401902437210083,0.06621523946523666,1.1543707847595215, -0.8841504454612732
66,125699940,0.26208252,-0.65999264,-0.36606613,-0.6014301,9.700429916381836,0.9707593321800232,-1.3553249835968018,-0.652150571346283,1.0585153102874756, -0.9579406380653381
67,125716607,0.26194268,-0.6599177,-0.36601147,-0.60160625,9.697127342224121,0.9913755655288696,-1.3525952100753784,-2.4241268634796143,0.8037713170051575, -0.7818916440010071
68,125733274,0.261731,-0.65987366,-0.36589375,-0.6018186,9.698653221130371,0.8902872800827026,-1.4527572393417358,-2.9005744457244873,0.7941538691520691, -0.804187536239624
69,125749941,0.26163626,-0.6597756,-0.3658677,-0.60198313,9.671647071838379,0.8536062836647034,-1.4427435398101807,-2.2919909954071045,0.8871662616729736, -0.716169536113739
70,125766608,0.2615334,-0.65966135,-0.36582077,-0.6021813,9.665745735168457,0.8707889914512634,-1.4225914478302002,-2.005781650543213,1.1775503158569336, -0.8270725011825562
71,125783275,0.261581,-0.65946525,-0.3659225,-0.6023137,9.677888870239258,0.8386548757553101,-1.3887195587158203,-1.2235184907913208,1.252787470817566, -0.8548237681388855
72,125799942,0.2616288,-0.65929055,-0.36603022,-0.60241866,9.682106971740723,0.9502124190330505,-1.3706218004226685,-1.4032299518585205,1.0078660249710083, -0.7534359097480774
73,125816609,0.26156464,-0.65913975,-0.36602986,-0.6026118,9.680859565734863,0.9203574657440186,-1.3750635385513306,-2.3260557651519775,1.2503160238265991, -0.8622003197669983
74,125833276,0.2614864,-0.65896934,-0.36603966,-0.60282606,9.661538124084473,0.8112227320671082,-1.4483774900436401,-1.954607605934143,1.4139810800552368, -1.1101056337356567
75,125849943,0.2615354,-0.6587595,-0.36615482,-0.6029642,9.696463584899902,0.8679490089416504,-1.3889613151550293,-0.42681002616882324,1.3979731798171997, -1.0693557262420654
76,125866610,0.26157457,-0.65858066,-0.36624822,-0.6030858,9.73908805847168,1.009099006652832,-1.282646894454956,-0.9085337519645691,1.1770509481430054, -0.8636730909347534
77,125883277,0.26147887,-0.65850383,-0.36619744,-0.6032422,9.684332847595215,0.9743261933326721,-1.3385118246078491,-2.13114333152771,0.8489265441894531, -0.6017192006111145
78,125899944,0.26137668,-0.65848213,-0.36612234,-0.6033556,9.673224449157715,0.9102672338485718,-1.3028454780578613,-2.458524703979492,0.4302229583263397, -0.26934313774108887
79,125916611,0.26133302,-0.65847176,-0.36610535,-0.6033962,9.668259620666504,0.8820289373397827,-1.2911213636398315,-1.9513930082321167,0.07543579488992691, -0.11021143943071365
80,125933278,0.26131427,-0.65851,-0.36611617,-0.60335594,9.685160636901855,0.9681145548820496,-1.2905659675598145,-1.315557837486267,-0.45648229122161865, 0.09161023050546646
81,125949945,0.26119742,-0.6586117,-0.36605707,-0.6033315,9.675604820251465,0.9758631587028503,-1.320649266242981,-2.253110885620117,-0.7794072031974792, 0.14386014640331268
82,125966612,0.26104975,-0.65876114,-0.36596146,-0.6032902,9.681434631347656,0.9223175048828125,-1.3722771406173706,-2.5992534160614014,-1.0690100193023682, 0.33728721737861633
83,125983279,0.260889,-0.65895176,-0.36581486,-0.6032407,9.717300415039062,0.938721239566803,-1.280170202255249,-2.9442694187164307,-1.2180757522583008, 0.6348939538002014
84,125999946,0.26071867,-0.65916604,-0.36564097,-0.60318553,9.706425666809082,0.9557664394378662,-1.3391525745391846,-2.97698974609375,-1.3089240789413452, 0.7694887518882751
85,126016613,0.26048693,-0.65939134,-0.36544544,-0.60315794,9.693809509277344,0.8839929699897766,-1.3928302526474,-3.693953275680542,-1.3724822998046875, 0.6287086606025696
86,126033280,0.26033363,-0.6595705,-0.36533907,-0.6030926,9.69310474395752,0.804319441318512,-1.3977826833724976,-2.745335817337036,-1.306875228881836, 0.49188557267189026
87,126049947,0.26029763,-0.6596854,-0.3653564,-0.6029719,9.708732604980469,0.8899787664413452,-1.4002580642700195,-1.609399676322937,-1.2303060293197632, 0.3660886883735657
88,126066614,0.26017648,-0.65981627,-0.36528417,-0.60292476,9.703472137451172,0.9286398887634277,-1.411386251449585,-2.2408676147460938,-0.9803005456924438, 0.27744317054748535
89,126083281,0.25999284,-0.6599657,-0.36515674,-0.60291773,9.666877746582031,0.8924242258071899,-1.4126163721084595,-2.9658737182617188,-0.9369125366210938, 0.25510886311531067
90,126099948,0.25980324,-0.66008687,-0.36502808,-0.6029447,9.641735076904297,0.85992032289505,-1.426054835319519,-3.02022385597229,-0.6727432012557983, 0.09962700307369232
91,126116615,0.25967148,-0.66014314,-0.36494488,-0.60299015,9.686485290527344,0.8547371625900269,-1.4106017351150513,-2.5874078273773193,-0.25922614336013794, -0.05613023415207863
92,126133282,0.25953603,-0.66017807,-0.36489335,-0.60304147,9.67529010772705,0.8580645322799683,-1.4190874099731445,-2.3524880409240723,-0.1968720257282257, -0.2984519898891449
93,126149949,0.25941163,-0.66019493,-0.3648824,-0.603083,9.652207374572754,0.8345061540603638,-1.4251494407653809,-2.150250196456909,-0.21403254568576813, -0.46072128415107727
94,126166616,0.25931412,-0.66018426,-0.36495253,-0.6030942,9.606976509094238,0.8308588266372681,-1.4465305805206299,-1.54611074924469,-0.30797991156578064, -0.7426658868789673
95,126183283,0.25922182,-0.660173,-0.3650389,-0.6030939,9.682321548461914,0.9198338389396667,-1.3658849000930786,-1.4215048551559448,-0.36644092202186584, -0.7834412455558777
96,126199950,0.2590915,-0.66019493,-0.36508045,-0.60310084,9.690753936767578,0.9745479226112366,-1.3274846076965332,-1.9301217794418335,-0.495029479265213, -0.6577982306480408
97,126216617,0.25894693,-0.6602422,-0.36512104,-0.6030867,9.655380249023438,0.8813507556915283,-1.3898826837539673,-1.9214264154434204,-0.7274391651153564, -0.6178168058395386
98,126233284,0.25887582,-0.6602923,-0.3652341,-0.60299385,9.651117324829102,0.895423173904419,-1.3912423849105835,-1.2172307968139648,-1.0522722005844116, -0.4811217784881592
99,126249951,0.25876164,-0.66039217,-0.3652863,-0.60290176,9.705198287963867,0.9758195877075195,-1.3011833429336548,-1.5228028297424316,-1.2302162647247314, -0.29521191120147705
100,126266618,0.25855017,-0.6605483,-0.3652522,-0.6028422,9.743175506591797,0.9616448283195496,-1.3829940557479858,-2.5455307960510254,-1.4177908897399902, -0.21448074281215668
101,126283285,0.25833338,-0.66070694,-0.36520123,-0.60279226,9.714472770690918,0.8942524194717407,-1.4553260803222656,-3.0276386737823486,-1.4052406549453735, -0.11826663464307785
102,126299952,0.2581312,-0.66083926,-0.36512542,-0.6027798,9.686269760131836,0.8881897330284119,-1.4601632356643677,-2.8948755264282227,-1.0187963247299194, -0.1119018942117691
103,126316619,0.25793314,-0.6609449,-0.3650603,-0.6027879,9.680853843688965,0.8516581654548645,-1.4757070541381836,-2.7693347930908203,-0.8103474378585815, -0.2607372999191284
104,126333286,0.25778446,-0.6610234,-0.3650214,-0.60278904,9.673748970031738,0.9027665853500366,-1.4193466901779175,-2.455451011657715,-0.6541995406150818, -0.22648029029369354
105,126349953,0.25754216,-0.6611305,-0.36493164,-0.60282964,9.668844223022461,0.9361264705657959,-1.4184871912002563,-3.1166298389434814,-0.7244935631752014, -0.4014278054237366
106,126366620,0.25734055,-0.6612145,-0.36489782,-0.6028441,9.664261817932129,0.8868057131767273,-1.4340585470199585,-2.7930521965026855,-0.7631174921989441, -0.4711327850818634
107,126383287,0.25725934,-0.6612485,-0.36492887,-0.6028226,9.678735733032227,0.9315005540847778,-1.4423975944519043,-1.95016348361969,-0.5447435975074768, -0.3115784227848053
108,126399954,0.25715885,-0.6612986,-0.36492926,-0.60281026,9.635141372680664,0.9638688564300537,-1.468109369277954,-2.0748465061187744,-0.5464085340499878, -0.24924999475479126
109,126416621,0.25708064,-0.66135097,-0.36491892,-0.60279244,9.63870620727539,0.9307295083999634,-1.4566770792007446,-1.948140263557434,-0.4949013590812683, -0.09940288215875626
110,126433288,0.2569742,-0.6614359,-0.36485794,-0.6027816,9.66928768157959,0.9527885913848877,-1.4047870635986328,-2.2744204998016357,-0.5658741593360901, 0.06914789229631424
111,126449955,0.25685546,-0.6615312,-0.3647897,-0.6027689,9.701952934265137,0.9075148105621338,-1.412216305732727,-2.3323307037353516,-0.6311352849006653, 0.07496197521686554
112,126466622,0.2567714,-0.661616,-0.36474395,-0.6027393,9.73878002166748,0.9198140501976013,-1.401415467262268,-2.010558605194092,-0.6164464950561523, 0.11491778492927551
113,126483289,0.2566766,-0.6616733,-0.3647286,-0.6027261,9.676310539245605,0.8615673780441284,-1.4644228219985962,-1.8683052062988281,-0.5032382607460022, -0.17690688371658325
114,126499956,0.25665364,-0.66169447,-0.36480057,-0.60266906,9.646208763122559,0.8389877676963806,-1.484472632408142,-1.2007105350494385,-0.542630672454834, -0.26893335580825806
115,126516623,0.2566109,-0.6617309,-0.36486208,-0.6026101,9.652278900146484,0.9453958868980408,-1.4183727502822876,-1.35286283493042,-0.6401253938674927, -0.2697145342826843
116,126533290,0.25644976,-0.6618131,-0.36482182,-0.6026126,9.69769287109375,0.9611228704452515,-1.4333784580230713,-2.5764708518981934,-0.6697463989257812, -0.2870158851146698
117,126549957,0.25627407,-0.6619131,-0.3647387,-0.6026279,9.723542213439941,0.9138879776000977,-1.4531118869781494,-2.857891082763672,-0.6431989073753357, -0.1330195814371109
118,126566624,0.2561718,-0.66196203,-0.36472917,-0.60262346,9.663814544677734,0.8792383670806885,-1.4476033449172974,-2.161916971206665,-0.4727080166339874, -0.24884019792079926
119,126583291,0.25610694,-0.6619825,-0.36476907,-0.6026044,9.634268760681152,0.8396808505058289,-1.4611620903015137,-1.6539273262023926,-0.40765172243118286, -0.37631461024284363
120,126599958,0.25610396,-0.6619749,-0.36486912,-0.6025534,9.678140640258789,0.889265775680542,-1.43710196018219,-0.9427778720855713,-0.3790166974067688, -0.4229809045791626
121,126616625,0.25602457,-0.66200304,-0.36491644,-0.60252756,9.693625450134277,0.9590705633163452,-1.3896143436431885,-1.6595364809036255,-0.512843132019043, -0.45567554235458374
122,126633292,0.25586504,-0.66209316,-0.36489004,-0.6025124,9.724344253540039,0.97321617603302,-1.3551336526870728,-2.6232144832611084,-0.8108340501785278, -0.29240739345550537
123,126649959,0.25574002,-0.6621758,-0.36488113,-0.60248005,9.71845531463623,0.9403639435768127,-1.479579210281372,-2.223912477493286,-0.7957097887992859, -0.2333701103925705
124,126666626,0.25565863,-0.6622225,-0.36489975,-0.602452,9.658598899841309,0.894500195980072,-1.484984278678894,-1.7982547283172607,-0.5577037334442139, -0.28555598855018616
125,126683293,0.25559133,-0.6622607,-0.36491197,-0.6024312,9.655981063842773,0.9626327753067017,-1.4552901983261108,-1.830885410308838,-0.44467484951019287, -0.22749198973178864
126,126699960,0.255427,-0.66233397,-0.36487547,-0.6024424,9.633111000061035,0.9037228226661682,-1.4641591310501099,-2.6260571479797363,-0.6019624471664429, -0.3736252188682556
127,126716627,0.2553209,-0.66235596,-0.3648914,-0.6024535,9.631668090820312,0.8128634691238403,-1.5239920616149902,-2.0079972743988037,-0.3275223970413208, -0.5105123519897461
128,126733294,0.25531566,-0.66235054,-0.36498952,-0.6024022,9.670008659362793,0.9150604605674744,-1.4830988645553589,-1.0142629146575928,-0.3840240240097046, -0.4345066249370575
129,126749961,0.25527722,-0.6623273,-0.36507148,-0.6023944,9.646773338317871,0.9548836350440979,-1.491764783859253,-1.4179446697235107,-0.17529334127902985, -0.6073283553123474
130,126766628,0.25525033,-0.6623214,-0.36514473,-0.60236794,9.622296333312988,0.9037443995475769,-1.4739065170288086,-1.246390700340271,-0.2685491144657135, -0.4646911919116974
131,126783295,0.2552228,-0.66235685,-0.365213,-0.60229915,9.663182258605957,0.9928805828094482,-1.4217898845672607,-1.352427363395691,-0.6350668668746948, -0.2532839775085449
132,126799962,0.2550863,-0.6624542,-0.3651973,-0.60225946,9.636159896850586,1.0134222507476807,-1.4462110996246338,-2.310457706451416,-0.8789637684822083, -0.22559666633605957
133,126816629,0.25492072,-0.6625636,-0.36514866,-0.6022388,9.642521858215332,0.8717198371887207,-1.4858330488204956,-2.6401569843292236,-0.8558611273765564, -0.19719217717647552
134,126833296,0.25488177,-0.6626358,-0.36520138,-0.6021438,9.69937801361084,0.9042521119117737,-1.4777193069458008,-1.5083832740783691,-0.9083032011985779, -0.0866093561053276
135,126849963,0.25484005,-0.6626988,-0.36525035,-0.6020624,9.690343856811523,0.9654967188835144,-1.4400079250335693,-1.4713729619979858,-0.7989113926887512, -0.14439159631729126
136,126866630,0.25474492,-0.66276443,-0.36523676,-0.6020387,9.682516098022461,0.969089925289154,-1.5195173025131226,-1.9914641380310059,-0.5577037334442139, -0.19475896656513214
137,126883297,0.2548211,-0.66127545,-0.36525884,-0.60362834,10.365192413330078,1.500975489616394,0.07535251975059509,-2.7581183910369873,13.56106948852539, -6.326225757598877
138,126899964,0.25339222,-0.6589895,-0.36388344,-0.6075476,9.039011001586914,0.777094304561615,-2.227442502975464,-19.684337615966797,26.038496017456055, -12.30163860321045
139,126916631,0.25252295,-0.65798575,-0.36313143,-0.60944444,9.626728057861328,0.5983890891075134,-1.7324366569519043,-11.897497177124023,11.874079704284668, -6.051327705383301
140,126933298,0.2520008,-0.65744597,-0.3627976,-0.610441,9.638155937194824,1.0930713415145874,-1.431901216506958,-6.862758636474609,6.055939197540283, -3.8346705436706543
141,126949965,0.2516132,-0.6572362,-0.36267334,-0.61090046,9.68964672088623,0.9440009593963623,-1.4498860836029053,-4.592844009399414,2.22633957862854, -2.4638779163360596
142,126966632,0.2515188,-0.65698844,-0.36277837,-0.6111436,9.761631965637207,1.0898882150650024,-1.0539666414260864,-1.6543116569519043,1.758920431137085, -2.004232406616211
143,126983299,0.25134125,-0.65634483,-0.36288846,-0.6118424,9.517499923706055,0.9875972867012024,-1.5274714231491089,-2.7268178462982178,5.219119548797607, -4.118061065673828
144,126999966,0.25118113,-0.65591705,-0.36305392,-0.61226857,9.459437370300293,0.939446747303009,-1.5728771686553955,-1.9082485437393188,3.069650173187256, -3.315692186355591
145,127016633,0.25100446,-0.6556797,-0.36331618,-0.6124398,9.428516387939453,0.8565380573272705,-1.6329481601715088,-1.3174916505813599,0.9262256622314453, -2.9098074436187744
146,127033300,0.2509561,-0.6556221,-0.36383316,-0.61221415,9.358630180358887,0.8560631275177002,-1.4801915884017944,0.853690505027771,-1.7317644357681274, -2.378472089767456
147,127049967,0.250955,-0.65573204,-0.36448222,-0.6117107,9.565443992614746,1.280193567276001,-0.8968737721443176,2.411172866821289,-3.733729362487793, -1.9357821941375732
148,127066634,0.25080317,-0.6558924,-0.36495978,-0.611316,9.965012550354004,1.4218491315841675,-0.836310625076294,-0.07355969399213791,-3.649054765701294, -1.755110502243042
149,127083301,0.2505277,-0.6562181,-0.3651319,-0.6109767,10.066332817077637,1.1802465915679932,-1.2090985774993896,-1.8277733325958252,-3.847001552581787, -0.622414231300354
150,127099968,0.25029418,-0.6564867,-0.36519998,-0.61074317,9.933371543884277,1.0985862016677856,-1.2075281143188477,-2.3779215812683105,-2.8701717853546143, -0.28391677141189575
151,127116635,0.24977478,-0.65645754,-0.36483446,-0.61120534,9.695511817932129,0.926723062992096,-1.4678192138671875,-6.841933727264404,1.5263696908950806, -1.4592068195343018
152,127133302,0.24885581,-0.6562986,-0.36423022,-0.6121106,9.804290771484375,1.215532660484314,-1.325381875038147,-10.2003755569458,3.532421350479126, -3.204329013824463
153,127149969,0.24746093,-0.65627474,-0.36322138,-0.6133001,9.590929985046387,1.2064564228057861,-1.6353483200073242,-15.068245887756348,3.740219831466675, -3.5154995918273926
154,127166636,0.24571373,-0.6565613,-0.36202076,-0.6144048,9.559500694274902,1.0024293661117554,-1.3335402011871338,-17.986013412475586,1.4933693408966064, -3.1876063346862793
155,127183303,0.24456367,-0.6568046,-0.36149153,-0.61491495,9.678269386291504,0.7399386763572693,-1.2329150438308716,-10.870315551757812,-0.6463623642921448, -2.812019109725952
156,127199970,0.24417122,-0.6569041,-0.36181682,-0.6147732,9.594278335571289,1.0025774240493774,-1.2321796417236328,-1.97995126247406,-2.5386409759521484, -2.7551705837249756
157,127216637,0.2440067,-0.6570076,-0.3624777,-0.6143385,9.46017837524414,1.0479350090026855,-1.3229694366455078,1.3846673965454102,-3.8503189086914062, -2.8376822471618652
158,127233304,0.24374644,-0.65734065,-0.36316788,-0.61367756,9.501734733581543,1.1212507486343384,-1.3004330396652222,0.9091036319732666,-6.1705732345581055, -2.3857333660125732
159,127249971,0.24308749,-0.65806884,-0.36350155,-0.61296064,9.69284725189209,1.374290108680725,-0.9959076046943665,-2.6277098655700684,-8.447006225585938, -1.4129250049591064
160,127266638,0.24219365,-0.6590227,-0.3636549,-0.6121981,9.727398872375488,1.4184433221817017,-0.9713335633277893,-5.02131986618042,-9.951214790344238, -0.8928846120834351
161,127283305,0.24131182,-0.6600157,-0.36376628,-0.61140996,9.670016288757324,1.2021751403808594,-1.1035112142562866,-5.046639442443848,-10.142364501953125, -0.5080665946006775
162,127299972,0.24031878,-0.66121686,-0.36374602,-0.6105148,9.843500137329102,1.2902045249938965,-0.9843809604644775,-6.089128017425537,-11.564870834350586, 0.31095755100250244
163,127316639,0.2387386,-0.66310567,-0.36353287,-0.60921156,9.984280586242676,1.8134925365447998,-0.8157854676246643,-9.793041229248047,-17.49479103088379, 1.1419501304626465
164,127333306,0.23631963,-0.66526574,-0.36256862,-0.60837364,9.76233196258545,1.9137214422225952,-1.1845728158950806,-18.258987426757812,-17.397836685180664, 0.991553008556366
165,127349973,0.23367086,-0.6670706,-0.36121824,-0.6082238,9.630239486694336,0.8602522015571594,-1.942160725593567,-22.3685302734375,-12.767895698547363, -0.11400238424539566
166,127366640,0.23152773,-0.66852915,-0.360273,-0.60800266,9.739545822143555,0.6276260018348694,-1.8303799629211426,-17.458755493164062,-10.992104530334473, -0.64766925573349
167,127383307,0.22937706,-0.66971636,-0.35948318,-0.6079787,9.538833618164062,0.8030186891555786,-1.710989236831665,-16.845609664916992,-9.191961288452148, -2.4227850437164307
168,127399974,0.22689298,-0.6708852,-0.35872915,-0.60806763,9.396797180175781,1.1001521348953247,-1.4141942262649536,-18.475069046020508,-9.462408065795898, -4.228842258453369
169,127416641,0.22448711,-0.67199403,-0.35823637,-0.60802656,9.843189239501953,1.0703182220458984,-1.5266499519348145,-16.76384162902832,-10.05444622039795, -5.0308027267456055
170,127433308,0.22274698,-0.6729116,-0.358374,-0.60757047,9.560612678527832,1.371291995048523,-1.5223312377929688,-9.665690422058105,-10.502190589904785, -5.013024806976318
171,127449975,0.22102262,-0.6739312,-0.35849547,-0.60699826,9.325857162475586,1.3332573175430298,-1.9599062204360962,-9.305305480957031,-11.375069618225098, -4.4721856117248535
172,127466642,0.2191248,-0.67521316,-0.3585574,-0.6062246,9.414359092712402,1.5150415897369385,-1.7434378862380981,-10.372654914855957,-13.736234664916992, -3.940697431564331
173,127483309,0.21684875,-0.6767511,-0.35827708,-0.6054933,9.516551971435547,1.6225477457046509,-1.5701225996017456,-14.453141212463379,-15.077171325683594, -3.271873950958252
174,127499976,0.21471256,-0.6780503,-0.35810438,-0.6049031,9.525691986083984,1.0379620790481567,-1.9095443487167358,-13.051902770996094,-13.208308219909668, -4.018496990203857
175,127516643,0.2128603,-0.67891484,-0.35800323,-0.6046478,9.531514167785645,0.8826732635498047,-1.6568410396575928,-11.634347915649414,-9.238778114318848, -4.747651100158691
176,127533310,0.21071748,-0.6795508,-0.35772514,-0.60484844,9.201616287231445,0.8831400871276855,-1.9225789308547974,-14.51132583618164,-6.622541904449463, -6.386289596557617
177,127549977,0.20840596,-0.68039906,-0.35772508,-0.6046957,9.420987129211426,1.378564476966858,-1.6177810430526733,-13.793683052062988,-9.997147560119629, -7.33677864074707
178,127566644,0.206124,-0.6813165,-0.35803014,-0.6042643,9.519523620605469,1.5815789699554443,-1.746777057647705,-11.581037521362305,-11.928115844726562, -8.11097526550293
179,127583311,0.20442288,-0.68221515,-0.35885394,-0.6033389,9.406937599182129,1.489335298538208,-2.1969919204711914,-5.701046466827393,-13.515692710876465, -7.413692474365234
180,127599978,0.20287313,-0.68335694,-0.35962966,-0.6021068,9.23588752746582,1.4536675214767456,-2.011246919631958,-4.652308464050293,-15.482853889465332, -5.54646110534668
181,127616645,0.20099737,-0.68464035,-0.36015144,-0.60096467,9.285869598388672,1.251044511795044,-2.103322982788086,-7.6893134117126465,-16.096195220947266, -5.464834690093994
182,127633312,0.19871743,-0.6862407,-0.36028785,-0.599815,9.649916648864746,1.6120164394378662,-2.0001039505004883,-11.493514060974121,-17.87989616394043, -4.556404113769531
183,127649979,0.19659583,-0.68778735,-0.360534,-0.5985933,9.489978790283203,1.606017827987671,-2.0437803268432617,-10.208547592163086,-17.787498474121094, -4.409297943115234
184,127666646,0.19541676,-0.68901515,-0.36149788,-0.5969839,9.475096702575684,1.6471277475357056,-2.094653606414795,-1.3181333541870117,-16.92770767211914, -4.2001543045043945
185,127683313,0.19468126,-0.6901125,-0.3625844,-0.59529537,9.543059349060059,1.8036366701126099,-2.2342514991760254,1.6469554901123047,-15.831799507141113, -3.164515733718872
186,127699980,0.19397946,-0.6912359,-0.36344156,-0.59369624,9.60459041595459,1.6942740678787231,-2.2886502742767334,0.6264039278030396,-15.117012023925781, -1.9778783321380615
187,127716647,0.19291191,-0.69266444,-0.3637156,-0.59220946,9.321240425109863,1.8869717121124268,-2.2636191844940186,-4.134635925292969,-15.95176887512207, -0.08739060163497925
188,127733314,0.19131997,-0.6945287,-0.3631487,-0.5908888,9.310154914855957,2.0224883556365967,-2.2555298805236816,-11.114340782165527,-17.13793182373047, 2.691572427749634
189,127749981,0.18960425,-0.69655615,-0.36197665,-0.58977336,9.399988174438477,1.715368628501892,-2.367269277572632,-14.900012016296387,-16.334566116333008, 5.250606536865234
190,127766648,0.18773705,-0.69854426,-0.36051,-0.5889172,9.339798927307129,1.8243931531906128,-2.3714420795440674,-17.49176597595215,-14.934014320373535, 5.643442630767822
191,127783315,0.18622829,-0.6998211,-0.35941258,-0.588551,9.43194580078125,1.6058025360107422,-2.6705894470214844,-14.490936279296875,-9.271012306213379, 2.9245057106018066
192,127799982,0.18465945,-0.70095986,-0.35819533,-0.5884321,9.45280933380127,1.7371457815170288,-2.539675235748291,-15.73034954071045,-7.505910873413086, 2.610711097717285
193,127816649,0.18335676,-0.7018827,-0.35723054,-0.5883261,9.459281921386719,1.213175892829895,-2.5753467082977295,-13.2532377243042,-6.239399433135986, 1.950581669807434
194,127833316,0.18288161,-0.702522,-0.3570601,-0.58781415,9.222505569458008,1.1617919206619263,-2.773301601409912,-4.68740701675415,-6.00938081741333, 1.2588835954666138
195,127849983,0.18267702,-0.7031627,-0.3571933,-0.5870302,9.236235618591309,1.2830981016159058,-2.890728712081909,-1.4478347301483154,-7.016881465911865, 1.2002687454223633
196,127866650,0.18260737,-0.70388246,-0.35754636,-0.58597344,8.858367919921875,1.4196778535842896,-2.8393442630767822,0.5885736346244812,-8.584059715270996, 1.2235381603240967
197,127883317,0.18258855,-0.7047216,-0.35793486,-0.5847321,8.93509578704834,2.0813732147216797,-2.39630126953125,1.3244011402130127,-9.842720985412598, 1.7694604396820068
198,127899984,0.18244827,-0.7058128,-0.3579585,-0.5834441,9.347038269042969,2.047926425933838,-2.4587485790252686,-1.005234956741333,-10.934246063232422, 3.7829911708831787
199,127916651,0.18269898,-0.7068134,-0.35807338,-0.58208203,9.2763671875,1.4747796058654785,-2.5653436183929443,1.690061092376709,-10.062285423278809, 4.773959159851074
200,127933318,0.18323424,-0.7078524,-0.35840613,-0.58044416,9.341517448425293,1.5036544799804688,-2.322190523147583,4.4745988845825195,-11.141607284545898, 5.321893215179443
201,127949985,0.18345037,-0.7090298,-0.35847405,-0.57889485,9.725083351135254,1.3855316638946533,-1.804726004600525,1.4286577701568604,-11.733708381652832, 5.581310749053955
202,127966652,0.18375504,-0.71045,-0.35856193,-0.5769995,9.89439582824707,1.3821606636047363,-1.9853070974349976,2.4672799110412598,-14.241172790527344, 6.873359680175781
203,127983319,0.18405236,-0.71193254,-0.3586048,-0.57504725,9.49815559387207,1.2928085327148438,-2.3949482440948486,2.3954999446868896,-14.753196716308594, 7.263914585113525
204,127999986,0.18507455,-0.7131182,-0.35930476,-0.57280886,9.30992317199707,1.2456722259521484,-2.92221736907959,9.532039642333984,-14.053101539611816, 6.5647406578063965
205,128016653,0.18641518,-0.7140794,-0.3603261,-0.5705306,9.24875259399414,1.3074102401733398,-3.0169105529785156,12.784651756286621,-12.965907096862793, 5.720917224884033
206,128033320,0.18756792,-0.71509194,-0.3612398,-0.5683024,9.312324523925781,1.3077820539474487,-2.994276285171509,11.230291366577148,-13.234479904174805, 5.580046653747559
207,128049987,0.18834074,-0.7163463,-0.36176598,-0.5661283,9.369384765625,1.450854778289795,-2.904792547225952,7.383450984954834,-14.347519874572754, 6.536848068237305
208,128066654,0.18875311,-0.71774334,-0.36201513,-0.56405854,9.14752197265625,1.3079302310943604,-2.8775153160095215,4.050120830535889,-14.92765998840332, 6.738765239715576
209,128083321,0.18983455,-0.71895915,-0.36273503,-0.5616796,9.20297908782959,0.9640939831733704,-2.8108158111572266,10.185036659240723,-14.691052436828613, 6.964376926422119
210,128099988,0.19124484,-0.72013336,-0.3637212,-0.5590532,9.165606498718262,0.9883430004119873,-2.708571195602417,13.527976989746094,-15.27968978881836, 7.119337558746338
211,128116655,0.19288619,-0.7214586,-0.36469945,-0.55613554,9.642763137817383,0.6871907114982605,-2.6176483631134033,15.158941268920898,-16.72284698486328, 8.80285358428955
212,128133322,0.19565853,-0.7228528,-0.36615533,-0.5523875,9.808191299438477,-0.21239560842514038,-2.5936310291290283,24.561500549316406,-18.92694854736328, 12.016390800476074
213,128149989,0.1996827,-0.72402406,-0.36881313,-0.5476249,9.462102890014648,1.2596909999847412,-2.618248462677002,38.09046173095703,-21.626338958740234, 11.569293975830078
214,128166656,0.20218869,-0.7256975,-0.37078327,-0.5431416,8.96253776550293,3.115811824798584,-2.8606512546539307,26.634977340698242,-25.044797897338867, 10.154454231262207
215,128183323,0.20332558,-0.7280932,-0.37116095,-0.53923887,9.372507095336914,1.6090540885925293,-3.4402220249176025,11.376914024353027,-26.129262924194336, 14.142431259155273
216,128199990,0.20508882,-0.7309439,-0.3711442,-0.53470707,9.597596168518066,1.1609342098236084,-3.2434439659118652,13.996150970458984,-28.806428909301758, 20.52869987487793
217,128216657,0.20703001,-0.73423094,-0.37075284,-0.52970374,9.699434280395508,1.5014903545379639,-2.8964502811431885,14.137680053710938,-31.79620361328125, 24.850671768188477
218,128233324,0.20913872,-0.7378684,-0.3702304,-0.52415717,9.529325485229492,1.6346334218978882,-3.021743059158325,15.357398986816406,-35.228511810302734, 27.846431732177734
219,128249991,0.21170804,-0.74193513,-0.36993128,-0.51755476,9.65733528137207,1.5467060804367065,-2.9428555965423584,20.66327667236328,-41.290771484375, 31.005592346191406
220,128266658,0.21479169,-0.74657434,-0.3698948,-0.50957763,10.529504776000977,1.6694817543029785,-2.928212881088257,26.879810333251953,-49.442813873291016, 35.01664352416992
221,128283325,0.21783188,-0.7522148,-0.36929017,-0.50034684,12.0345458984375,2.4059207439422607,-2.5640711784362793,27.580659866333008,-58.64046096801758, 41.73659896850586
222,128299992,0.22008419,-0.7586763,-0.36839464,-0.49016204,12.183592796325684,1.775745153427124,-2.5684611797332764,23.736919403076172,-68.07960510253906, 44.126304626464844
223,128316659,0.22315998,-0.76463795,-0.36892974,-0.4789773,12.40017032623291,0.20074984431266785,-2.1606991291046143,36.17045593261719,-71.81792449951172, 39.74876403808594
224,128333326,0.22747082,-0.77030426,-0.37084547,-0.4662211,12.781489372253418,-0.293888658285141,-2.4929277896881104,51.65054702758789,-78.25311279296875, 38.2221565246582
225,128349993,0.23100774,-0.77710503,-0.37190387,-0.45214063,14.095036506652832,0.3158325254917145,-3.007453203201294,46.39484786987305,-89.70059967041016, 45.239688873291016
226,128366660,0.23168744,-0.7861116,-0.37051636,-0.43711242,16.109455108642578,1.1142911911010742,-2.2709121704101562,22.445941925048828,-105.22817993164062, 56.60380172729492
227,128383327,0.22893034,-0.7968293,-0.36653355,-0.42226464,17.524877548217773,1.4123610258102417,-0.5196081399917603,-7.097262859344482,-114.29710388183594, 64.44842529296875
228,128399994,0.22532016,-0.80878156,-0.36123496,-0.40572447,16.602386474609375,1.6747455596923828,-0.16916216909885406,-13.251416206359863,-127.64055633544922, 75.0513687133789
229,128416661,0.22020982,-0.8219988,-0.3554931,-0.38658792,14.5115327835083,2.2798166275024414,-2.466946601867676,-18.3214111328125,-149.06549072265625, 80.60350036621094
230,128433328,0.21329904,-0.834631,-0.34948376,-0.36845055,12.884820938110352,2.9122273921966553,-2.326878070831299,-30.71879005432129,-146.14828491210938, 74.50627899169922
231,128449995,0.20888591,-0.84448695,-0.34463805,-0.3527509,10.584149360656738,1.7283061742782593,-1.6988245248794556,-15.151092529296875,-121.0959243774414, 64.045166015625
232,128466662,0.20907252,-0.85091287,-0.3420873,-0.3394294,8.44746208190918,2.2507245540618896,-2.1641526222229004,16.45306396484375,-91.59600067138672, 50.434425354003906
233,128483329,0.2097847,-0.8549574,-0.3400364,-0.33077765,8.57558822631836,3.2702972888946533,0.7947461009025574,13.196805953979492,-58.35352325439453, 36.54618453979492
234,128499996,0.21556313,-0.8552383,-0.33996984,-0.32637486,8.632723808288574,4.035995960235596,3.6256189346313477,43.065277099609375,-16.090810775756836, 21.65532875061035
235,128516663,0.2186007,-0.8537496,-0.33934414,-0.32889354,7.255605697631836,4.1921067237854,3.0164780616760254,12.224631309509277,22.657169342041016, 4.61213493347168
236,128533330,0.22012304,-0.850539,-0.3376938,-0.33777544,8.07455825805664,2.36332106590271,2.3239612579345703,-11.157405853271484,61.626434326171875, -6.191854476928711
237,128549997,0.22259885,-0.844871,-0.33677107,-0.35103852,6.954499244689941,1.3956605195999146,0.9845309853553772,-10.313675880432129,93.78606414794922, -20.44424057006836
238,128566664,0.22652978,-0.8367332,-0.33631316,-0.36804247,7.493086338043213,0.8259885907173157,-0.025601297616958618,-5.613641738891602,123.94783020019531, -30.987995147705078
239,128583331,0.23104756,-0.8263456,-0.33637044,-0.38810417,7.799097537994385,1.049770474433899,-1.0435277223587036,-4.504970073699951,147.6317596435547, -42.355186462402344
240,128599998,0.23352076,-0.8144864,-0.33608162,-0.41125318,8.00601863861084,1.4532983303070068,-1.7760316133499146,-21.842336654663086,164.8058624267578, -54.07749557495117
241,128616665,0.23279555,-0.8014216,-0.33463714,-0.4376618,8.481873512268066,1.116675853729248,-2.3720383644104004,-48.601722717285156,180.84788513183594, -64.60891723632812
242,128633332,0.23062989,-0.78673244,-0.33235526,-0.46626413,8.938706398010254,0.32185670733451843,-3.0216827392578125,-60.80754852294922,195.7351837158203, -71.92912292480469
243,128649999,0.22933385,-0.769967,-0.3302783,-0.49545267,9.462977409362793,-0.2616129219532013,-3.506807327270508,-52.212825775146484,207.16542053222656, -76.487060546875
244,128666666,0.2298168,-0.75096637,-0.3288928,-0.524465,9.8736572265625,-0.5663902759552002,-3.609348773956299,-35.323795318603516,216.8523712158203, -79.24125671386719
245,128683333,0.2313053,-0.72988594,-0.32802892,-0.55331856,10.314698219299316,-0.22049939632415771,-3.498094081878662,-23.724895477294922,225.12608337402344, -82.85083770751953
246,128700000,0.23244011,-0.706806,-0.32735476,-0.58243954,10.757166862487793,0.5995526909828186,-3.4362120628356934,-26.242916107177734,232.97930908203125, -88.84963989257812
247,128716667,0.23197484,-0.6821946,-0.3254942,-0.6122514,11.370569229125977,0.7210215330123901,-3.3538923263549805,-37.88997268676758,240.85484313964844, -94.05965423583984
248,128733334,0.23071899,-0.6558556,-0.32271367,-0.64224464,12.21604061126709,-0.06822814047336578,-3.2469000816345215,-43.13673782348633,248.78746032714844, -97.26334381103516
249,128750001,0.23065469,-0.62753016,-0.32039616,-0.67108196,13.011034965515137,-1.3828169107437134,-3.833082675933838,-30.020061492919922,254.39283752441406, -96.74246978759766
250,128766668,0.23364858,-0.5971874,-0.3210516,-0.69692296,13.585522651672363,-1.9233925342559814,-4.873538017272949,6.678267955780029,252.99818420410156, -95.27690124511719
251,128783335,0.2378268,-0.56615126,-0.32366964,-0.7198259,13.647028923034668,-1.3660374879837036,-5.329089164733887,28.52587127685547,244.01083374023438, -94.6104736328125
252,128800002,0.24060448,-0.5371277,-0.32558516,-0.7399985,13.049572944641113,-0.6536734104156494,-5.8467841148376465,22.35181999206543,221.79168701171875, -89.99059295654297
253,128816669,0.2405568,-0.51230973,-0.32528198,-0.7575373,11.69316577911377,-0.4248763620853424,-7.465879917144775,-0.4768771529197693,188.3866424560547, -82.5263671875
254,128833336,0.23672567,-0.4934312,-0.3211215,-0.77289563,9.83376407623291,-1.6924196481704712,-9.816048622131348,-38.90760803222656,148.12771606445312, -71.90193939208984
255,128850003,0.23165251,-0.48365483,-0.31494725,-0.7830859,7.920394420623779,-5.242188453674316,-12.15535831451416,-57.303035736083984,83.27356719970703, -43.3632926940918
256,128866670,0.22973293,-0.48352575,-0.31346935,-0.7843231,6.778258323669434,-6.970110893249512,-13.345158576965332,-17.562828063964844,1.49508535861969, -7.1637396812438965
257,128883337,0.23189144,-0.4908426,-0.31671318,-0.7778129,7.9132914543151855,-5.138193607330322,-11.57403564453125,26.346149444580078,-62.4725227355957, 27.064044952392578
258,128900004,0.23711994,-0.50214374,-0.32473004,-0.7656213,8.322754859924316,0.23459051549434662,-7.977021217346191,68.19337463378906,-103.3387451171875, 44.817283630371094
259,128916671,0.23883748,-0.51402485,-0.3312692,-0.7543181,13.819235801696777,11.407480239868164,7.580941200256348,45.2680549621582,-108.3543930053711, 31.188928604125977
260,128933338,0.23040344,-0.5281811,-0.32688087,-0.749058,14.686617851257324,4.463321208953857,7.5558762550354,-64.83782196044922,-104.11441802978516, 12.713486671447754
261,128950005,0.22656168,-0.5446142,-0.3255309,-0.7389824,9.955322265625,-0.9581915736198425,-5.031009197235107,-25.264080047607422,-127.97266387939453, 38.10747528076172
262,128966672,0.22378641,-0.5618125,-0.324614,-0.7272636,10.936628341674805,-0.7442898750305176,-3.8996593952178955,-16.624208450317383,-136.02264404296875, 46.04446792602539
263,128983339,0.22087473,-0.5767296,-0.32344127,-0.7169262,10.491348266601562,-0.6855252385139465,-0.9281439781188965,-18.03470230102539,-118.96127319335938, 39.009117126464844
264,129000006,0.22058657,-0.5881696,-0.32888368,-0.7051481,9.33016586303711,0.7634007334709167,-6.313789367675781,33.451847076416016,-111.65924072265625, 20.052095413208008
265,129016673,0.21984495,-0.599944,-0.3312846,-0.69425213,13.484992980957031,1.2347772121429443,-4.536501407623291,14.308059692382812,-105.8489761352539, 29.520715713500977
266,129033340,0.21902001,-0.61097,-0.33164096,-0.68466073,11.829187393188477,-0.2994408905506134,-2.533720016479492,2.3230061531066895,-93.78753662109375, 33.824222564697266
267,129050007,0.21844988,-0.6204652,-0.33332473,-0.6754237,11.522727966308594,0.05357611924409866,-1.815999984741211,11.118520736694336,-86.40557861328125, 25.329486846923828
268,129066674,0.21487904,-0.629888,-0.33254704,-0.6681921,10.08110523223877,2.19038987159729,-0.9522040486335754,-17.61899757385254,-80.62906646728516, 18.648954391479492
269,129083341,0.2071648,-0.6395948,-0.32804504,-0.6636173,9.98456859588623,1.5086686611175537,-0.7724214196205139,-59.17973709106445,-74.37416076660156, 12.510781288146973
270,129100008,0.20146419,-0.64749074,-0.32568893,-0.6588588,10.767297744750977,0.016418088227510452,-1.779126763343811,-37.54877853393555,-65.42269134521484, 8.46251106262207
271,129116675,0.19907905,-0.65353054,-0.3264015,-0.65324396,9.870335578918457,1.363192081451416,-2.2514657974243164,-4.416616916656494,-57.61628723144531, 6.799759864807129
272,129133342,0.19791153,-0.65832597,-0.32775435,-0.6480857,9.669659614562988,1.9707822799682617,-1.9110232591629028,4.5928497314453125,-48.075042724609375, 5.9726433753967285
273,129150009,0.19576788,-0.6629576,-0.3276415,-0.6440602,10.16916561126709,2.315173625946045,-1.841425895690918,-8.694366455078125,-42.396690368652344, 6.370171070098877
274,129166676,0.19221286,-0.6677913,-0.32552227,-0.6412055,10.384065628051758,1.3707314729690552,-1.662412166595459,-26.925128936767578,-38.41425704956055, 8.185736656188965
275,129183343,0.18912745,-0.6722677,-0.32355082,-0.6384372,10.34233283996582,0.15155577659606934,-1.522756814956665,-23.84285545349121,-35.57767868041992, 8.670808792114258
276,129200010,0.18699042,-0.67617786,-0.32265738,-0.6353823,9.713296890258789,0.45940425992012024,-1.4467889070510864,-13.361095428466797,-33.71250534057617, 6.924919605255127
277,129216677,0.1852295,-0.6795205,-0.32260263,-0.63235235,9.522420883178711,0.5663018226623535,-1.942800521850586,-7.281486988067627,-31.369279861450195, 3.3503901958465576
278,129233344,0.18423276,-0.6823793,-0.32330704,-0.62919754,9.576786994934082,0.9653464555740356,-1.8564833402633667,0.47307437658309937,-29.1148624420166, 2.1873886585235596
279,129250011,0.18386987,-0.6849242,-0.32444426,-0.62594473,9.763230323791504,1.3622699975967407,-1.7010732889175415,5.928440570831299,-27.35707664489746, 2.312007427215576
280,129266678,0.18374698,-0.68736833,-0.32566997,-0.6226564,9.406449317932129,1.6670054197311401,-1.8230692148208618,7.643050193786621,-26.679338455200195, 2.7481160163879395
281,129283345,0.18348734,-0.6899207,-0.32663247,-0.6193975,9.185461044311523,1.4834357500076294,-1.9711071252822876,5.669917106628418,-26.997262954711914, 3.6297836303710938
282,129300012,0.1832391,-0.6926313,-0.3273547,-0.6160555,9.452363014221191,1.4186010360717773,-1.8401470184326172,4.69448184967041,-27.772966384887695, 5.300838470458984
283,129316679,0.18337803,-0.69538784,-0.32822227,-0.6124365,9.531841278076172,1.2583385705947876,-1.8821285963058472,7.731224536895752,-28.66185760498047, 6.727780342102051
284,129333346,0.18406746,-0.6981695,-0.32940775,-0.60841525,9.39984130859375,1.2857027053833008,-2.0937352180480957,12.593012809753418,-29.927621841430664, 8.115345001220703
285,129350013,0.18492754,-0.70107806,-0.33047315,-0.60421777,9.422496795654297,1.2656073570251465,-2.335564613342285,13.165642738342285,-30.84864616394043, 9.948278427124023
286,129366680,0.18641004,-0.7040149,-0.33169174,-0.59966254,9.62496280670166,1.0706148147583008,-2.2748167514801025,17.598146438598633,-31.554777145385742, 12.348733901977539
287,129383347,0.18810046,-0.70692015,-0.33286482,-0.5950489,9.801864624023438,1.0340327024459839,-2.457226514816284,18.609281539916992,-31.264511108398438, 13.458283424377441
288,129400014,0.19049634,-0.70983046,-0.33431634,-0.58998674,9.851983070373535,0.39118340611457825,-2.533381938934326,24.216768264770508,-32.30010986328125, 15.612395286560059
289,129416681,0.19391829,-0.7126738,-0.33639133,-0.5842368,9.91116714477539,0.44933462142944336,-2.437904119491577,33.43715286254883,-33.930580139160156, 17.49101448059082
290,129433348,0.19633031,-0.71590376,-0.33797443,-0.5785409,9.535260200500488,1.9286929368972778,-2.218885660171509,25.88802146911621,-36.98676681518555, 16.684202194213867
291,129450015,0.19764246,-0.7193838,-0.33918935,-0.57304054,9.414175987243652,0.972359299659729,-2.6822116374969482,18.243104934692383,-39.16252136230469, 14.496027946472168
292,129466682,0.19954588,-0.7231023,-0.34062007,-0.566818,9.383991241455078,0.8620182275772095,-2.7938976287841797,23.393993377685547,-42.65687942504883, 17.327299118041992
293,129483349,0.20107254,-0.7276272,-0.34134787,-0.56000924,8.90792179107666,1.071516752243042,-2.611314058303833,19.061920166015625,-48.694244384765625, 22.07571029663086
294,129500016,0.20189656,-0.733137,-0.34085712,-0.55277896,9.493514060974121,1.9627413749694824,-2.5521152019500732,10.498733520507812,-54.61763381958008, 28.39393424987793
295,129516683,0.20240347,-0.73939234,-0.3392729,-0.5451844,9.809409141540527,2.05633807182312,-3.0390055179595947,4.584319591522217,-58.57221221923828, 35.00166702270508
296,129533350,0.20438005,-0.74576265,-0.33814526,-0.5364001,10.003525733947754,1.3005861043930054,-2.9438107013702393,16.402210235595703,-62.30600357055664, 40.15675735473633
297,129550017,0.20892386,-0.75174004,-0.33859482,-0.5259197,10.48779582977295,0.6248900294303894,-3.069354295730591,39.89207458496094,-65.85115051269531, 43.03337860107422
298,129566684,0.21454719,-0.75753784,-0.34012002,-0.514222,11.373608589172363,1.6900221109390259,-2.5091500282287598,52.46262741088867,-70.57292175292969, 42.7197265625
299,129583351,0.21957543,-0.7642096,-0.3406953,-0.50169414,12.50805950164795,1.1200560331344604,-2.997662305831909,46.67215347290039,-78.0364761352539, 48.86213302612305
300,129600018,0.22240326,-0.7727101,-0.3389058,-0.48846582,13.529658317565918,1.1318795680999756,-2.5514414310455322,25.844472885131836,-89.66253662109375, 59.05942916870117
301,129616685,0.22357163,-0.78221244,-0.33635116,-0.47437027,14.434820175170898,-0.46180641651153564,-2.0089337825775146,14.956847190856934,-100.39535522460938, 61.23544692993164
302,129633352,0.22489579,-0.7915354,-0.33363533,-0.45997953,17.44646453857422,-0.02195131406188011,-0.8383442163467407,16.225191116333008,-100.8610610961914, 62.65433120727539
303,129650019,0.22444856,-0.802041,-0.32863525,-0.44536757,18.927963256835938,1.5133252143859863,0.41861483454704285,-1.9467555284500122,-106.43722534179688, 72.54743957519531
304,129666686,0.22105587,-0.81484324,-0.32219586,-0.4281994,19.277864456176758,3.172872543334961,0.9982984066009521,-20.375703811645508,-132.1178741455078, 80.6460189819336
305,129683353,0.21734732,-0.82921594,-0.3163502,-0.40630522,19.284683227539062,1.1072057485580444,-2.9429097175598145,-12.292267799377441,-164.94342041015625, 87.10227966308594
306,129700020,0.21810918,-0.84271157,-0.31133673,-0.38122848,19.435039520263672,5.307662010192871,1.2364976406097412,23.763532638549805,-172.22918701171875, 97.72251892089844
307,129716687,0.21743685,-0.8539789,-0.30625877,-0.36006504,13.238343238830566,6.511702537536621,2.3881912231445312,10.277230262756348,-146.78619384765625, 83.76071166992188
308,129733354,0.21730426,-0.862022,-0.30312717,-0.34323642,10.221514701843262,5.187292098999023,0.28000137209892273,13.992528915405273,-115.18482971191406, 60.4550895690918
309,129750021,0.21672286,-0.86686915,-0.301107,-0.33302236,9.496962547302246,2.0611443519592285,1.3036094903945923,4.972414493560791,-71.05476379394531, 36.30001449584961
310,129766688,0.22706123,-0.8656311,-0.30393302,-0.3267273,8.881864547729492,2.549062967300415,4.942412853240967,82.1098403930664,-18.400785446166992, 13.997305870056152
311,129783355,0.23880531,-0.86116683,-0.30813637,-0.3262142,6.336902618408203,3.8872663974761963,2.8996171951293945,86.523681640625,24.00944709777832, -6.78238582611084
312,129800022,0.24611892,-0.8552764,-0.31131834,-0.33317977,6.887696266174316,5.262217998504639,2.6080379486083984,44.50776290893555,63.77788162231445, -25.944576263427734
313,129816689,0.2459797,-0.8486888,-0.31240258,-0.3487492,5.9365973472595215,3.988612174987793,1.6019715070724487,-21.344131469726562,103.56198120117188, -46.7059440612793
314,129833356,0.24452357,-0.84022844,-0.31231546,-0.3697074,6.438374996185303,1.89154052734375,0.16083279252052307,-40.239864349365234,138.65936279296875, -56.156978607177734
315,129850023,0.24399976,-0.82915,-0.3123368,-0.39423397,6.4552435874938965,1.5870686769485474,-1.0443830490112305,-37.84439468383789,167.76564025878906, -66.04289245605469
316,129866690,0.24298438,-0.8159102,-0.31214625,-0.42168003,7.130096912384033,1.5045077800750732,-1.984370470046997,-43.87311553955078,189.5948486328125, -75.71556091308594
317,129883357,0.23985325,-0.80087984,-0.31099206,-0.45204645,8.084698677062988,1.1867353916168213,-3.08805251121521,-61.822837829589844,208.26992797851562, -85.17710876464844
318,129900024,0.23503274,-0.78405684,-0.30862528,-0.48452565,9.120429039001465,0.14120882749557495,-4.069434642791748,-76.4676284790039,223.89854431152344, -91.08345794677734
319,129916691,0.23201366,-0.764725,-0.3067718,-0.5169686,9.832433700561523,-0.8660050630569458,-4.861008644104004,-60.9239501953125,235.08897399902344, -93.1336669921875
320,129933358,0.23233429,-0.7423818,-0.30730516,-0.5481366,9.551225662231445,-0.7347739934921265,-5.177473068237305,-27.394065856933594,242.3667755126953, -98.15415954589844
321,129950025,0.23445241,-0.71717197,-0.31036556,-0.5782474,10.025871276855469,-0.11636015772819519,-5.246708393096924,-1.888911247253418,247.58644104003906, -108.66899108886719
322,129966692,0.23577489,-0.6895518,-0.31465518,-0.6082111,11.081258773803711,0.7604026198387146,-5.155067443847656,3.2644217014312744,252.82049560546875, -122.81893157958984
323,129983359,0.23377173,-0.66034544,-0.31812352,-0.6388208,11.929129600524902,1.1020233631134033,-5.119039058685303,-14.777871131896973,256.7080383300781, -137.32765197753906
324,130000026,0.22741093,-0.63013464,-0.31945106,-0.6701982,12.50340747833252,1.1778491735458374,-4.813953876495361,-44.04993438720703,258.5693054199219, -150.1974639892578
325,130016693,0.2170916,-0.6001031,-0.31558618,-0.7022487,13.179743766784668,-1.1884181499481201,-5.645986557006836,-86.91178131103516,260.1356201171875, -146.6203155517578
326,130033360,0.2123058,-0.5680788,-0.31550774,-0.7298409,15.139320373535156,-1.8947491645812988,-6.768269062042236,-33.145973205566406,257.76416015625, -133.22415161132812
327,130050027,0.2112987,-0.5359281,-0.31815162,-0.7529367,15.247605323791504,-3.5945167541503906,-7.4435601234436035,5.206789970397949,245.1199951171875, -118.6450424194336
328,130066694,0.21485513,-0.5053437,-0.32532716,-0.76982296,12.86180305480957,-4.658905982971191,-7.7931413650512695,56.786842346191406,217.59359741210938, -99.32232666015625
329,130083361,0.21895109,-0.47834644,-0.33417714,-0.7820301,11.878107070922852,-3.0719704627990723,-9.116207122802734,72.68115997314453,181.14620971679688, -87.4069595336914
330,130100028,0.21948582,-0.46033683,-0.3411614,-0.789636,8.623560905456543,-2.664642572402954,-11.94501781463623,47.95621871948242,112.37886810302734, -72.88658905029297
331,130116695,0.21649866,-0.45546994,-0.3475755,-0.7904853,5.8767781257629395,-4.213930606842041,-14.000550270080566,29.702957153320312,12.327178001403809, -49.21590042114258
332,130133362,0.21218741,-0.46283406,-0.35054776,-0.78605187,7.882964134216309,-5.0810956954956055,-11.604656219482422,1.2417564392089844,-68.6365737915039, -8.582741737365723
333,130150029,0.20948154,-0.47759795,-0.350564,-0.77789646,10.92085075378418,-6.189345359802246,-8.120970726013184,-11.469091415405273,-112.21161651611328, 32.7194938659668
334,130166696,0.2114413,-0.49349573,-0.35300213,-0.76625335,11.935128211975098,-0.28529611229896545,1.0712203979492188,23.572799682617188,-121.91064453125, 57.418540954589844
335,130183363,0.20739889,-0.5061951,-0.34871632,-0.7610187,15.496742248535156,13.32494068145752,16.551837921142578,-43.1184196472168,-88.10443878173828, 31.51247787475586
336,130200030,0.19333526,-0.52233356,-0.33290124,-0.76089823,10.87867546081543,-1.7418566942214966,0.4583311676979065,-155.48350524902344,-95.99108123779297, 20.23565673828125
337,130216697,0.18902014,-0.54149556,-0.32772547,-0.7507663,13.893351554870605,-5.369452953338623,-10.125470161437988,-45.902671813964844,-139.58323669433594, 53.23954391479492
338,130233364,0.18799739,-0.5591947,-0.3267336,-0.738379,12.933171272277832,0.3237261474132538,0.8935325145721436,-5.078472137451172,-138.36302185058594, 54.23695755004883
339,130250031,0.18470606,-0.57313097,-0.32678616,-0.7284337,8.547361373901367,-1.6742005348205566,-3.4036664962768555,-9.12133502960205,-116.31690979003906, 27.081298828125
340,130266698,0.18739374,-0.5834821,-0.33400494,-0.71615165,10.814665794372559,0.2844206690788269,-5.630251407623291,60.12675094604492,-103.2197036743164, 23.67877769470215
341,130283365,0.19151554,-0.59278655,-0.34068492,-0.70417315,11.359879493713379,2.8483734130859375,-2.8310327529907227,63.86550521850586,-92.82970428466797, 30.09055519104004
342,130300032,0.19208123,-0.6024064,-0.3423023,-0.6950113,12.575150489807129,1.778050184249878,-1.54335355758667,17.84069061279297,-84.5287094116211, 30.541160583496094
343,130316699,0.19171889,-0.61169153,-0.34267172,-0.6867704,11.200640678405762,1.678676724433899,-1.606335997581482,6.305232048034668,-79.6504898071289, 29.270891189575195
344,130333366,0.18772143,-0.6212741,-0.3396668,-0.68073916,9.470719337463379,1.7071995735168457,-1.0640391111373901,-30.517240524291992,-75.87705993652344, 24.090688705444336
345,130350033,0.1839059,-0.62964636,-0.33712408,-0.6753307,10.806832313537598,-0.29800015687942505,-1.4186419248580933,-27.469558715820312,-67.72590637207031, 19.34800910949707
346,130366700,0.18338273,-0.6362752,-0.33828914,-0.6686444,10.954485893249512,0.7028037309646606,-1.7969967126846313,9.16289234161377,-62.22291564941406, 16.14875602722168
347,130383367,0.18363371,-0.6420348,-0.3397867,-0.6622802,10.215616226196289,1.834423542022705,-2.475574016571045,14.422721862792969,-55.439849853515625, 15.81979751586914
348,130400034,0.18440017,-0.64679956,-0.34098572,-0.65679187,10.122557640075684,1.502328872680664,-2.381998062133789,14.546759605407715,-45.460514068603516, 16.058576583862305
349,130416701,0.18610105,-0.6506206,-0.34282246,-0.6515613,10.00171184539795,1.9520803689956665,-1.645086407661438,22.17239761352539,-38.67013168334961, 14.903355598449707
350,130433368,0.18633203,-0.654653,-0.34317628,-0.6472557,9.691706657409668,2.4165563583374023,-1.201313853263855,6.504631519317627,-37.05296325683594, 14.271714210510254
351,130450035,0.185004,-0.6591433,-0.34201354,-0.6436851,9.6868896484375,2.1644976139068604,-1.3491450548171997,-9.579680442810059,-37.52684783935547, 14.309868812561035
352,130466702,0.18319857,-0.66374004,-0.3403167,-0.64036876,9.578672409057617,1.6485426425933838,-1.1661940813064575,-14.838149070739746,-37.29564666748047, 14.554862022399902
353,130483369,0.1818503,-0.6678769,-0.33945197,-0.6369014,9.275747299194336,1.3257607221603394,-1.458143949508667,-8.153999328613281,-35.94745635986328, 11.891058921813965
354,130500036,0.18211697,-0.67127144,-0.3403456,-0.6327662,8.993729591369629,1.1467441320419312,-1.4439173936843872,9.448638916015625,-34.199462890625, 9.993051528930664
355,130516703,0.18356197,-0.6743097,-0.34229207,-0.6280507,9.33966064453125,1.8293046951293945,-1.3573024272918701,21.271862030029297,-33.89697265625, 10.1526460647583
356,130533370,0.18482366,-0.677611,-0.34374216,-0.62331784,9.51438045501709,2.1186344623565674,-1.3516277074813843,17.988834381103516,-34.92822265625, 12.307597160339355
357,130550037,0.18560173,-0.68144757,-0.3445459,-0.6184411,9.316251754760742,2.2602710723876953,-1.3117027282714844,12.628620147705078,-38.22477340698242, 14.700983047485352
358,130566704,0.18583454,-0.6855186,-0.34487036,-0.61367273,9.016550064086914,1.924989938735962,-2.205286979675293,7.483573913574219,-39.40552520751953, 15.054787635803223
359,130583371,0.18653035,-0.68969744,-0.34519383,-0.60857654,9.31340217590332,1.5744376182556152,-2.2938644886016846,10.304274559020996,-40.31340789794922, 17.69648551940918
360,130600038,0.18748203,-0.69397086,-0.34533358,-0.60332394,9.643893241882324,1.5178155899047852,-2.297128438949585,11.001627922058105,-40.61777114868164, 20.07065200805664
361,130616705,0.18866862,-0.6984646,-0.34536496,-0.5977245,9.77237606048584,1.2600433826446533,-2.275439500808716,12.216447830200195,-42.50176239013672, 22.53952980041504
362,130633372,0.190015,-0.70310897,-0.34541237,-0.5917961,9.672287940979004,1.5714031457901,-2.186502695083618,13.639512062072754,-44.3571891784668, 23.90936851501465
363,130650039,0.19125146,-0.70786434,-0.34526077,-0.58578676,9.81342887878418,1.5568645000457764,-2.6041018962860107,12.350944519042969,-45.218902587890625, 24.803504943847656
364,130666706,0.19312897,-0.71280104,-0.34545627,-0.5790304,9.688258171081543,0.904924750328064,-2.4880950450897217,18.40892219543457,-48.53561019897461, 27.118915557861328
365,130683373,0.19604954,-0.7180216,-0.34610817,-0.57115567,9.984521865844727,1.2189669609069824,-2.358574151992798,27.6217098236084,-53.29255676269531, 31.198230743408203
366,130700040,0.19876586,-0.72391796,-0.3462633,-0.5626161,10.149322509765625,1.7899374961853027,-2.1556642055511475,25.338876724243164,-59.06583023071289, 35.361392974853516
367,130716707,0.20135888,-0.73027325,-0.34651703,-0.5532463,10.15656566619873,1.081346869468689,-2.5535340309143066,26.46330451965332,-65.42469787597656, 36.63379669189453
368,130733374,0.20461264,-0.7369246,-0.34730813,-0.5426353,10.213885307312012,0.7333652973175049,-2.742936611175537,34.37716293334961,-71.97311401367188, 38.880611419677734
369,130750041,0.2085897,-0.7441419,-0.34833667,-0.5304761,10.298114776611328,1.1380064487457275,-2.924046754837036,41.833072662353516,-80.55599975585938, 43.91160583496094
370,130766708,0.21341923,-0.7517874,-0.34934512,-0.516939,11.131991386413574,1.3040986061096191,-2.679320812225342,48.81312561035156,-87.11763763427734, 50.134883880615234
371,130783375,0.2193127,-0.76004803,-0.34970182,-0.5019339,13.376371383666992,2.045931100845337,-2.83197021484375,54.6265754699707,-93.40575408935547, 60.928260803222656
372,130800042,0.22339219,-0.76906365,-0.3478856,-0.48745537,15.520109176635742,1.844576358795166,-1.341525912284851,35.25218963623047,-94.37498474121094, 67.06192779541016
373,130816709,0.22611073,-0.7786056,-0.3447986,-0.4730343,17.31801414489746,-0.032986659556627274,-1.1519747972488403,22.85991859436035,-97.18733978271484, 70.40853118896484
374,130833376,0.22804423,-0.79025227,-0.34062254,-0.45549262,18.4844913482666,0.13253027200698853,-0.217214897274971,19.242834091186523,-120.96585083007812, 83.5365982055664
375,130850043,0.2272214,-0.8041898,-0.334616,-0.43552423,18.58901596069336,0.4100062847137451,0.73726487159729,0.6247403621673584,-144.9813690185547, 94.0354232788086
376,130866710,0.22948478,-0.81922466,-0.3288395,-0.40996617,17.74677848815918,1.5383678674697876,-3.7149295806884766,29.52621078491211,-172.51596069335938, 113.28617858886719
377,130883377,0.22890575,-0.83525133,-0.32113916,-0.38318008,17.777841567993164,8.609743118286133,-0.553829550743103,9.309359550476074,-185.66732788085938, 120.31896209716797
378,130900044,0.21985862,-0.84993005,-0.31155893,-0.36360988,13.967398643493652,6.164819240570068,3.5112311840057373,-58.05524444580078,-156.47250366210938, 94.528076171875
379,130916711,0.21733136,-0.85910785,-0.30723023,-0.34685782,10.623810768127441,3.449596881866455,0.6836056709289551,-4.519477367401123,-120.28768157958984, 64.13082885742188
380,130933378,0.2163889,-0.8644281,-0.30512,-0.33591938,10.633208274841309,4.162055969238281,2.222870349884033,3.62965726852417,-76.75130462646484, 37.99169158935547
381,130950045,0.21903114,-0.8661844,-0.30493018,-0.3297995,10.746410369873047,6.51211404800415,4.805588245391846,24.579635620117188,-35.26496887207031, 20.239118576049805
382,130966712,0.21463446,-0.86691856,-0.30337977,-0.33218235,7.178374767303467,5.252285957336426,3.1107263565063477,-36.68788528442383,4.920729637145996, -2.5287156105041504
383,130983379,0.2101658,-0.8648922,-0.3025754,-0.34094024,7.805315971374512,3.029486656188965,1.8861401081085205,-44.61883544921875,47.94050598144531, -22.284957885742188
384,131000046,0.20831655,-0.85948527,-0.3030412,-0.35504296,7.020498275756836,2.155963897705078,1.5652323961257935,-32.291751861572266,91.23712921142578, -38.44329833984375
385,131016713,0.2092763,-0.85083145,-0.30465704,-0.37346128,6.959648132324219,0.6897661685943604,0.7708325982093811,-17.223447799682617,128.8571014404297, -51.3222541809082
386,131033380,0.21397087,-0.838743,-0.30796543,-0.3948218,7.187375068664551,-0.04746275767683983,-0.04117080569267273,7.74783992767334,160.27308654785156, -63.06016540527344
387,131050047,0.22033203,-0.8235619,-0.31248137,-0.41899326,7.473084449768066,0.056094251573085785,-0.7254444360733032,19.23004722595215,186.6361846923828, -76.18477630615234
388,131066714,0.22622381,-0.80587155,-0.31728658,-0.4457839,8.080856323242188,-0.03351130709052086,-1.5816282033920288,15.575470924377441,207.26039123535156, -88.5341796875
389,131083381,0.23087917,-0.7857044,-0.32188627,-0.47513428,8.739664077758789,-0.32576411962509155,-2.3949999809265137,6.358188629150391,226.67437744140625, -100.57320404052734
390,131100048,0.23493034,-0.76286227,-0.32659158,-0.5061493,9.663430213928223,-0.5991898775100708,-2.7694406509399414,3.9966468811035156,242.92417907714844, -111.68700408935547
391,131116715,0.23866504,-0.7372883,-0.33168605,-0.5379866,10.894240379333496,-0.9356458783149719,-2.9365313053131104,6.253669738769531,255.4304962158203, -122.3023910522461
392,131133382,0.24246956,-0.70898515,-0.33728597,-0.56990063,11.216851234436035,-0.935817301273346,-3.1819589138031006,12.777597427368164,265.2710266113281, -130.96963500976562
393,131150049,0.2440965,-0.6786259,-0.3423233,-0.6022447,12.208436012268066,-0.205999955534935,-3.174905300140381,2.3807902336120605,271.3426208496094, -142.26220703125
394,131166716,0.24240015,-0.64665943,-0.34585294,-0.6351846,13.67171859741211,-0.07912681996822357,-3.505767345428467,-18.083438873291016,275.5194091796875, -153.78810119628906
395,131183383,0.2359965,-0.61390984,-0.34592718,-0.66914505,14.946475982666016,-0.012896660715341568,-3.671135902404785,-55.2412109375,278.08221435546875, -162.57107543945312
396,131200050,0.22658339,-0.58124864,-0.34024137,-0.7035949,15.964408874511719,-1.8285579681396484,-4.493427276611328,-95.77217864990234,281.9735412597656, -152.71273803710938
397,131216717,0.22163765,-0.54811895,-0.3347288,-0.7337569,16.537092208862305,-2.2486259937286377,-6.217008113861084,-66.3130874633789,277.3206481933594, -126.23799133300781
398,131233384,0.21809644,-0.51818645,-0.32650208,-0.7598113,16.649784088134766,-4.179831504821777,-8.128658294677734,-70.13874053955078,253.12698364257812, -95.33975219726562
399,131250051,0.2174182,-0.4932044,-0.3197892,-0.7792392,12.306894302368164,-5.352217674255371,-10.843499183654785,-44.57619857788086,207.87481689453125, -64.77705383300781
400,131266718,0.21636419,-0.4764775,-0.31435433,-0.7920462,7.970132827758789,-4.288821697235107,-14.902939796447754,-36.79365921020508,138.54115295410156, -43.13111114501953
401,131283385,0.21317779,-0.47107428,-0.31261715,-0.7968156,5.668345928192139,-4.580058574676514,-18.05710220336914,-23.135461807250977,40.55012512207031, -30.46792984008789
402,131300052,0.21015546,-0.47640857,-0.3150663,-0.7934751,5.953176021575928,-4.9373884201049805,-15.928886413574219,1.9926156997680664,-50.18951416015625, -8.203963279724121
403,131316719,0.20939247,-0.48890883,-0.3179332,-0.7848832,8.58253002166748,-5.463488578796387,-13.63340950012207,12.667023658752441,-102.08037567138672, 25.821712493896484
404,131333386,0.21433035,-0.50386566,-0.32790864,-0.76984274,13.652932167053223,3.6042795181274414,-1.873836874961853,80.73625183105469,-134.6917724609375, 47.29133605957031
405,131350053,0.21063493,-0.5212818,-0.32848275,-0.7589449,20.004749298095703,6.6473469734191895,6.751553535461426,-11.918864250183105,-138.93528747558594, 33.602134704589844
406,131366720,0.20874557,-0.5413902,-0.33026612,-0.7444772,10.40842342376709,-0.6048956513404846,-5.372756481170654,5.028400421142578,-163.47976684570312, 49.96084213256836
407,131383387,0.20560849,-0.5613151,-0.32901973,-0.7310244,10.076128959655762,1.7387524843215942,-3.9236950874328613,-17.180028915405273,-157.20118713378906, 52.96399688720703
408,131400054,0.19902982,-0.5790766,-0.32247424,-0.7218504,9.937923431396484,-1.0134514570236206,-3.837216377258301,-63.729164123535156,-130.0711669921875, 45.182804107666016
409,131416721,0.19654165,-0.59306335,-0.3241317,-0.7103424,11.687512397766113,-2.2778401374816895,-6.977752208709717,3.6052074432373047,-122.75281524658203, 27.63640594482422
410,131433388,0.19607304,-0.60552734,-0.32590482,-0.69905525,13.659284591674805,1.0450295209884644,-3.373363971710205,13.957332611083984,-110.02098083496094, 33.30557632446289
411,131450055,0.1928544,-0.6171696,-0.32389042,-0.6906548,11.393667221069336,-0.9417794346809387,-2.296807289123535,-21.064231872558594,-95.08940887451172, 30.11945343017578
412,131466722,0.19254062,-0.6261899,-0.32667,-0.6812498,11.357665061950684,-0.4901049733161926,-2.140846014022827,19.736385345458984,-86.78170776367188, 19.04779052734375
413,131483389,0.18961552,-0.6349236,-0.32702243,-0.67377645,10.708209037780762,1.8588413000106812,-0.9404102563858032,-6.8391852378845215,-79.77336120605469, 14.052240371704102
414,131500056,0.18466553,-0.64316446,-0.32564574,-0.667977,10.301958084106445,0.731682538986206,-1.1123645305633545,-26.811559677124023,-72.48934173583984, 8.94080924987793
415,131516723,0.18182075,-0.649731,-0.32635072,-0.66203195,10.971884727478027,1.1075873374938965,-2.039588212966919,-5.4935302734375,-63.380043029785156, 5.842283725738525
416,131533390,0.18156293,-0.65461504,-0.32835332,-0.656276,10.123225212097168,2.544438362121582,-3.121222496032715,13.645627975463867,-50.697425842285156, 7.808806896209717
417,131550057,0.18201528,-0.658737,-0.32979447,-0.65128464,9.52899169921875,2.173431158065796,-2.519444704055786,13.53195858001709,-41.5083122253418, 10.875466346740723
418,131566724,0.1812249,-0.6627728,-0.32991102,-0.64733964,10.176666259765625,1.620139718055725,-1.407429575920105,-0.2923576831817627,-37.5437126159668, 9.813640594482422
419,131583391,0.17958058,-0.6669149,-0.32908663,-0.64395463,10.274371147155762,1.4940974712371826,-1.113008737564087,-9.772845268249512,-36.23945617675781, 9.850061416625977
420,131600058,0.17727406,-0.6711669,-0.3278478,-0.6408001,9.651066780090332,1.5872591733932495,-1.6984448432922363,-15.300078392028809,-36.66785430908203, 8.788004875183105
421,131616725,0.1753208,-0.67527825,-0.3269995,-0.6374428,9.325013160705566,1.0493890047073364,-1.8198745250701904,-11.319286346435547,-36.66987228393555, 8.479507446289062
422,131633392,0.1748516,-0.6787907,-0.32769883,-0.6334697,9.215934753417969,0.7567688226699829,-1.7993282079696655,4.459466934204102,-35.439151763916016, 7.195198059082031
423,131650059,0.17578833,-0.6818333,-0.3296267,-0.62892616,9.363668441772461,1.3495601415634155,-1.6826584339141846,18.221952438354492,-34.372222900390625, 7.208855152130127
424,131666726,0.17664757,-0.6848562,-0.3315469,-0.62437516,9.133004188537598,2.0949230194091797,-1.7618623971939087,17.86652374267578,-34.49851989746094, 6.8744797706604
425,131683393,0.17676267,-0.68824685,-0.33265144,-0.6200117,9.11994743347168,1.961516261100769,-1.9150846004486084,9.989099502563477,-35.90885543823242, 8.138893127441406
426,131700060,0.17683801,-0.6918986,-0.33355838,-0.6154216,9.22898006439209,1.330336570739746,-1.9287641048431396,9.161067962646484,-37.952369689941406, 9.784266471862793
427,131716727,0.17771256,-0.695666,-0.3349201,-0.61016035,9.504150390625,1.4115746021270752,-1.9456697702407837,16.28742027282715,-40.36241912841797, 12.084562301635742
428,131733394,0.17886858,-0.69963795,-0.3362633,-0.6045163,9.368897438049316,1.6986232995986938,-2.1494295597076416,18.188526153564453,-42.39082336425781, 14.294659614562988
429,131750061,0.18021992,-0.7039991,-0.33740908,-0.5983822,9.313333511352539,1.3338181972503662,-2.206392288208008,18.964866638183594,-45.68057632446289, 17.563276290893555
430,131766728,0.18202466,-0.7088252,-0.33825403,-0.5916235,9.97862720489502,1.0230456590652466,-2.3557939529418945,20.794435501098633,-49.203914642333984, 22.74065399169922
431,131783395,0.18451047,-0.71396685,-0.3392379,-0.584059,10.116905212402344,1.1572974920272827,-2.1333563327789307,26.16857147216797,-53.018043518066406, 26.575435638427734
432,131800062,0.18685688,-0.71924925,-0.34041137,-0.57609487,10.139257431030273,1.2082738876342773,-2.4426889419555664,27.006547927856445,-56.13121795654297, 25.92205047607422
433,131816729,0.18946762,-0.72476745,-0.3419994,-0.56731874,10.040931701660156,0.620197057723999,-2.58828067779541,31.579608917236328,-61.011356353759766, 26.512664794921875
434,131833396,0.19218549,-0.7305647,-0.34393844,-0.5577155,10.115735054016113,1.193956971168518,-2.426225185394287,35.03799819946289,-66.45182037353516, 26.924436569213867
435,131850063,0.19387032,-0.7366824,-0.34542668,-0.54808205,9.84320068359375,1.3200362920761108,-3.4225571155548096,27.836517333984375,-69.69683074951172, 26.010602951049805
436,131866730,0.19567494,-0.74303377,-0.34696302,-0.5377999,9.25288200378418,0.5417388677597046,-3.380070447921753,29.631004333496094,-73.67937469482422, 27.72813606262207
437,131883397,0.19766581,-0.74986196,-0.34782693,-0.52692676,9.725645065307617,0.6602923274040222,-3.527463674545288,28.867780685424805,-77.12763214111328, 33.794776916503906
438,131900064,0.1989053,-0.7574451,-0.34744808,-0.5157458,10.197202682495117,0.7780188322067261,-3.326383113861084,21.00935935974121,-81.51899719238281, 39.40547180175781
439,131916731,0.2001201,-0.7649409,-0.34721294,-0.5042427,10.765289306640625,0.8247595429420471,-2.6730942726135254,21.38395118713379,-83.22200012207031, 39.16569137573242
440,131933398,0.20149168,-0.77296424,-0.3469167,-0.491504,12.25013542175293,0.4420130252838135,-2.667989730834961,24.452390670776367,-91.11231231689453, 42.903350830078125
441,131950065,0.20308612,-0.78144765,-0.3451617,-0.4784967,15.703839302062988,1.4490054845809937,-1.8982222080230713,20.731582641601562,-91.58018493652344, 52.87892150878906
442,131966732,0.2019654,-0.79233116,-0.3401566,-0.46445134,17.9429988861084,0.5933372974395752,-0.7069251537322998,-5.410248279571533,-107.02059936523438, 68.56519317626953
443,131983399,0.20069288,-0.80479556,-0.33554563,-0.44658232,19.17597770690918,-2.1990654468536377,-0.237136110663414,1.772424340248108,-133.8854522705078, 74.95748138427734
444,132000066,0.20093748,-0.81806755,-0.33243367,-0.42412004,19.413715362548828,-0.8634127378463745,-0.413152277469635,24.245832443237305,-160.44631958007812, 79.5206527709961
445,132016733,0.20191291,-0.8326334,-0.3294281,-0.3967747,19.899066925048828,1.5783756971359253,-2.802402973175049,38.03669738769531,-190.2642364501953, 90.77436065673828
446,132033400,0.20000097,-0.8472601,-0.32344902,-0.3708514,17.808765411376953,9.781973838806152,3.066056251525879,10.093342781066895,-184.77894592285156, 98.11739349365234
447,132050067,0.19445032,-0.86002076,-0.31638283,-0.34993613,13.565579414367676,6.255496501922607,0.579229474067688,-22.39847183227539,-157.55076599121094, 84.21490478515625
448,132066734,0.18919481,-0.8693005,-0.31075853,-0.334591,11.35001277923584,5.292041301727295,0.1590561419725418,-24.61155128479004,-117.58830261230469, 61.42433547973633
449,132083401,0.19259757,-0.87348217,-0.3084217,-0.32374564,13.08823299407959,-0.9162572026252747,2.5005764961242676,31.747949600219727,-64.7948226928711, 44.986759185791016
450,132100068,0.21022929,-0.87177956,-0.3110854,-0.31469038,8.959514617919922,5.18355655670166,4.333032131195068,132.32281494140625,-17.47298812866211, 31.797395706176758
451,132116735,0.21910226,-0.8691074,-0.3121748,-0.31494996,7.635946750640869,6.995972156524658,2.5347559452056885,57.91254806518555,23.94110679626465, 6.796354293823242
452,132133402,0.21739422,-0.8664204,-0.31057882,-0.32495618,7.573092937469482,6.367493152618408,1.7469518184661865,-31.990163803100586,63.51060485839844, -14.736783981323242
453,132150069,0.21209492,-0.862229,-0.3075248,-0.34206086,7.004459381103516,3.0766074657440186,0.6797893643379211,-69.52301788330078,103.6355972290039, -27.863779067993164
454,132166736,0.20981435,-0.854924,-0.30507532,-0.36333457,6.966491222381592,1.639703631401062,0.039441630244255066,-54.47040557861328,141.1549072265625, -37.00175476074219
455,132183403,0.21078694,-0.8442732,-0.30375934,-0.38794607,6.855588436126709,0.6753135919570923,-0.9168103337287903,-34.69040298461914,174.31390380859375, -47.367923736572266
456,132200070,0.21448188,-0.83036387,-0.30386642,-0.41492048,7.444219589233398,0.42207756638526917,-1.6235053539276123,-15.307012557983398,200.35023498535156, -58.59706115722656
457,132216737,0.21770446,-0.81400466,-0.30406427,-0.4444616,8.082778930664062,0.08913539350032806,-2.413708448410034,-19.501708984375,220.88357543945312, -69.36639404296875
458,132233404,0.2207442,-0.79508317,-0.30423605,-0.47597814,8.621213912963867,-0.6717333197593689,-3.393874406814575,-20.905309677124023,239.4449005126953, -78.09764099121094
459,132250071,0.2249828,-0.7729501,-0.30555224,-0.5084965,9.288898468017578,-0.711266040802002,-3.813796043395996,-7.834203243255615,256.2317199707031, -88.6790771484375
460,132266738,0.22977632,-0.7476666,-0.3083867,-0.54138273,9.896707534790039,-0.46044430136680603,-3.9797394275665283,4.520204067230225,268.0532531738281, -102.00691986083984
461,132283405,0.23462339,-0.71952575,-0.31213075,-0.57429016,10.301802635192871,0.048030223697423935,-4.128474712371826,12.646055221557617,277.5133972167969, -112.58440399169922
462,132300072,0.23747233,-0.68890524,-0.31598175,-0.60759556,11.81352424621582,0.363174170255661,-4.329361915588379,6.3233256340026855,284.85931396484375, -126.9766616821289
463,132316739,0.23748237,-0.6560002,-0.31958836,-0.64119375,13.304069519042969,0.6098036170005798,-4.875969409942627,-5.058761119842529,290.07012939453125, -143.13345336914062
464,132333406,0.23284437,-0.6218475,-0.3209946,-0.67531615,14.256207466125488,1.8965251445770264,-5.571963787078857,-34.85551071166992,291.3715515136719, -157.3161163330078
465,132350073,0.21907672,-0.5891416,-0.31325126,-0.71189284,15.883581161499023,1.2607372999191284,-5.21511697769165,-124.15420532226562,289.71923828125, -161.3449249267578
466,132366740,0.20978802,-0.55587965,-0.3047367,-0.744394,17.366172790527344,-2.869934320449829,-7.99659538269043,-100.16946411132812,286.7867431640625, -131.36474609375
467,132383407,0.20816384,-0.52264565,-0.3020476,-0.7695952,16.43855857849121,-3.742021083831787,-9.629718780517578,-25.793930053710938,266.4703369140625, -103.85875701904297
468,132400074,0.21031427,-0.4926553,-0.3037624,-0.7879007,12.99087142944336,-5.3391337394714355,-11.152323722839355,20.742591857910156,226.1566925048828, -83.1640625
469,132416741,0.21342091,-0.46984243,-0.30969164,-0.798618,9.011372566223145,-4.609501361846924,-14.40959644317627,52.268985748291016,157.57864379882812, -66.36451721191406
470,132433408,0.21302885,-0.4597401,-0.31699723,-0.80172974,5.481586933135986,-4.396353244781494,-17.090402603149414,46.03693389892578,53.87520980834961, -51.85713577270508
471,132450075,0.21099767,-0.46324578,-0.3244056,-0.79727316,6.333789348602295,-4.781426429748535,-15.565500259399414,37.95173263549805,-48.63528823852539, -20.52651596069336
472,132466742,0.21018472,-0.47510508,-0.3297235,-0.7882766,9.489572525024414,-4.681080341339111,-11.060583114624023,28.346677780151367,-103.00556182861328, 17.97118377685547
473,132483409,0.21208508,-0.4909391,-0.33378062,-0.7762663,10.303400039672852,-2.875758171081543,-6.886277675628662,31.447038650512695,-126.31910705566406, 50.10155487060547
474,132500076,0.21278943,-0.5053499,-0.33712712,-0.7653022,12.316075325012207,9.87230396270752,8.028157234191895,23.278545379638672,-116.82811737060547, 41.276458740234375
475,132516743,0.19962604,-0.5202137,-0.32619265,-0.7636266,14.295477867126465,6.904422760009766,6.9916863441467285,-122.25118255615234,-98.24349212646484, 5.455357074737549
476,132533410,0.19124028,-0.539254,-0.31786442,-0.7560386,13.905350685119629,-6.910904884338379,-9.271988868713379,-83.94507598876953,-134.21910095214844, 38.748023986816406
477,132550077,0.19240244,-0.55722594,-0.3192894,-0.7419803,14.670509338378906,-0.8803473114967346,-2.7483296394348145,17.694215774536133,-144.51171875, 58.312923431396484
478,132566744,0.18836692,-0.57294875,-0.31739807,-0.7317829,7.844386100769043,0.7725977301597595,-1.995295524597168,-24.64562225341797,-125.22900390625, 34.4243278503418
479,132583411,0.18559845,-0.58549714,-0.3181933,-0.7221492,10.682063102722168,-1.7910043001174927,-5.7756733894348145,-3.263479232788086,-107.73456573486328, 22.561033248901367
480,132600078,0.18807031,-0.5956496,-0.32325968,-0.71086866,12.868114471435547,0.5874006748199463,-2.9777145385742188,45.687103271484375,-96.40624237060547, 28.212589263916016
481,132616745,0.18910295,-0.60526353,-0.325393,-0.70143825,11.309046745300293,0.5054695010185242,-1.4309226274490356,22.034605026245117,-85.58317565917969, 29.581388473510742
482,132633412,0.18904519,-0.6141461,-0.32701173,-0.6929285,11.382396697998047,0.7931033372879028,-1.581382155418396,13.903160095214844,-79.99403381347656, 23.61973762512207
483,132650079,0.18543091,-0.623218,-0.3257902,-0.68634963,10.403129577636719,2.1098616123199463,-1.5798473358154297,-19.238271713256836,-77.04436492919922, 16.580474853515625
484,132666746,0.18021081,-0.63189775,-0.32249478,-0.68134165,10.424820899963379,0.9783650040626526,-1.5663108825683594,-38.928218841552734,-69.41287231445312, 15.023764610290527
485,132683413,0.17791241,-0.6388733,-0.3220805,-0.6756127,10.707168579101562,0.6047858595848083,-1.5270447731018066,-9.029988288879395,-61.65208053588867, 13.311537742614746
486,132700080,0.17710705,-0.6447623,-0.322831,-0.66984695,10.316523551940918,2.0458266735076904,-2.0971250534057617,4.347004413604736,-54.888427734375, 12.764482498168945
487,132716747,0.17760156,-0.6494473,-0.32389632,-0.6646558,9.888813972473145,1.8431307077407837,-2.4455323219299316,11.748543739318848,-44.2943115234375, 13.989916801452637
488,132733414,0.17840132,-0.65352356,-0.3248872,-0.65994567,9.751843452453613,1.768624186515808,-1.722387671470642,12.44227409362793,-38.591732025146484, 13.778611183166504
489,132750081,0.17759286,-0.6577501,-0.32439953,-0.6561941,10.2941255569458,1.901296615600586,-0.6615051031112671,-3.8167476654052734,-36.749794006347656, 12.290030479431152
490,132766748,0.17473805,-0.66243726,-0.3224053,-0.6532217,9.83232307434082,2.353550910949707,-0.9125624895095825,-22.165515899658203,-38.04365921020508, 9.95632266998291
491,132783415,0.17088023,-0.66743475,-0.31934574,-0.6506529,9.310294151306152,1.8526455163955688,-1.7014297246932983,-32.782554626464844,-38.55420684814453, 10.524580955505371
492,132800082,0.16835716,-0.6720096,-0.3175956,-0.64745057,9.013798713684082,0.6229932904243469,-1.9619789123535156,-18.910968780517578,-38.1817626953125, 10.315987586975098
493,132816749,0.16866735,-0.6757318,-0.3185875,-0.642993,9.12398624420166,0.47914984822273254,-1.8627943992614746,10.112712860107422,-37.17573165893555, 9.847350120544434
494,132833416,0.16999474,-0.6792496,-0.3204414,-0.6379963,9.515677452087402,1.5688250064849854,-1.3950190544128418,20.065540313720703,-37.55371856689453, 10.5084810256958
495,132850083,0.17051566,-0.6830646,-0.32151762,-0.6332249,9.618474006652832,2.010967969894409,-1.27394700050354,12.04582405090332,-38.685726165771484, 10.996195793151855
496,132866750,0.17025888,-0.68720293,-0.32178017,-0.6286667,9.402436256408691,1.8644514083862305,-1.6912368535995483,4.004576683044434,-39.870933532714844, 11.904196739196777
497,132883417,0.17039372,-0.69141746,-0.32210618,-0.6238237,9.309697151184082,1.2973510026931763,-2.1172432899475098,6.671595096588135,-40.7617301940918, 13.806034088134766
498,132900084,0.17137474,-0.6957794,-0.3227863,-0.6183293,9.44665241241455,1.3242374658584595,-1.9411271810531616,13.484146118164062,-43.037776947021484, 16.8426513671875
499,132916751,0.17285681,-0.7003444,-0.3235503,-0.61233467,9.631954193115234,1.4948605298995972,-1.7761272192001343,17.110748291015625,-45.290348052978516, 19.61324691772461
500,132933418,0.17416848,-0.7052837,-0.3240546,-0.60599446,9.751585006713867,1.8542801141738892,-1.720123291015625,15.524477005004883,-48.615806579589844, 21.393512725830078
501,132950085,0.17535949,-0.7105755,-0.32453844,-0.59917164,9.76208209991455,1.0937795639038086,-1.929408073425293,15.513209342956543,-52.68758773803711, 22.36189842224121
502,132966752,0.17712586,-0.71616566,-0.32541722,-0.5914706,10.066865921020508,0.9227360486984253,-2.1006088256835938,21.55498695373535,-57.42059326171875, 24.530227661132812
503,132983419,0.17928356,-0.72192305,-0.3265451,-0.58314085,9.889297485351562,0.7798875570297241,-2.567058801651001,25.701435089111328,-60.644874572753906, 26.03582763671875
504,133000086,0.18209144,-0.7278562,-0.3281089,-0.5739453,9.853311538696289,0.44906383752822876,-2.7688496112823486,32.406776428222656,-64.74373626708984, 27.94110679626465
505,133016753,0.18500002,-0.73435646,-0.32960922,-0.5637854,10.037339210510254,1.171399474143982,-2.380751609802246,34.128021240234375,-71.52010345458984, 31.14118194580078
506,133033420,0.1873571,-0.7413517,-0.3306722,-0.5531287,10.178596496582031,1.3616912364959717,-2.952925682067871,30.14948081970215,-76.66624450683594, 32.97264099121094
507,133050087,0.18970351,-0.74887204,-0.33143458,-0.5416225,10.466442108154297,1.076175332069397,-3.03220796585083,30.213632583618164,-82.6544418334961, 36.76366424560547
508,133066754,0.19235718,-0.75703424,-0.33179694,-0.5289703,10.566844940185547,0.7191137671470642,-2.987870216369629,32.08671569824219,-89.74849700927734, 42.93387985229492
509,133083421,0.19534576,-0.7657586,-0.33206105,-0.51496595,11.109130859375,0.6375144720077515,-2.8511035442352295,35.81929397583008,-97.96589660644531, 47.74131774902344
510,133100088,0.19870691,-0.7748131,-0.33186013,-0.50004977,12.443524360656738,0.6328731775283813,-3.532716751098633,37.778045654296875,-102.49542999267578, 53.495948791503906
511,133116755,0.20162158,-0.78442454,-0.32992396,-0.4849515,14.888152122497559,1.0762594938278198,-2.9530913829803467,29.094844818115234,-104.06385040283203, 62.73448181152344
512,133133422,0.20239367,-0.79497015,-0.32573092,-0.47006312,16.52967071533203,0.357257604598999,-1.7587988376617432,8.252015113830566,-107.83287811279297, 69.60846710205078
513,133150089,0.20219405,-0.8063053,-0.32049865,-0.45417038,18.511072158813477,-0.16261692345142365,-0.4788397550582886,0.7388035655021667,-116.68122863769531, 75.33026123046875
514,133166756,0.20043391,-0.8187214,-0.31476718,-0.43639836,18.967838287353516,0.7453757524490356,0.007412701845169067,-6.8316755294799805,-133.3218231201172, 78.23587036132812
515,133183423,0.19769028,-0.8326127,-0.3092937,-0.41474423,19.28253173828125,0.5851685404777527,-0.952138364315033,-5.220605850219727,-162.19993591308594, 82.40387725830078
516,133200090,0.1980689,-0.84519166,-0.3039416,-0.39247945,18.727867126464844,3.5938050746917725,2.7521235942840576,16.08652687072754,-155.5821533203125, 88.6793212890625
517,133216757,0.20211115,-0.8553019,-0.30016673,-0.370824,13.197220802307129,6.07001256942749,-2.268564224243164,43.74153518676758,-140.00479125976562, 83.46420288085938
518,133233424,0.20077915,-0.86488104,-0.29484016,-0.3531835,11.19039249420166,7.528378009796143,-2.330087661743164,0.670454740524292,-124.03069305419922, 72.27397918701172
519,133250091,0.19454476,-0.87256175,-0.2890116,-0.3424343,8.958276748657227,5.216591835021973,-0.3066924512386322,-40.99737548828125,-87.73284912109375, 50.0552978515625
520,133266758,0.19221278,-0.87690353,-0.2841486,-0.33668193,9.672831535339355,0.11611317098140717,0.8362213969230652,-20.740758895874023,-43.479835510253906, 40.17191696166992
521,133283425,0.2022978,-0.87583643,-0.28346452,-0.33411795,8.019867897033691,5.470074653625488,3.8269903659820557,64.71007537841797,6.939135551452637, 28.952913284301758
522,133300092,0.20592938,-0.8736519,-0.2811683,-0.33951527,6.0591139793396,5.121051788330078,2.4514479637145996,8.210457801818848,47.043575286865234, 10.635579109191895
523,133316759,0.20447612,-0.8701882,-0.27743945,-0.35212222,6.879880428314209,4.2360968589782715,2.221759557723999,-37.77977752685547,85.49398803710938, -5.271268367767334
524,133333426,0.20047858,-0.86444825,-0.2739348,-0.37080702,5.671344757080078,2.8574752807617188,1.160968542098999,-60.838497161865234,122.15738677978516, -25.633085250854492
525,133350093,0.198037,-0.85567456,-0.27114797,-0.3938042,6.041778087615967,1.746105432510376,-0.03915019333362579,-53.69512176513672,157.44277954101562, -37.577491760253906
526,133366760,0.19786617,-0.84369373,-0.26976106,-0.4198328,6.542782783508301,1.3493882417678833,-0.811292290687561,-37.82906723022461,186.27926635742188, -49.76508712768555
527,133383427,0.19848657,-0.8289108,-0.2691294,-0.44841948,7.272745132446289,0.6259270310401917,-1.6812587976455688,-31.994464874267578,209.64697265625, -60.53353500366211
528,133400094,0.1996261,-0.81139165,-0.26919898,-0.4788796,8.009316444396973,0.7323739528656006,-2.6758971214294434,-26.61196517944336,228.7721405029297, -70.54885864257812
529,133416761,0.19929,-0.7915472,-0.26903722,-0.51123,8.833944320678711,0.7574299573898315,-3.6100194454193115,-35.92081069946289,244.57823181152344, -81.01493072509766
530,133433428,0.1980987,-0.76925707,-0.26903597,-0.54462916,10.01088809967041,0.45121970772743225,-3.9662933349609375,-38.607059478759766,257.10784912109375, -90.85728454589844
531,133450095,0.19777519,-0.74411124,-0.27053088,-0.5779249,10.262984275817871,-0.0024723317474126816,-4.549040794372559,-24.337146759033203,266.8530578613281, -100.6683578491211
532,133466762,0.19770455,-0.71591985,-0.2739108,-0.61101985,10.990063667297363,0.8712932467460632,-4.4696760177612305,-11.044437408447266,275.88116455078125, -114.71190643310547
533,133483429,0.19528054,-0.685249,-0.27738705,-0.64448154,12.663912773132324,0.9365940690040588,-4.540428161621094,-19.55558204650879,283.59246826171875, -130.24974060058594
534,133500096,0.19062024,-0.65210295,-0.28086612,-0.6778943,14.25257682800293,0.7661794424057007,-4.932182312011719,-26.675397872924805,290.119873046875, -144.8419952392578
535,133516763,0.18238397,-0.6179562,-0.280927,-0.7112995,15.140192031860352,-1.3373585939407349,-5.279608726501465,-57.339027404785156,292.38739013671875, -148.12705993652344
536,133533430,0.17986692,-0.58192855,-0.2850207,-0.7401156,16.5749568939209,-2.6363391876220703,-7.584578514099121,-2.0904226303100586,288.1411437988281, -135.20541381835938
537,133550097,0.18097277,-0.5462003,-0.2920938,-0.7639346,16.92022132873535,-2.591071605682373,-8.617566108703613,36.980812072753906,270.1319885253906, -121.97596740722656
538,133566764,0.18412952,-0.5140861,-0.30075267,-0.78189546,13.546525955200195,-3.94368052482605,-10.143033027648926,60.259063720703125,231.39430236816406, -102.66741180419922
539,133583431,0.18710448,-0.48897782,-0.30940092,-0.7938292,10.008484840393066,-3.6038215160369873,-12.758049964904785,63.12428283691406,172.17466735839844, -81.55835723876953
540,133600098,0.18578114,-0.47508204,-0.3153944,-0.80019367,6.286466121673584,-3.304772138595581,-15.44733715057373,31.569049835205078,86.65524291992188, -65.13862609863281
541,133616765,0.18201834,-0.47471428,-0.32119405,-0.79896873,6.259552955627441,-5.246665954589844,-15.620457649230957,21.668331146240234,-17.448280334472656, -38.951961517333984
542,133633432,0.17929535,-0.48467526,-0.32562637,-0.7917775,8.516009330749512,-5.240777015686035,-12.144389152526855,17.761974334716797,-89.49891662597656, 1.4290190935134888
543,133650099,0.17836243,-0.5009921,-0.32596913,-0.78162557,10.306912422180176,-4.531732559204102,-7.837065696716309,0.22762760519981384,-124.79246520996094, 42.610816955566406
544,133666766,0.17915308,-0.51628274,-0.3270358,-0.7709765,13.503530502319336,9.350593566894531,8.846549987792969,12.413874626159668,-117.92256164550781, 47.6217155456543
545,133683433,0.16525263,-0.52932864,-0.3140049,-0.7706521,14.440804481506348,10.942107200622559,10.59776496887207,-134.9171905517578,-85.10418701171875, 2.089664936065674
546,133700100,0.1524455,-0.5463047,-0.29927173,-0.76729983,10.204988479614258,-8.391608238220215,-9.362605094909668,-137.87916564941406,-112.73399353027344, 26.09673309326172
547,133716767,0.15519401,-0.5634412,-0.3008724,-0.75360817,16.006681442260742,-4.404735565185547,-4.186735153198242,27.828203201293945,-137.4163818359375, 57.885108947753906
548,133733434,0.1558694,-0.5778908,-0.3043449,-0.7410278,9.977743148803711,-0.13875696063041687,-0.8678088784217834,30.05757713317871,-125.41390228271484, 33.06174087524414
549,133750101,0.15508242,-0.59021854,-0.30670092,-0.7304293,10.456154823303223,-0.5275097489356995,-4.250459671020508,16.67852020263672,-108.58177947998047, 23.46112823486328
550,133766768,0.15749922,-0.6007348,-0.31165165,-0.71915644,12.790058135986328,0.17730113863945007,-4.269280910491943,46.04988098144531,-98.19227600097656, 25.891510009765625
551,133783435,0.16030513,-0.6100716,-0.31636736,-0.7085391,9.985740661621094,2.3397674560546875,-2.0266013145446777,46.35298538208008,-88.52880096435547, 25.517637252807617
552,133800102,0.15637295,-0.62039644,-0.3126422,-0.70207655,12.06419849395752,2.309168815612793,-1.0861923694610596,-33.16524887084961,-81.25663757324219, 25.677263259887695
553,133816769,0.15014626,-0.6303644,-0.3077168,-0.6967123,11.273612976074219,0.25363773107528687,-1.237363338470459,-50.72637939453125,-78.48625946044922, 17.788232803344727
554,133833436,0.14642753,-0.6387698,-0.30559632,-0.6907559,10.277884483337402,0.6512660384178162,-1.8071297407150269,-23.560096740722656,-71.15340423583984, 14.946105003356934
555,133850103,0.14475197,-0.6454456,-0.305401,-0.68496567,10.643060684204102,1.7073290348052979,-2.2627782821655273,-4.056362628936768,-59.84998321533203, 12.389366149902344
556,133866770,0.14568642,-0.6502891,-0.30698037,-0.6794582,10.353671073913574,0.6877604126930237,-2.4360463619232178,17.110036849975586,-46.24689483642578, 12.67760181427002
557,133883437,0.14894685,-0.65356827,-0.3106484,-0.67391527,10.192986488342285,1.4675458669662476,-1.8732128143310547,38.9043083190918,-36.2765998840332, 10.923577308654785
558,133900104,0.15089183,-0.6564254,-0.31300795,-0.6696001,10.363373756408691,2.1929330825805664,-1.6137042045593262,24.739286422729492,-30.278337478637695, 8.542095184326172
559,133916771,0.15110254,-0.6594457,-0.31339315,-0.6663969,10.174811363220215,2.074475049972534,-1.3641328811645508,5.26097297668457,-27.701370239257812, 8.670379638671875
560,133933438,0.15063432,-0.66255206,-0.3130045,-0.6635984,9.734354019165039,1.9803094863891602,-1.4438713788986206,-2.3226301670074463,-26.92880630493164, 8.840049743652344
561,133950105,0.1504847,-0.66554064,-0.31275907,-0.66075146,9.195201873779297,1.9470396041870117,-1.5371026992797852,0.008778776042163372,-26.081031799316406, 9.444880485534668
562,133966772,0.1509657,-0.66826403,-0.31327328,-0.65764225,8.91572093963623,1.6056376695632935,-1.7209692001342773,7.185809135437012,-25.513031005859375, 8.541339874267578
563,133983439,0.15305674,-0.6705773,-0.31535,-0.65380037,9.051743507385254,1.3958770036697388,-1.6596654653549194,23.65320587158203,-25.18400001525879, 8.520377159118652
564,134000106,0.15608306,-0.6728027,-0.3182978,-0.649355,9.058387756347656,2.190155029296875,-1.4288017749786377,33.2822265625,-26.468725204467773, 9.148398399353027
565,134016773,0.15810749,-0.67542046,-0.32037583,-0.64511186,8.845778465270996,2.3763816356658936,-1.7364989519119263,23.902721405029297,-28.554903030395508, 9.345246315002441
566,134033440,0.15950991,-0.6784068,-0.3215729,-0.64102477,8.863791465759277,1.9356447458267212,-2.0015082359313965,16.365970611572266,-29.88471794128418, 11.328722953796387
567,134050107,0.16060588,-0.68123186,-0.3222124,-0.6374237,9.19046688079834,1.939359188079834,-1.5880099534988403,11.582353591918945,-26.976200103759766, 11.695024490356445
568,134066774,0.16145293,-0.6837297,-0.32241812,-0.63442427,9.370024681091309,1.974919319152832,-1.9891377687454224,7.547089099884033,-22.807819366455078, 11.253677368164062
569,134083441,0.16264796,-0.6864469,-0.3226299,-0.6310682,9.634797096252441,1.6305465698242188,-2.0601484775543213,9.760075569152832,-24.683929443359375, 13.63266372680664
570,134100108,0.1640909,-0.6895408,-0.32305673,-0.6270908,9.492027282714844,1.4826207160949707,-1.5670385360717773,12.823418617248535,-28.952096939086914, 15.22824478149414
571,134116775,0.16556638,-0.6930699,-0.32359472,-0.6225185,9.644791603088379,1.4523441791534424,-1.8716131448745728,14.293099403381348,-33.719085693359375, 16.48284339904785
572,134133442,0.16686365,-0.6972028,-0.3236401,-0.6175134,10.050483703613281,1.6156291961669922,-1.6112521886825562,11.614447593688965,-38.218318939208984, 19.908601760864258
573,134150109,0.16808823,-0.7019972,-0.3233758,-0.61186206,9.806708335876465,1.59422767162323,-1.6269910335540771,10.636238098144531,-43.952762603759766, 23.30572509765625
574,134166776,0.16924721,-0.7075738,-0.32304394,-0.6052589,9.499263763427734,2.171037435531616,-1.4572570323944092,11.254161834716797,-51.92851638793945, 26.204200744628906
575,134183443,0.1701984,-0.71372306,-0.3224543,-0.59804344,9.678998947143555,1.7674564123153687,-1.842184066772461,9.871838569641113,-57.47748947143555, 28.595396041870117
576,134200110,0.17230341,-0.720361,-0.3226689,-0.5893026,9.56782054901123,1.0214625597000122,-1.9264646768569946,21.658815383911133,-65.3788070678711, 32.27400588989258
577,134216777,0.17508622,-0.72790796,-0.32282504,-0.57903343,9.389297485351562,1.863069772720337,-1.7922167778015137,27.098020553588867,-75.08374786376953, 39.1424446105957
578,134233444,0.17685834,-0.73668796,-0.32148868,-0.56802994,10.24893856048584,2.5821850299835205,-1.8902063369750977,16.252717971801758,-84.14242553710938, 46.225791931152344
579,134250111,0.17864193,-0.74611646,-0.31991,-0.55592793,10.702682495117188,1.8270214796066284,-2.367814302444458,17.017452239990234,-91.94970703125, 50.29193878173828
580,134266778,0.18245703,-0.75539434,-0.31990135,-0.54198974,11.520075798034668,1.2041363716125488,-2.730623722076416,37.67408752441406,-98.28441619873047, 51.9432258605957
581,134283445,0.18803786,-0.7649505,-0.3199842,-0.52640617,13.188254356384277,1.1476243734359741,-3.101391077041626,50.464542388916016,-104.13121795654297, 60.732826232910156
582,134300112,0.19300824,-0.77509224,-0.31882322,-0.51022786,15.036834716796875,0.1913818120956421,-2.052192211151123,43.3122444152832,-109.1531753540039, 67.13232421875
583,134316779,0.19676659,-0.78541017,-0.31652358,-0.4941938,18.149845123291016,-0.2179596722126007,0.718680739402771,32.312320709228516,-110.20870208740234, 69.14651489257812
584,134333446,0.19833864,-0.797623,-0.31214494,-0.47647232,18.60955238342285,-0.7018365859985352,1.1608740091323853,14.552596092224121,-127.81584167480469, 79.35966491699219
585,134350113,0.19782324,-0.81172895,-0.30666342,-0.45598313,19.259572982788086,-0.040795039385557175,1.778307318687439,2.846794366836548,-152.29380798339844, 86.41732025146484
586,134366780,0.19572626,-0.8273022,-0.3001185,-0.43265715,18.695152282714844,2.3026111125946045,-0.31269532442092896,-5.332422256469727,-174.750732421875, 94.37062072753906
587,134383447,0.19467917,-0.84347796,-0.2924647,-0.40633777,17.12034797668457,5.93719482421875,-3.1998963356018066,2.7182300090789795,-190.0279083251953, 109.12245178222656
588,134400114,0.1831197,-0.85926914,-0.28032634,-0.38670635,12.056354522705078,8.541377067565918,0.1517273187637329,-83.68141174316406,-165.37493896484375, 96.10465240478516
589,134416781,0.17489454,-0.8707372,-0.27028993,-0.37171593,10.768012046813965,2.0490362644195557,-0.27474671602249146,-61.83107376098633,-122.75214385986328, 78.45020294189453
590,134433448,0.17852566,-0.8760928,-0.26581165,-0.36046526,12.000990867614746,1.0909364223480225,3.2118186950683594,23.771451950073242,-69.45348358154297, 59.64097213745117
591,134450115,0.19675797,-0.8758032,-0.26681682,-0.35080576,9.53355598449707,2.480634927749634,2.4050376415252686,129.3404998779297,-26.030569076538086, 50.5634651184082
592,134466782,0.21066883,-0.8731377,-0.26829818,-0.34823322,6.272495746612549,8.875550270080566,2.942171573638916,94.68590545654297,13.729957580566406, 23.374006271362305
593,134483449,0.20830257,-0.87160313,-0.26471493,-0.35615343,6.953309059143066,6.974254131317139,1.968608021736145,-36.09326934814453,51.26765441894531, 1.7753499746322632
594,134500116,0.20154004,-0.8686243,-0.2594767,-0.3708727,6.6598711013793945,3.218353509902954,0.30851149559020996,-76.75762939453125,89.8648681640625, -11.386768341064453
595,134516783,0.19722934,-0.8623862,-0.25564405,-0.38992015,6.047478199005127,2.4715993404388428,0.008764371275901794,-61.722930908203125,126.41828155517578, -25.322641372680664
596,134533450,0.1948892,-0.85312146,-0.25275707,-0.41269487,6.200172424316406,1.8327460289001465,-0.8504155278205872,-49.944602966308594,158.79551696777344, -36.00755310058594
597,134550117,0.19448449,-0.8408846,-0.2510945,-0.43822542,6.725057125091553,1.3055458068847656,-1.7412768602371216,-35.92414093017578,185.1097412109375, -46.54335021972656
598,134566784,0.19346134,-0.8262122,-0.25000778,-0.46630847,7.553543567657471,1.212253451347351,-2.550806999206543,-38.91603088378906,205.37159729003906, -59.347957611083984
599,134583451,0.19102383,-0.80938506,-0.24842727,-0.49667957,8.644102096557617,0.6021720170974731,-3.3378984928131104,-49.60477066040039,223.5151824951172, -67.8205337524414
600,134600118,0.18853915,-0.7901309,-0.24746963,-0.52811545,9.306726455688477,0.04046490043401718,-3.805769443511963,-46.38020706176758,236.84730529785156, -76.9926986694336
601,134616785,0.18701456,-0.7680445,-0.24857193,-0.55977345,9.613240242004395,0.2961243987083435,-4.054594993591309,-30.395858764648438,247.32803344726562, -89.81306457519531
602,134633452,0.18408692,-0.74355555,-0.2505819,-0.5919857,10.618265151977539,1.003719687461853,-4.0092549324035645,-32.178104400634766,255.97265625, -104.83303833007812
603,134650119,0.17894584,-0.71690124,-0.25218424,-0.6248482,11.475053787231445,0.8019936680793762,-3.8650588989257812,-43.542335510253906,264.854248046875, -116.31678771972656
604,134666786,0.17161193,-0.68777084,-0.25354633,-0.6582066,13.102129936218262,0.2899550199508667,-3.925090789794922,-53.20893478393555,274.4769592285156, -129.47142028808594
605,134683453,0.16307166,-0.65587294,-0.2549788,-0.69153833,14.591899871826172,-0.8889869451522827,-4.183191299438477,-55.29667663574219,284.7456359863281, -140.08346557617188
606,134700120,0.15738076,-0.62139755,-0.25816852,-0.72280455,15.495384216308594,-3.005559206008911,-5.449210166931152,-27.58419418334961,290.7715148925781, -136.6981658935547
607,134716787,0.15824223,-0.58455384,-0.26696488,-0.74965787,17.23514175415039,-3.036992311477661,-6.729892253875732,38.67873764038086,289.33746337890625, -127.57606506347656
608,134733454,0.1623857,-0.54821247,-0.278208,-0.771813,15.931843757629395,-4.062922954559326,-8.128081321716309,72.54572296142578,271.3293762207031, -114.52156829833984
609,134750121,0.1695735,-0.5154603,-0.2929085,-0.78724295,13.532711029052734,-4.121999740600586,-9.83376693725586,111.21693420410156,229.01007080078125, -97.09684753417969
610,134766788,0.17434144,-0.4902462,-0.30456105,-0.7978142,10.615569114685059,-2.934011697769165,-11.906709671020508,87.09998321533203,169.78762817382812, -78.62419128417969
611,134783455,0.17385858,-0.47680444,-0.3098129,-0.8040198,5.518869876861572,-2.813613176345825,-14.242209434509277,29.277315139770508,87.31645965576172, -56.03227996826172
612,134800122,0.17,-0.47700506,-0.31108686,-0.804234,5.978301048278809,-5.234426975250244,-14.938912391662598,-7.370868682861328,-10.013774871826172, -25.482887268066406
613,134816789,0.16753793,-0.4866571,-0.31182975,-0.79866105,8.356424331665039,-5.2090654373168945,-11.915854454040527,-4.4384942054748535,-77.47713470458984, 10.88604736328125
614,134833456,0.16704962,-0.5013149,-0.31235984,-0.78943676,9.450139999389648,-3.241645097732544,-7.769784450531006,3.028012752532959,-112.56095886230469, 37.29574966430664
615,134850123,0.1674,-0.51609206,-0.31428608,-0.77900666,13.335868835449219,8.517946243286133,6.889700889587402,15.926889419555664,-117.06526184082031, 38.61574172973633
616,134866790,0.15585743,-0.5322176,-0.3022932,-0.77528876,16.488367080688477,4.409624099731445,6.0679168701171875,-116.89213562011719,-110.19383239746094, 19.559873580932617
617,134883457,0.15070379,-0.5510282,-0.29526344,-0.7658177,11.202668190002441,-4.321473121643066,-6.980246067047119,-57.96458435058594,-137.62191772460938, 47.22066879272461
618,134900124,0.15149385,-0.5692429,-0.2947218,-0.75243086,11.372608184814453,0.8581075668334961,-2.9791483879089355,7.270669937133789,-143.87684631347656, 56.715248107910156
619,134916791,0.1473946,-0.58498925,-0.28992504,-0.7429717,8.691574096679688,1.6375423669815063,-2.405954599380493,-39.282371520996094,-121.15900421142578, 38.97018051147461
620,134933458,0.14430472,-0.5983574,-0.2877849,-0.73370683,10.929903030395508,-1.4871691465377808,-5.871674060821533,-19.63755989074707,-108.87531280517578, 28.514644622802734
621,134950125,0.14662005,-0.6099403,-0.2892454,-0.72305846,13.504193305969238,-0.6539900898933411,-3.169621229171753,25.2557315826416,-98.36775970458984, 38.77085494995117
622,134966792,0.14943977,-0.61997867,-0.29085368,-0.7132317,11.505162239074707,-0.31507110595703125,-1.3036659955978394,28.020362854003906,-86.35408782958984, 36.7168083190918
623,134983459,0.15086009,-0.628943,-0.29291427,-0.7041835,11.114843368530273,0.8734215497970581,-1.3045628070831299,23.815725326538086,-81.02684020996094, 24.949182510375977
624,135000126,0.14729002,-0.63846034,-0.29043332,-0.69736916,10.00642204284668,2.7898566722869873,-0.5847960710525513,-24.82990837097168,-79.3788070678711, 19.216901779174805
625,135016793,0.13996829,-0.64789546,-0.28451064,-0.6926003,9.9830904006958,1.1912117004394531,-1.1150527000427246,-61.80638885498047,-74.01488494873047, 14.133630752563477
626,135033460,0.13472517,-0.6558599,-0.28099868,-0.6875591,11.251082420349121,0.3804587721824646,-2.3974568843841553,-39.12271499633789,-66.47551727294922, 10.692961692810059
627,135050127,0.13442339,-0.66169935,-0.28139654,-0.6818368,10.218098640441895,0.7251001000404358,-2.5166752338409424,4.919899940490723,-53.563804626464844, 12.938323020935059
628,135066794,0.1365208,-0.66621315,-0.28376913,-0.67601657,9.80317497253418,1.7094439268112183,-1.9837777614593506,26.501670837402344,-44.96931076049805, 12.715906143188477
629,135083461,0.13669953,-0.6705219,-0.28410655,-0.67156404,10.247299194335938,2.6780223846435547,-1.2592320442199707,5.775513172149658,-39.5848388671875, 11.43786334991455
630,135100128,0.13448246,-0.67518294,-0.28163767,-0.66837406,9.916886329650879,2.293036460876465,-1.5633212327957153,-21.021501541137695,-37.441078186035156, 12.833852767944336
631,135116795,0.13171193,-0.6799712,-0.27806556,-0.66556126,9.728349685668945,1.715253472328186,-1.693809151649475,-29.505542755126953,-36.32878494262695, 15.32919692993164
632,135133462,0.12971368,-0.6844996,-0.27499327,-0.6625816,9.701172828674316,0.8874536156654358,-1.568570613861084,-23.052576065063477,-34.896854400634766, 16.194210052490234
633,135150129,0.12916523,-0.68853694,-0.27335608,-0.65917426,9.543462753295898,1.1484992504119873,-1.4268925189971924,-8.443140029907227,-33.216365814208984, 15.498123168945312
634,135166796,0.12890603,-0.69222414,-0.27222708,-0.6558219,9.234264373779297,1.710719108581543,-1.535469889640808,-4.561217308044434,-31.284767150878906, 13.698002815246582
635,135183463,0.12875596,-0.69581,-0.2713411,-0.65241504,9.166287422180176,1.476159930229187,-1.6135493516921997,-2.751237630844116,-31.10568618774414, 12.900227546691895
636,135200130,0.12901546,-0.69941336,-0.27082056,-0.64871645,9.260525703430176,1.3456112146377563,-1.5620884895324707,1.3782700300216675,-32.145877838134766, 13.28526782989502
637,135216797,0.12966812,-0.70306075,-0.27066723,-0.6446954,9.352105140686035,1.3787723779678345,-1.4942145347595215,5.469752311706543,-33.49631881713867, 13.64355754852295
638,135233464,0.1303874,-0.70674706,-0.27064568,-0.64051527,9.283053398132324,1.6383264064788818,-1.8794374465942383,6.640208721160889,-34.442405700683594, 13.51876449584961
639,135250131,0.1309441,-0.7105611,-0.27041715,-0.63626426,9.304688453674316,1.4399781227111816,-1.9862887859344482,4.959214210510254,-35.47344207763672, 14.115598678588867
640,135266798,0.1321874,-0.71425843,-0.27065668,-0.63174963,9.32056999206543,1.1799933910369873,-2.320037364959717,10.958486557006836,-35.402095794677734, 14.856799125671387
641,135283465,0.13379516,-0.7179656,-0.2710593,-0.6270185,9.430534362792969,0.8544564843177795,-2.3440768718719482,13.852400779724121,-35.984806060791016, 15.854351043701172
642,135300132,0.13605268,-0.72166014,-0.27189225,-0.62191004,9.791421890258789,0.7006614208221436,-2.2075250148773193,19.632177352905273,-36.98820114135742, 16.851539611816406
643,135316799,0.13838136,-0.7254227,-0.27291182,-0.616549,9.941762924194336,1.2690491676330566,-2.0567665100097656,21.193157196044922,-38.59077835083008, 16.58806037902832
644,135333466,0.14037852,-0.729409,-0.27382365,-0.6109651,9.734086990356445,0.6956728100776672,-2.2874748706817627,19.29373550415039,-41.19138717651367, 16.354564666748047
645,135350133,0.14290172,-0.7337194,-0.27488068,-0.604712,9.698137283325195,0.9900403022766113,-2.293532133102417,23.491220474243164,-45.07905960083008, 19.090024948120117
646,135366800,0.14553788,-0.7385911,-0.2754545,-0.59785265,10.010640144348145,1.4487881660461426,-2.3783156871795654,22.65154457092285,-49.80625534057617, 23.656713485717773
647,135383467,0.14850393,-0.743886,-0.27578828,-0.5903576,9.7183837890625,1.647648572921753,-2.357978105545044,24.127798080444336,-53.93402862548828, 27.67923355102539
648,135400134,0.1515563,-0.7496101,-0.27617392,-0.5821034,9.70931625366211,1.4460369348526,-2.6106467247009277,25.791032791137695,-59.474815368652344, 29.367359161376953
649,135416801,0.15506452,-0.7560187,-0.27656162,-0.5726302,10.120877265930176,1.3852894306182861,-2.3928017616271973,29.758312225341797,-67.65862274169922, 33.76383972167969
650,135433468,0.1589777,-0.7632168,-0.27681705,-0.56178254,10.120219230651855,1.355244755744934,-2.63616943359375,33.124794006347656,-77.0336685180664, 39.02479553222656
651,135450135,0.16361263,-0.77116024,-0.2774696,-0.54914,10.730356216430664,1.5202794075012207,-2.5488121509552,41.057579040527344,-88.42493438720703, 43.12277603149414
652,135466802,0.16965075,-0.7796439,-0.27830955,-0.5347139,12.32788372039795,1.6146728992462158,-2.8448846340179443,52.01233673095703,-97.49604797363281, 50.480064392089844
653,135483469,0.17500332,-0.78948885,-0.27701634,-0.518984,14.219483375549316,2.121925115585327,-2.7492012977600098,41.416194915771484,-108.36109924316406, 63.53913497924805
654,135500136,0.17917839,-0.8002078,-0.2749609,-0.5019566,15.975055694580078,0.31784588098526,-1.7113330364227295,33.74356460571289,-119.91133880615234, 66.73040771484375
655,135516803,0.18295889,-0.8116323,-0.27242893,-0.48328316,19.182388305664062,0.4988501965999603,0.07504835724830627,32.1784782409668,-131.65328979492188, 71.36556243896484
656,135533470,0.18381242,-0.82454556,-0.2686615,-0.46277395,19.808876037597656,1.890737771987915,1.033719539642334,13.311347961425781,-150.9134063720703, 73.65707397460938
657,135550137,0.18195055,-0.83789736,-0.26428646,-0.44156045,20.085397720336914,1.3311829566955566,1.7106068134307861,-3.2538185119628906,-160.7090301513672, 70.20685577392578
658,135566804,0.18466374,-0.8507516,-0.26122865,-0.41699097,19.149564743041992,2.2543957233428955,-0.729279100894928,33.83369064331055,-172.04388427734375, 79.84949493408203
659,135583471,0.18696387,-0.86283904,-0.25727203,-0.3928935,14.022608757019043,6.005969047546387,-0.8770807981491089,28.98480224609375,-166.82595825195312, 82.00067138671875
660,135600138,0.18332611,-0.872965,-0.25187725,-0.37534368,10.259323120117188,5.336348056793213,-0.2910093069076538,-19.13823890686035,-131.4319610595703, 62.68553161621094
661,135616805,0.18310213,-0.87915915,-0.2489676,-0.36272463,8.641632080078125,1.416199803352356,-0.7034777998924255,4.228553771972656,-88.9853286743164, 43.620540618896484
662,135633472,0.19259475,-0.88039136,-0.2507255,-0.35349178,10.099045753479004,0.7010020017623901,0.16976013779640198,75.0669937133789,-45.44374465942383, 26.910890579223633
663,135650139,0.2079384,-0.8780076,-0.25425294,-0.34816808,7.38309907913208,5.179466247558594,1.8948816061019897,112.83997344970703,-5.327137470245361, 19.049104690551758
664,135666806,0.21248065,-0.8756588,-0.25444567,-0.35118705,5.041398525238037,7.015486717224121,1.4164607524871826,25.054759979248047,30.769216537475586, 1.5289652347564697
665,135683473,0.20519955,-0.87365335,-0.2507941,-0.3629418,6.256305694580078,4.75053596496582,0.3784002661705017,-71.140869140625,67.4237289428711, -15.968548774719238
666,135700140,0.19586936,-0.8694797,-0.24678002,-0.38044888,5.898845672607422,2.3257503509521484,-0.03256228566169739,-91.1846923828125,104.32129669189453, -30.72068214416504
667,135716807,0.18968646,-0.8622643,-0.24397045,-0.40124694,5.590527534484863,0.5199548602104187,-1.2763218879699707,-70.69799041748047,135.6360321044922, -39.26839828491211
668,135733474,0.18822671,-0.8518283,-0.24350356,-0.42387125,6.176567554473877,0.26034030318260193,-1.8650083541870117,-35.101409912109375,160.20529174804688, -47.91088104248047
669,135750141,0.18667096,-0.83934975,-0.24362387,-0.44865906,7.228914260864258,0.47845643758773804,-2.33976411819458,-34.93993377685547,177.90736389160156, -57.84902572631836
670,135766808,0.1832241,-0.8253853,-0.242695,-0.4756773,7.9629058837890625,0.03291788697242737,-3.1654229164123535,-50.92797088623047,193.54302978515625, -62.977760314941406
671,135783475,0.17989086,-0.8093124,-0.2416421,-0.5042456,8.342949867248535,-0.21212126314640045,-3.8928134441375732,-50.630699157714844,209.5917510986328, -67.37865447998047
672,135800142,0.17760237,-0.7908301,-0.24191727,-0.53340703,8.78596305847168,-0.10475891828536987,-4.2734150886535645,-38.22875213623047,221.36309814453125, -75.89286804199219
673,135816809,0.17561567,-0.77004427,-0.24382034,-0.56280035,9.453699111938477,0.25778427720069885,-4.4413886070251465,-28.20047950744629,229.6201171875, -87.76124572753906
674,135833476,0.17265904,-0.74729896,-0.24617352,-0.5925652,10.275574684143066,0.012273760512471199,-4.485352039337158,-29.861021041870117,237.0426483154297, -97.63825225830078
675,135850143,0.1690496,-0.7225578,-0.24926643,-0.6222543,10.852424621582031,-0.5641433596611023,-4.605339050292969,-27.715923309326172,242.84925842285156, -107.40058135986328
676,135866810,0.16560785,-0.6957334,-0.25366703,-0.6512938,11.663747787475586,-0.7975334525108337,-4.551795959472656,-17.76580810546875,247.3592071533203, -116.01959228515625
677,135883477,0.16230547,-0.6669462,-0.25912747,-0.67948085,12.559896469116211,-0.8819077610969543,-4.049532413482666,-8.645391464233398,251.17176818847656, -122.9500732421875
678,135900144,0.15967603,-0.6360473,-0.2658332,-0.70659864,13.578193664550781,-1.3404285907745361,-3.7532973289489746,4.50909423828125,256.0106201171875, -128.1240234375
679,135916811,0.15903157,-0.6032707,-0.27463537,-0.73167646,14.290575981140137,-2.0030720233917236,-4.098073482513428,29.1569881439209,257.61151123046875, -128.88995361328125
680,135933478,0.16114317,-0.5688994,-0.28685024,-0.75372744,14.642297744750977,-2.247765302658081,-4.777101039886475,65.20797729492188,254.63955688476562, -128.9469757080078
681,135950145,0.16500954,-0.5347195,-0.30150464,-0.7719738,14.17705249786377,-1.5550481081008911,-5.229650497436523,92.00308990478516,239.62693786621094, -124.87422943115234
682,135966812,0.16788742,-0.5039129,-0.31489614,-0.7865925,13.204533576965332,-1.2165907621383667,-6.2462897300720215,85.32804870605469,207.86392211914062, -114.43585968017578
683,135983479,0.16845591,-0.47986534,-0.32373047,-0.7978422,9.915117263793945,-2.5056068897247314,-9.208304405212402,52.13872146606445,160.0051727294922, -92.67744445800781
684,136000146,0.16661623,-0.466362,-0.32848665,-0.8042659,6.502583980560303,-3.8564541339874268,-11.279672622680664,20.311067581176758,85.7442626953125, -63.44906997680664
685,136016813,0.16418378,-0.4642411,-0.33255103,-0.804323,7.498095512390137,-5.664264678955078,-11.622057914733887,15.877927780151367,2.002211332321167, -31.590715408325195
686,136033480,0.16448623,-0.4700994,-0.3397493,-0.79782397,8.428030014038086,-4.460003852844238,-8.98720645904541,47.880611419677734,-60.16773223876953, -0.9355490803718567
687,136050147,0.16511987,-0.4813598,-0.34446582,-0.7889063,9.324252128601074,-2.079777717590332,-5.866074562072754,34.8411750793457,-93.90756225585938, 24.157535552978516
688,136066814,0.16474755,-0.49575967,-0.34440362,-0.78004396,11.726920127868652,4.721136093139648,1.9016884565353394,1.8660430908203125,-107.61407470703125, 41.82323455810547
689,136083481,0.15441822,-0.5112478,-0.33162472,-0.7776937,15.751384735107422,10.152170181274414,8.683207511901855,-116.94636535644531,-100.41590118408203, 26.996789932250977
