PacketCounter,SampleTimeFine,Quat_W,Quat_X,Quat_Y,Quat_Z,Acc_X,Acc_Y,Acc_Z,Gyr_X,Gyr_Y,Gyr_Z 
1,106191738,-0.010942516,0.7404625,-0.007953586,-0.6719616,0,0,0,0,0, 0
2,106208405,-0.011442262,0.7404068,-0.0077137835,-0.67201746,-9.715007781982422,-0.14929507672786713,-1.066595196723938,-0.012793541885912418,-2.9387240409851074, 0.36146560311317444
3,106225072,-0.012159864,0.7408172,-0.007350145,-0.6715565,-9.688257217407227,-0.11131802946329117,-1.0696220397949219,0.4067360758781433,-2.602276086807251, 0.4288910925388336
4,106241739,-0.012542632,0.7412006,-0.0070872298,-0.6711291,-9.691295623779297,-0.06382796913385391,-1.078894853591919,0.503231942653656,-2.9168894290924072, 0.45195531845092773
5,106258406,-0.012648698,0.741502,-0.0070350934,-0.6707946,-9.690632820129395,-0.09311208873987198,-1.0678986310958862,0.4364852011203766,-2.8235056400299072, 0.3707118332386017
6,106275073,-0.012556208,0.74165493,-0.006865518,-0.6706291,-9.689998626708984,-0.1104881763458252,-1.065330982208252,0.6839295029640198,-3.1244289875030518, 0.3733755350112915
7,106291740,-0.012598294,0.741728,-0.0068693934,-0.67054754,-9.672197341918945,-0.09915882349014282,-1.0706348419189453,0.9521328806877136,-2.981382131576538, 0.48470112681388855
8,106308407,-0.012469516,0.7417521,-0.006747606,-0.67052454,-9.675984382629395,-0.07467897236347198,-1.0496786832809448,0.5408569574356079,-2.909884214401245, 0.5720148086547852
9,106325074,-0.01232467,0.7417376,-0.006654238,-0.67054397,-9.725784301757812,-0.09230140596628189,-0.9902254939079285,-0.2373400777578354,-2.69977068901062, 0.4188893139362335
10,106341741,-0.012153808,0.7416501,-0.006545784,-0.67064494,-9.703619956970215,-0.06694186478853226,-0.9787082672119141,-0.7297185659408569,-2.6437811851501465, 0.3995901048183441
11,106358408,-0.0120438365,0.7414918,-0.006557021,-0.67082196,-9.66724967956543,-0.09306278079748154,-1.0713411569595337,-0.6717826128005981,-2.820688009262085, 0.507509171962738
12,106375075,-0.0119244065,0.7413767,-0.0065282816,-0.67095137,-9.652594566345215,-0.10794509947299957,-1.1203374862670898,0.09285244345664978,-2.451686143875122, 0.4760056436061859
13,106391742,-0.011909703,0.74126625,-0.006598845,-0.6710731,-9.667020797729492,-0.07090593874454498,-1.019405484199524,0.2700667083263397,-2.6049394607543945, 0.4977763891220093
14,106408409,-0.011911929,0.7411417,-0.0066957893,-0.6712095,-9.712180137634277,-0.10067453235387802,-1.0256520509719849,0.24202078580856323,-2.5462992191314697, 0.47256067395210266
15,106425076,-0.011935164,0.74099135,-0.0068019563,-0.67137396,-9.706273078918457,-0.07538825273513794,-1.0330595970153809,0.3252108693122864,-2.669726848602295, 0.46186742186546326
16,106441743,-0.012070843,0.740823,-0.0070132674,-0.67155534,-9.695233345031738,-0.09215394407510757,-1.049058198928833,0.6956601738929749,-2.7582576274871826, 0.3856184184551239
17,106458410,-0.012072084,0.74064976,-0.0070615723,-0.67174584,-9.651286125183105,-0.040605440735816956,-1.0954872369766235,0.7203507423400879,-2.7914130687713623, 0.3377739191055298
18,106475077,-0.012070924,0.740478,-0.0071138227,-0.6719346,-9.651901245117188,-0.051286447793245316,-1.1293761730194092,0.35576680302619934,-2.8447256088256836, 0.2539179027080536
19,106491744,-0.012091971,0.740324,-0.007218923,-0.67210263,-9.653736114501953,-0.05072254315018654,-1.0685539245605469,0.05456145480275154,-2.7541465759277344, 0.3165281414985657
20,106508411,-0.0121222325,0.7401769,-0.0073414315,-0.6722627,-9.678471565246582,-0.05471288040280342,-1.0410048961639404,0.008637882769107819,-2.6610569953918457, 0.31924310326576233
21,106525078,-0.012166285,0.7400512,-0.0074621765,-0.67239904,-9.709383010864258,-0.06446383148431778,-0.9646623134613037,-0.15284380316734314,-2.3854005336761475, 0.21056842803955078
22,106541745,-0.012200156,0.73989236,-0.007550751,-0.6725723,-9.698650360107422,-0.07948877662420273,-0.9885334372520447,-0.5194639563560486,-2.5897769927978516, 0.08753781020641327
23,106558412,-0.012234534,0.7397344,-0.007657608,-0.6727443,-9.71395492553711,-0.11507878452539444,-1.0395258665084839,-0.13741213083267212,-2.4920132160186768, 0.22788256406784058
24,106575079,-0.012225554,0.7395612,-0.007700358,-0.6729343,-9.682512283325195,-0.05237634479999542,-1.104768991470337,-0.5748385787010193,-2.6376852989196777, 0.16423504054546356
25,106591746,-0.012167715,0.7393973,-0.0077136043,-0.67311525,-9.65976333618164,-0.061439741402864456,-1.1334228515625,-0.9148727655410767,-2.591646671295166, 0.23021334409713745
26,106608413,-0.012092097,0.7392167,-0.007721272,-0.67331505,-9.66989517211914,-0.06809476763010025,-1.148603081703186,-1.1206581592559814,-2.8223659992218018, 0.2763674557209015
27,106625080,-0.012162608,0.73904663,-0.007874158,-0.6734985,-9.679308891296387,-0.11362770944833755,-1.0949792861938477,-0.36594143509864807,-2.7465779781341553, 0.27958184480667114
28,106641747,-0.012255724,0.73887765,-0.008041768,-0.67368007,-9.683976173400879,-0.08290064334869385,-1.003050684928894,0.03069041483104229,-2.7367937564849854, 0.30621904134750366
29,106658414,-0.0123167485,0.7387134,-0.008189562,-0.6738574,-9.686820030212402,-0.06510506570339203,-1.0322585105895996,0.07914964109659195,-2.6368017196655273, 0.39278995990753174
30,106675081,-0.012443002,0.73856735,-0.008381374,-0.6740128,-9.653799057006836,-0.0825987160205841,-1.0752874612808228,0.42553579807281494,-2.4135231971740723, 0.29333585500717163
31,106691748,-0.012628753,0.7384381,-0.0086282315,-0.6741478,-9.639368057250977,-0.06296028941869736,-1.0589792728424072,0.8868589997291565,-2.2327616214752197, 0.295743465423584
32,106708415,-0.012798072,0.7383257,-0.008838063,-0.6742651,-9.719111442565918,-0.06341101229190826,-0.9373747110366821,0.7686948180198669,-2.05739164352417, 0.19261392951011658
33,106725082,-0.012893074,0.7381782,-0.008958906,-0.6744231,-9.775030136108398,-0.03830931335687637,-0.9862347841262817,0.05782707780599594,-2.359762191772461, 0.09733467549085617
34,106741749,-0.013001598,0.7380142,-0.009079767,-0.67459875,-9.685089111328125,-0.10570257902145386,-1.085524320602417,0.011019863188266754,-2.4873132705688477, 0.014695287682116032
35,106758416,-0.0131767485,0.73783565,-0.009261593,-0.67478836,-9.660486221313477,-0.048470593988895416,-1.1377179622650146,0.43830370903015137,-2.6380183696746826, 0.019049447029829025
36,106775083,-0.013282492,0.73762846,-0.009378366,-0.6750112,-9.64119815826416,-0.05948960408568382,-1.1669665575027466,-0.035460785031318665,-2.9716367721557617, 0.025465426966547966
37,106791750,-0.013363705,0.73740155,-0.00945317,-0.67525643,-9.640812873840332,-0.050080303102731705,-1.1643303632736206,-0.3367173671722412,-3.218569040298462, -0.06985864043235779
38,106808417,-0.013410233,0.7371777,-0.009463458,-0.6754996,-9.662785530090332,-0.022594178095459938,-1.17449951171875,-1.003595232963562,-3.2323741912841797, -0.2574460506439209
39,106825084,-0.013466795,0.7369569,-0.009498533,-0.67573893,-9.639678955078125,-0.0859851986169815,-1.118079662322998,-0.6507290601730347,-3.2283272743225098, -0.17586961388587952
40,106841751,-0.0135947205,0.7367479,-0.009620509,-0.67596257,-9.692368507385254,-0.11151663213968277,-1.0216450691223145,-0.15447020530700684,-3.1040031909942627, -0.08327969908714294
41,106858418,-0.01372547,0.7365406,-0.00978779,-0.67618334,-9.703763008117676,-0.11092809587717056,-0.9863386154174805,0.10537705570459366,-3.0562996864318848, 0.15197937190532684
42,106875085,-0.01388588,0.7363394,-0.00998514,-0.6763964,-9.70088005065918,-0.10086812824010849,-1.0545902252197266,0.4070306122303009,-2.9599573612213135, 0.18052472174167633
43,106891752,-0.014063323,0.736159,-0.010206744,-0.67658556,-9.644637107849121,-0.06513926386833191,-1.0881304740905762,0.7156251668930054,-2.7346808910369873, 0.23966443538665771
44,106908419,-0.014267182,0.7359692,-0.010454034,-0.6767842,-9.655867576599121,-0.03633790463209152,-1.0542157888412476,0.8253628611564636,-2.8339297771453857, 0.23579691350460052
45,106925086,-0.014459587,0.73577815,-0.01065921,-0.67698455,-9.697418212890625,-0.036131348460912704,-1.074110984802246,0.7792343497276306,-2.8461601734161377, 0.08591140061616898
46,106941753,-0.014708801,0.73556113,-0.010907197,-0.67721105,-9.710975646972656,-0.054035697132349014,-1.1081476211547852,1.117795705795288,-3.102491855621338, 0.023442022502422333
47,106958420,-0.01499141,0.73534507,-0.011178435,-0.6774349,-9.678980827331543,-0.09103883057832718,-1.1077932119369507,1.4373013973236084,-3.094334125518799, -0.012870380654931068
48,106975087,-0.015289142,0.73512065,-0.011453483,-0.6776672,-9.681770324707031,-0.04385840892791748,-1.0861493349075317,1.426992416381836,-3.1884608268737793, -0.06392929702997208
49,106991754,-0.015534947,0.7348954,-0.011694864,-0.6779017,-9.7078275680542,-0.12856410443782806,-1.0708050727844238,1.1795353889465332,-3.206249475479126, 0.018204228952527046
50,107008421,-0.015794616,0.73468375,-0.011943456,-0.678121,-9.66441822052002,-0.07449432462453842,-1.075632095336914,1.0795559883117676,-3.0702965259552, -0.01485536340624094
51,107025088,-0.01597145,0.73447657,-0.012136201,-0.6783377,-9.673246383666992,-0.07232926785945892,-1.075657844543457,0.47216373682022095,-3.0402019023895264, 0.09631016105413437
52,107041755,-0.01614877,0.734277,-0.0123381065,-0.6785459,-9.743009567260742,-0.11672054976224899,-0.9813384413719177,0.38218629360198975,-2.966130018234253, 0.12931211292743683
53,107058422,-0.016301483,0.7340787,-0.012500739,-0.6787538,-9.760392189025879,-0.1318787932395935,-1.00486159324646,0.18381594121456146,-2.9466257095336914, 0.06385886669158936
54,107075089,-0.016517073,0.7338937,-0.012724424,-0.67894435,-9.712138175964355,-0.146287739276886,-1.0313687324523926,0.7159581780433655,-2.7887492179870605, 0.08153162896633148
55,107091756,-0.016704079,0.7337206,-0.012951411,-0.67912245,-9.71827220916748,-0.08271005004644394,-1.042943000793457,0.6468551754951477,-2.666269063949585, 0.24706648290157318
56,107108423,-0.01687215,0.7335295,-0.013148414,-0.67932093,-9.65544605255127,-0.0359763465821743,-1.1048216819763184,0.4270213544368744,-2.856379508972168, 0.19064173102378845
57,107125090,-0.017031955,0.73332155,-0.013350726,-0.6795377,-9.643662452697754,-0.0490429513156414,-1.1614216566085815,0.40656962990760803,-3.039510726928711, 0.2530086636543274
58,107141757,-0.017272785,0.73310184,-0.0136078065,-0.67976344,-9.637097358703613,-0.055033788084983826,-1.125531792640686,1.084883451461792,-3.16361665725708, 0.150288924574852
59,107158424,-0.017476367,0.7328965,-0.013831633,-0.6799753,-9.687087059020996,-0.04474427551031113,-1.0496960878372192,0.7290462255477905,-3.0433905124664307, 0.15074993669986725
60,107175091,-0.017671512,0.73269624,-0.014069024,-0.6801811,-9.69629955291748,-0.12084822356700897,-1.0436763763427734,0.7694631814956665,-2.9909873008728027, 0.2552497982978821
61,107191758,-0.017901823,0.73254025,-0.01434227,-0.6803372,-9.675207138061523,-0.10993851721286774,-1.0318697690963745,1.0898139476776123,-2.5355546474456787, 0.26735174655914307
62,107208425,-0.018144088,0.73241353,-0.014633681,-0.68046093,-9.652656555175781,-0.07415555417537689,-1.0288341045379639,1.3053256273269653,-2.2372310161590576, 0.30724993348121643
63,107225092,-0.01840431,0.73229235,-0.014919618,-0.6805781,-9.665761947631836,-0.02519194968044758,-1.0421955585479736,1.4020071029663086,-2.1838924884796143, 0.1972241848707199
64,107241759,-0.018637825,0.7321621,-0.015162937,-0.6807066,-9.66742992401123,-0.03593607619404793,-1.09678316116333,1.0314682722091675,-2.291196823120117, 0.10120218247175217
65,107258426,-0.018900152,0.732045,-0.015405916,-0.6808197,-9.688154220581055,-0.0987149327993393,-1.097025990486145,1.1734522581100464,-2.1682560443878174, -0.04305494949221611
66,107275093,-0.01912671,0.73192245,-0.015611428,-0.6809405,-9.743685722351074,-0.08531200140714645,-1.0564391613006592,0.843944787979126,-2.246951103210449, -0.05654003471136093
67,107291760,-0.019351173,0.7317797,-0.015800409,-0.68108314,-9.686944007873535,-0.102743960916996,-1.089003086090088,0.7775055170059204,-2.460496664047241, -0.12126332521438599
68,107308427,-0.019520992,0.7316307,-0.015928112,-0.6812355,-9.689435005187988,-0.05496314540505409,-1.039605736732483,0.11076852679252625,-2.5531251430511475, -0.17510122060775757
69,107325094,-0.019640606,0.731462,-0.016000587,-0.6814115,-9.68994140625,-0.09169308096170425,-1.1044071912765503,-0.30030888319015503,-2.7715373039245605, -0.2073475867509842
70,107341761,-0.019772083,0.73129797,-0.016081324,-0.6815818,-9.703375816345215,-0.08442749828100204,-1.0575417280197144,-0.23568809032440186,-2.7364609241485596, -0.22271524369716644
71,107358428,-0.019851223,0.73110366,-0.016116159,-0.68178725,-9.676289558410645,-0.035305216908454895,-1.0769063234329224,-0.7266707420349121,-3.06435489654541, -0.19968944787979126
72,107375095,-0.019930877,0.7309095,-0.016133808,-0.6819928,-9.667494773864746,-0.07148180156946182,-1.1151331663131714,-0.8297234177589417,-3.078505754470825, -0.29461008310317993
73,107391762,-0.020040043,0.7307168,-0.016182644,-0.6821947,-9.67568302154541,-0.0821341872215271,-1.0900229215621948,-0.5029566884040833,-3.068120241165161, -0.27486270666122437
74,107408429,-0.02015764,0.73053294,-0.016245794,-0.6823867,-9.680278778076172,-0.08314625918865204,-1.0672008991241455,-0.39744508266448975,-2.9903085231781006, -0.24405060708522797
75,107425096,-0.02022999,0.7303407,-0.01627784,-0.6825895,-9.67699146270752,-0.09513907879590988,-1.0913091897964478,-0.671385645866394,-3.0938730239868164, -0.1777777373790741
76,107441763,-0.02034573,0.7301612,-0.016361604,-0.6827761,-9.653892517089844,-0.1277478039264679,-1.1196260452270508,-0.2798187732696533,-2.96596360206604, -0.12785860896110535
77,107458430,-0.020472048,0.72999394,-0.016459411,-0.68294865,-9.684847831726074,-0.08668085187673569,-1.086946964263916,-0.1115817204117775,-2.85477876663208, -0.10145190358161926
78,107475097,-0.020589806,0.7298319,-0.01657318,-0.68311554,-9.676748275756836,-0.09582288563251495,-1.111817717552185,-0.07060141116380692,-2.81404185295105, 0.01912628300487995
79,107491764,-0.020772655,0.7296845,-0.016746104,-0.68326336,-9.645946502685547,-0.09785077720880508,-1.1058945655822754,0.5119402408599854,-2.6667561531066895, 0.006460803560912609
80,107508431,-0.020980591,0.7295624,-0.016931254,-0.68338263,-9.680914878845215,-0.05524590611457825,-1.0236833095550537,0.7101696729660034,-2.422013759613037, -0.053837891668081284
81,107525098,-0.021154724,0.7294475,-0.017070424,-0.68349636,-9.70236873626709,-0.054679129272699356,-1.0301101207733154,0.25834891200065613,-2.373349666595459, -0.1337110996246338
82,107541765,-0.021332715,0.7293393,-0.017197847,-0.68360317,-9.704747200012207,-0.1230856329202652,-1.057350516319275,0.3087034523487091,-2.3190505504608154, -0.2091917246580124
83,107558432,-0.021580433,0.729236,-0.017395988,-0.68370056,-9.665645599365234,-0.08236299455165863,-1.0939245223999023,0.9887334704399109,-2.259770154953003, -0.18000605702400208
84,107575099,-0.021815376,0.7291612,-0.017563222,-0.6837687,-9.670146942138672,-0.08302263170480728,-1.0799931287765503,0.728469967842102,-1.999890923500061, -0.28545352816581726
85,107591766,-0.021908594,0.7290865,-0.017595079,-0.6838446,-9.734471321105957,-0.032671842724084854,-0.97276371717453,-0.578001856803894,-2.0572378635406494, -0.2939825654029846
86,107608433,-0.02194543,0.72893226,-0.017557152,-0.6840089,-9.722601890563965,-0.05844491347670555,-1.1107892990112305,-1.2142213582992554,-2.883324146270752, -0.36226603388786316
87,107625100,-0.022074707,0.72876394,-0.017616523,-0.68418264,-9.679333686828613,-0.1456550657749176,-1.1784164905548096,-0.3085690140724182,-3.012092113494873, -0.3094782531261444
88,107641767,-0.022265114,0.72858864,-0.01771178,-0.6843605,-9.653533935546875,-0.0952301025390625,-1.198826551437378,0.22328512370586395,-3.0930795669555664, -0.4062942862510681
89,107658434,-0.022344934,0.7284215,-0.017735576,-0.68453515,-9.729225158691406,-0.0706547424197197,-1.0986727476119995,-0.7228288054466248,-3.0646235942840576, -0.2476619929075241
90,107675101,-0.022374496,0.72824407,-0.017707117,-0.68472373,-9.679100036621094,-0.04358973726630211,-1.070739507675171,-1.1546716690063477,-3.2022531032562256, -0.26676905155181885
91,107691768,-0.022312034,0.72804826,-0.01759714,-0.6849368,-9.667134284973145,-0.04986343905329704,-1.0700963735580444,-1.9837549924850464,-3.4293618202209473, -0.2385951280593872
92,107708435,-0.022256957,0.7278493,-0.017484955,-0.6851529,-9.728384971618652,-0.09014633297920227,-1.0639673471450806,-1.936179518699646,-3.4767582416534424, -0.2857224941253662
93,107725102,-0.022222301,0.72764397,-0.017379088,-0.68537474,-9.681682586669922,-0.10725482553243637,-1.1350840330123901,-1.8264418840408325,-3.5541725158691406, -0.34983110427856445
94,107741769,-0.022206241,0.7274358,-0.017296648,-0.68559825,-9.652458190917969,-0.14576207101345062,-1.1706111431121826,-1.651980996131897,-3.597419261932373, -0.3197617828845978
95,107758436,-0.02218724,0.72725034,-0.017197408,-0.6857982,-9.696650505065918,-0.08084534108638763,-1.0470525026321411,-1.7315468788146973,-3.4022765159606934, -0.39054250717163086
96,107775103,-0.02214485,0.7270315,-0.017055327,-0.6860351,-9.696084976196289,-0.037582818418741226,-1.1102912425994873,-2.0253498554229736,-3.7642343044281006, -0.4843105375766754
97,107791770,-0.022203697,0.7268185,-0.017000934,-0.68626004,-9.65788745880127,-0.12948022782802582,-1.1485106945037842,-1.1622532606124878,-3.6987690925598145, -0.5335894823074341
98,107808437,-0.022349117,0.72661537,-0.01701007,-0.6864703,-9.64487075805664,-0.14580723643302917,-1.1545723676681519,-0.42675885558128357,-3.6047699451446533, -0.624347984790802
99,107825104,-0.022493279,0.72641146,-0.01704141,-0.6866805,-9.63479995727539,-0.1483173370361328,-1.1965563297271729,-0.18752339482307434,-3.629678249359131, -0.494709312915802
100,107841771,-0.02272571,0.7262299,-0.017151244,-0.68686223,-9.625967979431152,-0.15498891472816467,-1.1613726615905762,0.587881863117218,-3.4113552570343018, -0.5236260294914246
101,107858438,-0.022989923,0.72605747,-0.017287208,-0.6870324,-9.628649711608887,-0.09676637500524521,-1.1393709182739258,0.8564310073852539,-3.3378982543945312, -0.5415420532226562
102,107875105,-0.023288773,0.72589916,-0.017476786,-0.68718463,-9.631649017333984,-0.08309581875801086,-1.0870956182479858,1.2415052652359009,-3.204007625579834, -0.4436887800693512
103,107891772,-0.023609249,0.7257468,-0.017655505,-0.68733,-9.639959335327148,-0.06007950007915497,-1.0824304819107056,1.3533687591552734,-3.167189836502075, -0.5993756651878357
104,107908439,-0.02393458,0.72559935,-0.017846873,-0.6874696,-9.655426979064941,-0.12691698968410492,-1.1072636842727661,1.403479814529419,-3.1358139514923096, -0.5650161504745483
105,107925106,-0.024309957,0.7254864,-0.018069303,-0.6875699,-9.678018569946289,-0.16202014684677124,-1.069169044494629,1.768601894378662,-2.8031563758850098, -0.6562229990959167
106,107941773,-0.024557479,0.72536325,-0.018167403,-0.6876884,-9.760377883911133,-0.09070203453302383,-0.9449735879898071,0.5228384733200073,-2.9682047367095947, -0.6637019515037537
107,107958440,-0.024765497,0.72521317,-0.018262452,-0.68783665,-9.774362564086914,-0.13726980984210968,-0.9905993938446045,0.3094717860221863,-3.251429319381714, -0.4848868250846863
108,107975107,-0.025052747,0.72508705,-0.01839849,-0.6879556,-9.681751251220703,-0.13171552121639252,-1.077085256576538,0.953900158405304,-3.0108237266540527, -0.6577597260475159
109,107991774,-0.025361326,0.724946,-0.018538246,-0.6880892,-9.631345748901367,-0.0921606570482254,-1.152718424797058,1.0152937173843384,-3.1792147159576416, -0.7369413375854492
110,108008441,-0.02573881,0.72482055,-0.018755285,-0.6882014,-9.627374649047852,-0.13334907591342926,-1.1499511003494263,1.7628130912780762,-3.0235791206359863, -0.6822967529296875
111,108025108,-0.026108626,0.7246959,-0.018930715,-0.68831384,-9.674955368041992,-0.0816977396607399,-1.0678751468658447,1.5398290157318115,-3.0552620887756348, -0.8507385849952698
112,108041775,-0.026437199,0.7245691,-0.019059869,-0.68843114,-9.684041023254395,-0.12421442568302155,-1.0840603113174438,1.0949876308441162,-3.1161177158355713, -0.8880434632301331
113,108058442,-0.026758073,0.72443885,-0.019165745,-0.68855304,-9.654094696044922,-0.13818469643592834,-1.1285960674285889,0.9556673765182495,-3.182262420654297, -0.9650352001190186
114,108075109,-0.02705847,0.7243269,-0.019265264,-0.6886563,-9.6175537109375,-0.15115027129650116,-1.1517350673675537,0.7862905859947205,-3.028855085372925, -0.9059596061706543
115,108091776,-0.027358033,0.7242381,-0.019367002,-0.68873495,-9.656906127929688,-0.13867510855197906,-1.101090908050537,0.781987726688385,-2.8265535831451416, -0.8968927264213562
116,108108443,-0.027664227,0.7241278,-0.019468017,-0.68883586,-9.725977897644043,-0.1833937168121338,-1.05143141746521,0.8434325456619263,-3.0645337104797363, -0.9223644733428955
117,108125110,-0.028096316,0.7240271,-0.019665211,-0.68891853,-9.709867477416992,-0.21686400473117828,-1.0500603914260864,1.9291677474975586,-2.948725938796997, -1.040093183517456
118,108141777,-0.028645923,0.723972,-0.019865813,-0.6889481,-9.673568725585938,-0.11494014412164688,-1.0893921852111816,2.495349645614624,-2.5059211254119873, -1.5912020206451416
119,108158444,-0.02911219,0.72391725,-0.02004536,-0.68898076,-9.62690258026123,-0.18293222784996033,-1.1573477983474731,1.9945826530456543,-2.538064956665039, -1.301010012626648
120,108175111,-0.02963131,0.72387606,-0.020282252,-0.6889952,-9.606733322143555,-0.196198508143425,-1.1362682580947876,2.5751452445983887,-2.4081315994262695, -1.2657538652420044
121,108191778,-0.030095011,0.7238269,-0.020495215,-0.6890205,-9.697836875915527,-0.12447331845760345,-1.05353844165802,2.141035795211792,-2.5257833003997803, -1.1170722246170044
122,108208445,-0.030522034,0.7237741,-0.02068491,-0.6890514,-9.742385864257812,-0.14391233026981354,-0.9818539619445801,1.7550013065338135,-2.5940282344818115, -1.063490390777588
123,108225112,-0.031029778,0.72372645,-0.020947648,-0.68907076,-9.725580215454102,-0.16511942446231842,-1.0090880393981934,2.5091164112091064,-2.5256686210632324, -1.0855175256729126
124,108241779,-0.0316486,0.7237015,-0.021300739,-0.689058,-9.649611473083496,-0.18142972886562347,-1.067972183227539,3.4827699661254883,-2.2743566036224365, -1.1712560653686523
125,108258446,-0.03228478,0.7236727,-0.021654746,-0.68904775,-9.658903121948242,-0.16075578331947327,-1.0975724458694458,3.5520267486572266,-2.3312296867370605, -1.2464293241500854
126,108275113,-0.0327952,0.72364193,-0.02188789,-0.6890486,-9.71829605102539,-0.12402485311031342,-1.0416713953018188,2.378119945526123,-2.42864727973938, -1.2474794387817383
127,108291780,-0.03319091,0.72361434,-0.021969674,-0.68905616,-9.74188232421875,-0.09533415734767914,-1.0058763027191162,1.1094461679458618,-2.484534502029419, -1.4580926895141602
128,108308447,-0.03356221,0.72358984,-0.021969968,-0.6890638,-9.766243934631348,-0.19201605021953583,-1.090208888053894,0.586972713470459,-2.503718614578247, -1.7547390460968018
129,108325114,-0.03407093,0.72356415,-0.022114633,-0.68906116,-9.713766098022461,-0.30493712425231934,-1.1268024444580078,1.8809903860092163,-2.471203088760376, -1.6926153898239136
130,108341781,-0.03457599,0.72357196,-0.022287985,-0.6890221,-9.673912048339844,-0.21456649899482727,-1.075716495513916,2.035703659057617,-2.1506597995758057, -1.535711646080017
131,108358448,-0.034939762,0.7235585,-0.02234724,-0.68901604,-9.642436027526855,-0.15567836165428162,-1.057283639907837,0.732427179813385,-2.4454619884490967, -1.4241684675216675
132,108375115,-0.035326045,0.72350603,-0.02239936,-0.6890497,-9.60310173034668,-0.18780815601348877,-1.1772621870040894,0.8380154371261597,-2.854829788208008, -1.5523344278335571
133,108391782,-0.035766274,0.7234463,-0.022455718,-0.6890879,-9.669137001037598,-0.1968124508857727,-1.1374976634979248,1.0795304775238037,-2.949955463409424, -1.7876896858215332
134,108408449,-0.036127277,0.72338504,-0.02241227,-0.68913484,-9.650425910949707,-0.14837133884429932,-1.1148748397827148,0.1568073332309723,-3.0413031578063965, -1.9096827507019043
135,108425116,-0.03645114,0.7233217,-0.022311393,-0.6891875,-9.714810371398926,-0.25370946526527405,-1.0594151020050049,-0.23412570357322693,-3.1129674911499023, -2.0189082622528076
136,108441783,-0.036852486,0.7232704,-0.022297442,-0.6892205,-9.718127250671387,-0.27893733978271484,-1.0906238555908203,0.4456930160522461,-2.972097873687744, -1.9640458822250366
137,108458450,-0.037329003,0.7232334,-0.022338461,-0.6892322,-9.676124572753906,-0.2813909351825714,-1.0969748497009277,1.1856309175491333,-2.818408489227295, -2.0455965995788574
138,108475117,-0.03779515,0.72321564,-0.022382168,-0.68922406,-9.63454818725586,-0.2602461278438568,-1.0696461200714111,1.066954493522644,-2.652374267578125, -1.991297721862793
139,108491784,-0.038093694,0.72320276,-0.022228986,-0.68922615,-9.6725492477417,-0.23110468685626984,-1.0251187086105347,-0.7759624123573303,-2.728994846343994, -2.176439046859741
140,108508451,-0.03843918,0.72318965,-0.022093197,-0.68922496,-9.704142570495605,-0.2557676434516907,-1.1013888120651245,-0.36440467834472656,-2.7333617210388184, -2.3101632595062256
141,108525118,-0.03886116,0.7231671,-0.022008857,-0.6892277,-9.636000633239746,-0.2746894657611847,-1.1516141891479492,0.2776865065097809,-2.8193180561065674, -2.4135870933532715
142,108541785,-0.039307136,0.72316283,-0.021947129,-0.6892089,-9.567466735839844,-0.27994799613952637,-1.192003607749939,0.545352041721344,-2.649761915206909, -2.4203362464904785
143,108558452,-0.039734546,0.72316474,-0.021857707,-0.6891853,-9.575027465820312,-0.27670300006866455,-1.2027902603149414,0.20649601519107819,-2.6337287425994873, -2.4768505096435547
144,108575119,-0.040121417,0.7231787,-0.021718984,-0.68915254,-9.614156723022461,-0.24895378947257996,-1.0847134590148926,-0.24233455955982208,-2.5694148540496826, -2.5347352027893066
145,108591786,-0.040454216,0.72323215,-0.021489577,-0.6890842,-9.665420532226562,-0.2196817398071289,-0.985174834728241,-0.9559044241905212,-2.245311737060547, -2.7482683658599854
146,108608453,-0.040689107,0.72334975,-0.021146674,-0.6889575,-9.631051063537598,-0.23992161452770233,-0.9396157264709473,-2.0409610271453857,-1.6859562397003174, -2.8826839923858643
147,108625120,-0.04090797,0.7235882,-0.020768898,-0.6887056,-9.492432594299316,-0.2946555018424988,-1.0710002183914185,-2.229598045349121,-0.508335292339325, -3.0347719192504883
148,108641787,-0.0411884,0.72400755,-0.02046202,-0.6882572,-9.46035099029541,-0.30235037207603455,-1.0653505325317383,-1.8101776838302612,1.3094044923782349, -3.06722354888916
149,108658454,-0.0415097,0.7246474,-0.020300645,-0.68756914,-9.590180397033691,-0.4730505645275116,-0.9603815078735352,-0.8762873411178589,3.5636680126190186, -2.6347784996032715
150,108675121,-0.04214339,0.7257142,-0.020532427,-0.6863974,-9.63074016571045,-0.6262338757514954,-0.8755210638046265,2.514187812805176,8.04920768737793, -2.3416800498962402
151,108691788,-0.042526264,0.72727746,-0.02063077,-0.68471426,-9.628205299377441,-0.04232213646173477,-0.3821600377559662,0.4592422842979431,12.93255615234375, -2.0330729484558105
152,108708455,-0.041995693,0.72950435,-0.02004305,-0.68239146,-9.689864158630371,-0.2800038158893585,-0.04819085821509361,-7.4318437576293945,19.214298248291016, -1.4719128608703613
153,108725122,-0.041005593,0.7324691,-0.019155558,-0.67929435,-9.873570442199707,-0.3038616180419922,-0.04923967272043228,-11.248936653137207,26.589635848999023, -1.1631144285202026
154,108741789,-0.039979775,0.7359836,-0.018219195,-0.6755722,-10.085249900817871,-0.35951855778694153,-0.4601607918739319,-11.780595779418945,32.35301208496094, -1.515893816947937
155,108758456,-0.039007667,0.74007726,-0.017374251,-0.671165,-10.433465957641602,-0.5060911178588867,-0.8555545806884766,-10.823860168457031,38.5783576965332, -1.5536240339279175
156,108775123,-0.035836328,0.7444705,-0.014277031,-0.6665402,-11.827126502990723,0.010183002799749374,0.4601397216320038,-31.966323852539062,40.76596450805664, -2.922821044921875
157,108791790,-0.030134587,0.74920464,-0.008954626,-0.6615924,-12.242005348205566,0.0706801488995552,-0.3342426121234894,-54.724666595458984,43.818992614746094, -2.8296375274658203
158,108808457,-0.02382986,0.75554967,-0.0030430853,-0.6546507,-13.767507553100586,0.13545763492584229,0.14086699485778809,-60.227569580078125,61.43391799926758, -3.623215675354004
159,108825124,-0.017117945,0.7628217,0.0034297924,-0.64637315,-14.215142250061035,-0.2741689085960388,-0.6691184639930725,-64.4891586303711,72.61642456054688, -4.917097091674805
160,108841791,-0.0098089725,0.7702043,0.010046638,-0.63764256,-14.003242492675781,1.4263827800750732,1.3015960454940796,-67.87198638916016,75.57257843017578, -3.0074245929718018
161,108858458,-0.0027891842,0.7772596,0.016328746,-0.6289619,-12.788481712341309,1.6444957256317139,0.22244718670845032,-64.8914794921875,74.15778350830078, -2.631334066390991
162,108875125,0.0019507048,0.7838774,0.02077101,-0.6205652,-11.279766082763672,1.2396032810211182,-0.48793748021125793,-44.95195007324219,71.21532440185547, -2.862239360809326
163,108891792,0.004194427,0.78988206,0.023606677,-0.6127902,-9.657526969909668,1.7719303369522095,-0.8360950946807861,-24.64494514465332,65.71285247802734, -5.047006607055664
164,108908459,0.0044590654,0.79469097,0.024932615,-0.6064856,-8.773594856262207,1.568184733390808,-0.7470868229866028,-8.048489570617676,53.05131912231445, -5.721282958984375
165,108925126,0.0034669226,0.7976761,0.024850857,-0.602564,-8.185190200805664,1.0051730871200562,1.3768373727798462,5.0717244148254395,32.69603729248047, -3.751647472381592
166,108941793,0.0021361276,0.79817396,0.02364871,-0.60195905,-7.2942914962768555,1.0349842309951782,2.990835189819336,12.092522621154785,4.449216365814209, 0.42461398243904114
167,108958460,0.0042609056,0.7957626,0.024172725,-0.6051112,-7.630746841430664,2.2778539657592773,3.992741584777832,-13.44040298461914,-28.450166702270508, 4.6615471839904785
168,108975127,0.01054269,0.7906388,0.026465017,-0.61161983,-7.532715797424316,1.1023598909378052,3.8250668048858643,-43.04690170288086,-58.37757873535156, 11.598848342895508
169,108991794,0.01882595,0.7828751,0.029659709,-0.62118644,-8.07311725616455,0.29401156306266785,3.3710408210754395,-57.366249084472656,-86.05630493164062, 14.352032661437988
170,109008461,0.028438624,0.77259755,0.03400838,-0.6333468,-8.365367889404297,-0.6009186506271362,2.4931135177612305,-69.2732162475586,-110.56137084960938, 12.971805572509766
171,109025128,0.0381161,0.7601871,0.039318316,-0.6473925,-8.972982406616211,-1.4653061628341675,1.659972906112671,-73.81900024414062,-129.43865966796875, 7.344691276550293
172,109041795,0.04658239,0.74603873,0.045100402,-0.6627386,-9.372660636901855,-1.9125896692276,1.0311388969421387,-69.73908233642578,-143.33163452148438, -1.2027775049209595
173,109058462,0.053037096,0.7304458,0.050880592,-0.6790047,-9.86645793914795,-1.9272722005844116,0.49596142768859863,-59.634456634521484,-153.88221740722656, -10.952597618103027
174,109075129,0.05735078,0.71370083,0.056286298,-0.69582623,-10.349650382995605,-1.6534278392791748,-0.06791560351848602,-47.39670944213867,-161.36602783203125, -19.52684211730957
175,109091796,0.05977626,0.69618255,0.060991723,-0.7127669,-10.683274269104004,-1.2693719863891602,-0.5079763531684875,-35.06952667236328,-165.18630981445312, -25.3486270904541
176,109108463,0.06057416,0.6782807,0.06465528,-0.72944224,-11.075546264648438,-0.935219943523407,-0.665520429611206,-22.464113235473633,-165.5892333984375, -28.301084518432617
177,109125130,0.05997534,0.660174,0.067159206,-0.7456965,-11.50852108001709,-0.6101036071777344,-0.8116182088851929,-10.422966957092285,-164.6027374267578, -29.756195068359375
178,109141797,0.058326155,0.642255,0.06825072,-0.76121515,-11.552772521972656,-0.46616873145103455,-0.9308851957321167,1.3117427825927734,-160.52838134765625, -28.313045501708984
179,109158464,0.056016404,0.6248032,0.06788565,-0.77580583,-11.54377555847168,-0.3463970124721527,-1.043907642364502,11.595765113830566,-154.42483520507812, -24.736787796020508
180,109175131,0.053190857,0.6080234,0.06619718,-0.7893645,-11.305562019348145,-0.23387260735034943,-1.516322374343872,20.64432144165039,-146.8744354248047, -21.095352172851562
181,109191798,0.049419202,0.59254956,0.06256117,-0.80157906,-11.131559371948242,0.08917172253131866,-1.597906470298767,35.03350830078125,-134.6979217529297, -17.015897750854492
182,109208465,0.04434531,0.5787759,0.056655828,-0.81230676,-10.805084228515625,-0.49128347635269165,-1.47699773311615,52.78117752075195,-119.75341796875, -13.74310302734375
183,109225132,0.037060816,0.56697875,0.04755946,-0.8215228,-10.231976509094238,-0.9352506399154663,-1.5458945035934448,79.4230728149414,-103.0906982421875, -12.15781307220459
184,109241799,0.027945586,0.5571396,0.03556172,-0.8291864,-9.543623924255371,-0.8810905814170837,-1.5949867963790894,102.96029663085938,-86.40628814697266, -10.1179838180542
185,109258466,0.017910982,0.54922307,0.021458987,-0.83520824,-8.982793807983398,-0.13111509382724762,-1.7416232824325562,118.47315979003906,-69.62007141113281, -6.4656524658203125
186,109275133,0.008231827,0.54326,0.0067361314,-0.8394972,-8.688241958618164,0.46912121772766113,-2.0429458618164062,120.68243408203125,-52.27348327636719, -1.5597419738769531
187,109291800,-0.000110187044,0.53934747,-0.007491156,-0.84205014,-8.64240837097168,0.9955863356590271,-1.9859943389892578,112.8526382446289,-34.285308837890625, 4.506974220275879
188,109308467,-0.0066207754,0.5374874,-0.020297056,-0.8430017,-8.502406120300293,0.7446985840797424,-2.1915335655212402,97.88750457763672,-16.667253494262695, 9.724489212036133
189,109325134,-0.011187459,0.53781104,-0.030769212,-0.8424298,-7.954273223876953,0.44297969341278076,-2.9179604053497314,77.26795196533203,1.4847809076309204, 12.006230354309082
190,109341801,-0.013686327,0.5402963,-0.037229568,-0.8405396,-7.926743984222412,0.6770156621932983,-3.586621046066284,46.47983169555664,18.68994140625, 8.617925643920898
191,109358468,-0.013109886,0.5451519,-0.03814701,-0.83736664,-8.500275611877441,0.9416916370391846,-3.5261521339416504,3.104357957839966,37.07316589355469, 5.07521390914917
192,109375135,-0.008997383,0.5521147,-0.03332337,-0.83305377,-9.294504165649414,0.9120440483093262,-1.0739495754241943,-43.120662689208984,53.54124069213867, 3.2218947410583496
193,109391802,-0.0017644791,0.55919814,-0.024325248,-0.8286756,-12.191516876220703,1.9023255109786987,7.597393035888672,-78.888427734375,54.70879364013672, 5.147365570068359
194,109408469,0.0076865293,0.56384563,-0.012725558,-0.8257468,-12.613180160522461,-0.4816308915615082,10.52977180480957,-102.47174072265625,35.76353073120117, 8.070662498474121
195,109425136,0.01781873,0.5684726,-0.0009338887,-0.822509,-9.43484115600586,-1.910072922706604,3.3523805141448975,-106.1500015258789,37.23297882080078, 11.193221092224121
196,109441803,0.025875015,0.57582885,0.0074543916,-0.81712705,-10.213129997253418,-1.1873332262039185,-1.090736746788025,-78.40312957763672,60.63477325439453, 13.057486534118652
197,109458470,0.03236027,0.58533585,0.012470734,-0.8100493,-10.092044830322266,-0.8170192241668701,-0.624395489692688,-52.92815399169922,78.69432067871094, 18.02532958984375
198,109475137,0.03694496,0.5943748,0.015250622,-0.8031946,-8.655874252319336,-0.895487368106842,1.6900821924209595,-32.90227127075195,74.673583984375, 16.37592124938965
199,109491804,0.041230235,0.60150176,0.017192036,-0.79762185,-9.077410697937012,1.3970104455947876,1.2091429233551025,-27.392986297607422,58.66923522949219, 17.65882110595703
200,109508471,0.046430115,0.6083085,0.0197877,-0.7920945,-10.796059608459473,1.5705466270446777,-0.4234960973262787,-34.874393463134766,56.7569580078125, 19.836713790893555
201,109525138,0.05071952,0.61499065,0.021745436,-0.7866011,-10.692893981933594,-0.44572845101356506,0.22359886765480042,-27.654504776000977,55.710731506347656, 17.432727813720703
202,109541805,0.053276893,0.62110317,0.022017444,-0.781606,-10.20217227935791,-0.4250374138355255,0.5298069715499878,-11.339343070983887,50.09596252441406, 14.963415145874023
203,109558472,0.05522751,0.6266446,0.021490704,-0.7770489,-10.462045669555664,-0.06675869226455688,-0.299282044172287,-4.5997185707092285,44.88993835449219, 14.904243469238281
204,109575139,0.05748253,0.63188314,0.02087699,-0.7726473,-10.475144386291504,-0.1389300674200058,0.16782228648662567,-5.546189785003662,42.41975402832031, 16.825626373291016
205,109591806,0.059986193,0.6365522,0.020225456,-0.7686312,-10.128780364990234,-0.35529813170433044,0.2646259069442749,-6.6041741371154785,37.598960876464844, 18.10550880432129
206,109608473,0.062126085,0.6410068,0.01875045,-0.764787,-10.270078659057617,-0.357012540102005,0.547336220741272,-0.7332061529159546,35.37092208862305, 19.72950553894043
207,109625140,0.06319976,0.64526117,0.015986092,-0.76117563,-9.755633354187012,-0.27947375178337097,0.5636269450187683,10.680575370788574,32.84446716308594, 19.73312759399414
208,109641807,0.0636172,0.64937294,0.012519542,-0.7577012,-9.891109466552734,0.455451101064682,0.5908653140068054,17.20975112915039,31.23652458190918, 19.39642333984375
209,109658474,0.06356464,0.6534223,0.008689348,-0.7542703,-9.822503089904785,0.8774815201759338,0.5860137343406677,21.16493034362793,30.583330154418945, 18.574472427368164
210,109675141,0.0636868,0.65747505,0.0054127756,-0.7507605,-9.809601783752441,1.4201830625534058,0.5414233803749084,17.49034881591797,31.175432205200195, 17.03609275817871
211,109691808,0.06373058,0.6615095,0.00260606,-0.74721944,-9.866414070129395,1.2930107116699219,0.3539509177207947,15.39498233795166,31.424474716186523, 14.501388549804688
212,109708475,0.06353259,0.66559255,0.000037609425,-0.7436063,-9.658167839050293,1.3751431703567505,0.3742050230503082,15.278432846069336,32.09861755371094, 12.197545051574707
213,109725142,0.06336142,0.66974354,-0.0021211691,-0.73988134,-9.614593505859375,1.1658729314804077,0.45084136724472046,13.081254005432129,33.13233947753906, 10.494104385375977
214,109741809,0.06283286,0.6741794,-0.004465257,-0.73587656,-9.699759483337402,0.5876410603523254,0.06605706363916397,15.791519165039062,35.788700103759766, 9.644256591796875
215,109758476,0.061644483,0.678928,-0.007442235,-0.73157454,-9.859631538391113,-0.022059468552470207,0.29339486360549927,22.191572189331055,38.448028564453125, 9.389945983886719
216,109775143,0.059781045,0.6836465,-0.01122745,-0.727274,-9.928414344787598,0.39108482003211975,0.05493580549955368,29.39229965209961,37.92239761352539, 9.836735725402832
217,109791810,0.05747042,0.6882784,-0.015516569,-0.7230002,-9.875334739685059,0.6348176598548889,-0.7636563777923584,33.97086715698242,37.12661361694336, 10.018802642822266
218,109808477,0.055021,0.69242877,-0.019811347,-0.71911246,-9.860588073730469,0.1826251596212387,-0.8040853142738342,34.41482162475586,32.86037063598633, 9.299887657165527
219,109825144,0.05183005,0.6963291,-0.024863984,-0.71541697,-9.89687442779541,-0.2682993710041046,-0.41379475593566895,41.56221008300781,30.29829216003418, 9.274313926696777
220,109841811,0.048348106,0.69988,-0.030405452,-0.71197337,-9.7906494140625,0.9169588088989258,-0.45750880241394043,45.18458557128906,27.153276443481445, 10.250863075256348
221,109858478,0.045464605,0.70365375,-0.035111334,-0.70821726,-9.584675788879395,1.9754664897918701,-0.8012203574180603,38.345947265625,30.157470703125, 9.254454612731934
222,109875145,0.043049946,0.7076482,-0.03886116,-0.70418096,-9.450406074523926,2.204097032546997,-0.6397604942321777,31.551708221435547,32.991546630859375, 6.926679611206055
223,109891812,0.040957935,0.7117767,-0.04178932,-0.6999645,-9.264885902404785,2.1361560821533203,-0.5644378066062927,26.088525772094727,34.85143280029297, 4.472616195678711
224,109908479,0.039402444,0.7161539,-0.043858584,-0.69544774,-9.238595008850098,2.0514490604400635,-0.8012970089912415,19.486286163330078,37.92818832397461, 2.826411485671997
225,109925146,0.03825894,0.7210409,-0.045127645,-0.69036204,-9.253426551818848,1.752766728401184,-1.0820939540863037,13.943086624145508,43.51403045654297, 0.8180820345878601
226,109941813,0.036954504,0.7259967,-0.046298604,-0.6851421,-9.538183212280273,1.3419982194900513,-1.551440715789795,14.336376190185547,44.479976654052734, -0.4440763592720032
227,109958480,0.03538991,0.7307248,-0.047675133,-0.6800854,-9.623656272888184,0.9861265420913696,-1.6144698858261108,16.493745803833008,42.442100524902344, -0.6156826019287109
228,109975147,0.033658013,0.735328,-0.049276333,-0.675079,-10.00020980834961,0.6854469776153564,-1.3955658674240112,18.33611488342285,41.48503875732422, -0.22532930970191956
229,109991814,0.031779665,0.73981017,-0.05127351,-0.6701061,-9.692879676818848,0.6360540390014648,-1.4182660579681396,20.873523712158203,40.61976623535156, 1.1623064279556274
230,110008481,0.02957243,0.7443121,-0.053667508,-0.66501486,-9.748881340026855,0.7767083644866943,-1.4595863819122314,24.41741371154785,41.12350845336914, 1.7184785604476929
231,110025148,0.027451549,0.7490771,-0.0559991,-0.6595409,-9.557730674743652,1.236437439918518,-1.3807040452957153,23.882652282714844,44.3456916809082, 1.802669882774353
232,110041815,0.025941039,0.75416785,-0.057735566,-0.65362436,-9.61478328704834,1.5689996480941772,-1.1923877000808716,18.273406982421875,48.47544479370117, 1.465476393699646
233,110058482,0.02489758,0.759763,-0.05901271,-0.6470379,-9.46541690826416,1.1740583181381226,-1.5214452743530273,14.14859390258789,54.524024963378906, 1.084242582321167
234,110075149,0.02399547,0.7663107,-0.060252458,-0.6391886,-9.650463104248047,1.025037169456482,-1.24491548538208,13.919997215270996,65.45431518554688, 1.3444637060165405
235,110091816,0.023164095,0.77333486,-0.06153375,-0.63057953,-9.952886581420898,1.521433711051941,-1.6144551038742065,14.12481689453125,71.62633514404297, 1.8056203126907349
236,110108483,0.021365674,0.780763,-0.06395119,-0.62117887,-10.37450122833252,1.3071401119232178,-1.7577589750289917,24.595794677734375,77.04537963867188, 3.5949978828430176
237,110125150,0.01805083,0.78839725,-0.06742479,-0.61119395,-10.963668823242188,1.505142092704773,-1.9365334510803223,37.53626251220703,80.29830932617188, 2.788294553756714
238,110141817,0.014267072,0.796491,-0.07067273,-0.6003366,-12.021859169006348,1.922897458076477,-2.3880832195281982,39.59678268432617,86.83572387695312, -0.5076087713241577
239,110158484,0.010808299,0.80492437,-0.07358089,-0.5886984,-12.3129301071167,1.4795516729354858,-2.4384360313415527,36.8393669128418,92.7774658203125, -1.1278563737869263
240,110175151,0.007657862,0.8138413,-0.076483674,-0.5759811,-13.539217948913574,0.45333099365234375,-2.5042552947998047,35.69959259033203,100.95269012451172, -0.07059144973754883
241,110191818,0.0057214187,0.8235716,-0.079156846,-0.5616328,-15.474091529846191,-0.00908203236758709,-1.8012731075286865,28.888675689697266,114.07072448730469, 3.1561317443847656
242,110208485,0.0076049115,0.83349955,-0.079913415,-0.5466577,-17.163400650024414,-0.2272077351808548,-0.18237033486366272,0.18957576155662537,120.73523712158203, 7.029313087463379
243,110225152,0.01241852,0.8441458,-0.079486184,-0.5300432,-18.366985321044922,0.548014223575592,0.5002732872962952,-20.13147735595703,134.8163299560547, 11.007560729980469
244,110241819,0.01990086,0.8549293,-0.07798066,-0.51246357,-18.984861373901367,0.44835180044174194,2.461442470550537,-39.01451110839844,142.85064697265625, 14.510154724121094
245,110258486,0.024937334,0.86652267,-0.076966465,-0.49253726,-17.470661163330078,0.41788122057914734,2.580435037612915,-21.529565811157227,158.61279296875, 8.710047721862793
246,110275153,0.029137215,0.8773521,-0.075511135,-0.47297218,-14.929128646850586,2.8465960025787354,1.3359992504119873,-18.354055404663086,153.9894256591797, 3.6374847888946533
247,110291820,0.034043405,0.8874167,-0.07420865,-0.45368028,-11.5573091506958,5.0160231590271,-0.8170627355575562,-22.352983474731445,150.5853271484375, 7.153476238250732
248,110308487,0.037748273,0.8955525,-0.07356351,-0.4372063,-9.555113792419434,2.5900163650512695,0.19893354177474976,-14.753814697265625,126.85635375976562, 7.613588809967041
249,110325154,0.038182896,0.90119445,-0.073152244,-0.42548755,-9.072223663330078,0.3057296872138977,4.398441791534424,3.0971410274505615,88.60916900634766, -0.7917487621307373
250,110341821,0.033001255,0.90378743,-0.07389771,-0.42026,-7.616949081420898,0.8889045715332031,4.99955415725708,37.24363708496094,36.724246978759766, -10.198989868164062
251,110358488,0.032748837,0.90331334,-0.07162353,-0.42169014,-6.355432510375977,1.878301978111267,5.401017665863037,-6.143226146697998,-9.958818435668945, -14.674251556396484
252,110375155,0.036695227,0.8995746,-0.066443235,-0.43012148,-5.874473571777344,0.7647742629051208,5.9303059577941895,-44.7574462890625,-59.85663604736328, -20.539947509765625
253,110391822,0.04180475,0.89285946,-0.059558295,-0.4444181,-6.297924041748047,1.2330856323242188,4.087864398956299,-60.38246536254883,-103.6509780883789, -27.73488426208496
254,110408489,0.04852826,0.8831563,-0.050543744,-0.46381631,-6.743845462799072,0.15840879082679749,2.6685123443603516,-79.7093505859375,-142.56686401367188, -36.09036636352539
255,110425156,0.052667264,0.87075734,-0.040738888,-0.4871841,-7.184715747833252,0.6747856736183167,1.0408352613449097,-68.81283569335938,-175.6910400390625, -49.445465087890625
256,110441823,0.05617002,0.85555965,-0.029107269,-0.5138242,-8.421905517578125,1.0345209836959839,-0.1300514042377472,-73.0581283569336,-204.02545166015625, -62.860897064208984
257,110458490,0.058328256,0.8378328,-0.01661687,-0.54254776,-9.62509822845459,0.36176544427871704,-1.3269908428192139,-69.58684539794922,-225.03846740722656, -72.91438293457031
258,110475157,0.056832865,0.81830704,-0.0053926436,-0.5719393,-10.922430038452148,-0.137971892952919,-2.5609397888183594,-44.63527297973633,-236.44451904296875, -79.24578094482422
259,110491824,0.051555015,0.7973597,0.0035417248,-0.6012878,-11.730178833007812,1.0722815990447998,-3.8883466720581055,-14.935295104980469,-242.80068969726562, -81.10427856445312
260,110508491,0.045232628,0.77506894,0.011290302,-0.6301546,-12.41974925994873,1.6679940223693848,-4.800954341888428,-4.812838077545166,-246.15335083007812, -78.78780364990234
261,110525158,0.03869995,0.75170505,0.017508373,-0.6581302,-12.880181312561035,1.6177198886871338,-4.6561384201049805,2.52182936668396,-246.6193084716797, -71.39073944091797
262,110541825,0.032814633,0.7273191,0.021759463,-0.68516904,-12.9226655960083,1.7709908485412598,-4.4524149894714355,7.685922145843506,-247.13690185546875, -58.22123718261719
263,110558492,0.028038826,0.7020553,0.02407331,-0.71116304,-12.894657135009766,1.6964349746704102,-4.574495792388916,10.908184051513672,-246.81333923339844, -43.27219772338867
264,110575159,0.024205893,0.6762509,0.024649965,-0.7358609,-12.960835456848145,1.6557601690292358,-4.503311634063721,14.534846305847168,-243.89263916015625, -30.191089630126953
265,110591826,0.021413796,0.64975446,0.024217768,-0.7594562,-12.87996768951416,1.1340135335922241,-4.566812038421631,14.502555847167969,-242.84603881835938, -20.24631690979004
266,110608493,0.01878641,0.62274605,0.02259584,-0.781872,-12.711509704589844,1.0186409950256348,-5.115190505981445,19.71611976623535,-240.7198028564453, -14.043586730957031
267,110625160,0.015653443,0.5959215,0.019554235,-0.802652,-12.456794738769531,0.46194809675216675,-5.887145042419434,29.28441619873047,-233.14752197265625, -10.500194549560547
268,110641827,0.0107869785,0.5703064,0.01444082,-0.8212342,-11.955283164978027,-0.18758101761341095,-6.430522918701172,47.66337966918945,-217.82228088378906, -11.2167329788208
269,110658494,0.0027862634,0.5470001,0.0055925837,-0.8371092,-11.13700008392334,-1.7558436393737793,-7.477163314819336,80.96244049072266,-194.53237915039062, -13.85335922241211
270,110675161,-0.009355722,0.52792084,-0.008465461,-0.84919983,-10.365800857543945,-1.1632362604141235,-9.964378356933594,126.50040435791016,-156.34298706054688, -17.810850143432617
271,110691828,-0.020171532,0.51632446,-0.023035584,-0.8558456,-9.39224624633789,4.974147796630859,-12.89742660522461,124.531494140625,-93.28651428222656, -8.942748069763184
272,110708495,-0.022010004,0.51495373,-0.028968165,-0.85644555,-8.077860832214355,7.010074615478516,-13.180459022521973,41.268638610839844,-12.035567283630371, 10.625751495361328
273,110725162,-0.014589037,0.52193475,-0.024548452,-0.85250723,-7.743677139282227,3.555507183074951,-11.46306324005127,-52.98529052734375,52.89676284790039, 25.924728393554688
274,110741829,-0.0013266619,0.5335584,-0.010994168,-0.8456907,-8.722095489501953,-0.7908846735954285,-9.828691482543945,-127.5637435913086,90.00716400146484, 26.15349578857422
275,110758496,0.014810537,0.54705256,0.0079764,-0.8369292,-15.52736759185791,-1.1218332052230835,5.6718363761901855,-169.4880828857422,107.74447631835938, 22.771709442138672
276,110775163,0.028169023,0.56053126,0.02107589,-0.82738566,-13.816266059875488,-2.802057981491089,3.3348469734191895,-125.27149200439453,110.14553833007812, 28.881359100341797
277,110791830,0.03670862,0.5754662,0.026388459,-0.816575,-11.022631645202637,-2.1566569805145264,-4.472146511077881,-62.2624626159668,122.4573974609375, 31.96355438232422
278,110808497,0.04543171,0.5896782,0.030514013,-0.805782,-10.473963737487793,3.31126070022583,-1.560482144355774,-56.4901237487793,117.72555541992188, 37.58563232421875
279,110825164,0.05246139,0.60212386,0.03229679,-0.79602236,-8.77714729309082,-1.179072380065918,-2.560209035873413,-37.0352668762207,103.22847747802734, 36.8571891784668
280,110841831,0.05479186,0.613735,0.030473668,-0.7870187,-12.091543197631836,1.1289445161819458,-2.2829158306121826,2.0209431648254395,95.12692260742188, 25.641347885131836
281,110858498,0.05792584,0.6244521,0.030721383,-0.77830607,-12.530439376831055,0.2781989872455597,-1.9940555095672607,-12.871438026428223,89.5116958618164, 20.920825958251953
282,110875165,0.059966836,0.634559,0.030103073,-0.76995635,-10.79698371887207,-0.03475869819521904,-0.9911307096481323,-3.720688819885254,84.43486022949219, 18.514455795288086
283,110891832,0.06414272,0.64349437,0.030729296,-0.76213956,-10.687981605529785,0.2615349292755127,-0.7280576825141907,-20.00604248046875,75.90412902832031, 23.929752349853516
284,110908499,0.06804107,0.6514345,0.030551033,-0.7550299,-10.987393379211426,-1.7661978006362915,-0.5243962407112122,-14.867506980895996,67.211669921875, 25.504182815551758
285,110925166,0.07008052,0.6585087,0.027941655,-0.74878186,-10.54633903503418,-1.0488166809082031,-0.9433242082595825,5.848840236663818,58.07343292236328, 26.237211227416992
286,110941833,0.07053154,0.6648293,0.024105249,-0.7432672,-10.612040519714355,0.7584450244903564,-0.7557821273803711,19.122447967529297,50.543182373046875, 23.189321517944336
287,110958500,0.070733905,0.6702231,0.020914795,-0.73848516,-10.23452377319336,1.8052995204925537,-0.6504303216934204,16.60931968688965,42.7806396484375, 18.47364616394043
288,110975167,0.07143712,0.6749406,0.019185659,-0.7341552,-10.269803047180176,1.726630449295044,-0.5514592528343201,6.599131107330322,37.88101577758789, 13.940887451171875
289,110991834,0.0723333,0.67909807,0.01816552,-0.73024905,-9.995753288269043,1.0475592613220215,-0.14207316935062408,1.8920631408691406,33.39761734008789, 11.315836906433105
290,111008501,0.07292177,0.6828753,0.017198984,-0.7266829,-9.874444961547852,0.813933789730072,-0.4149121940135956,2.9054572582244873,29.975753784179688, 9.30009937286377
291,111025168,0.07282473,0.68684226,0.016088288,-0.7229699,-9.589326858520508,1.0797289609909058,-0.5351803302764893,6.917421340942383,31.625436782836914, 6.655518054962158
292,111041835,0.07237011,0.6906269,0.0149382455,-0.719426,-9.598447799682617,1.1057707071304321,-0.40627649426460266,8.725476264953613,29.94212532043457, 4.960178852081299
293,111058502,0.07152821,0.6943234,0.013646723,-0.7159695,-9.542689323425293,1.005710482597351,-0.41078120470046997,11.228063583374023,29.06935691833496, 3.666515588760376
294,111075169,0.07081478,0.6981533,0.01259267,-0.71232617,-9.557583808898926,0.5650147199630737,-0.4403458535671234,9.494080543518066,30.73711585998535, 3.2765231132507324
295,111091836,0.07000944,0.70232433,0.0113391,-0.70831525,-9.8245267868042,0.16187617182731628,-0.24318158626556396,11.0480318069458,34.098812103271484, 4.014098644256592
296,111108503,0.06922169,0.70661896,0.009730734,-0.70413303,-9.59811782836914,0.22418846189975739,-0.1318146139383316,12.73829174041748,35.381507873535156, 5.941990852355957
297,111125170,0.06794507,0.71104246,0.0073565543,-0.6998199,-9.515059471130371,0.25348329544067383,-0.4216518998146057,18.87335205078125,36.34312438964844, 7.4040045738220215
298,111141837,0.06632965,0.71563965,0.0045117494,-0.69529843,-9.355591773986816,0.7662802934646606,-0.7527564167976379,22.86467742919922,38.0439453125, 8.222893714904785
299,111158504,0.06451631,0.72058886,0.0015655903,-0.6903528,-9.442075729370117,0.7984397411346436,-0.8220334649085999,24.473648071289062,41.85579299926758, 8.00892162322998
300,111175171,0.06268942,0.72602624,-0.0014286636,-0.68480206,-9.414928436279297,0.8680891394615173,-0.8035784959793091,24.98677635192871,47.26591873168945, 8.48608112335205
301,111191838,0.06094713,0.73191154,-0.004339495,-0.6786548,-9.399043083190918,1.2825000286102295,-0.5153045058250427,24.38146209716797,52.53678894042969, 8.747527122497559
302,111208505,0.059858125,0.7380618,-0.006481168,-0.67204154,-9.344955444335938,1.6560094356536865,-0.733919084072113,17.646032333374023,56.639320373535156, 8.122740745544434
303,111225172,0.058282822,0.744783,-0.008536845,-0.66470176,-9.39876651763916,1.3190536499023438,-1.070552945137024,20.003511428833008,63.163997650146484, 5.710753440856934
304,111241839,0.05696881,0.7518295,-0.010360304,-0.6568102,-9.532073974609375,1.1690139770507812,-1.1319270133972168,17.78800392150879,67.76995849609375, 5.926350116729736
305,111258506,0.055935696,0.7592474,-0.012058971,-0.64828175,-9.704804420471191,0.8002481460571289,-1.5955004692077637,15.983633041381836,72.99530029296875, 6.784073829650879
306,111275173,0.055687062,0.7670143,-0.013420274,-0.639068,-9.973328590393066,0.9279820919036865,-2.144033908843994,10.593565940856934,78.49828338623047, 8.772859573364258
307,111291840,0.055333294,0.7752632,-0.015325112,-0.6290233,-10.260173797607422,0.5451502799987793,-2.3141608238220215,13.812788963317871,84.94099426269531, 11.46501636505127
308,111308507,0.0547107,0.7843862,-0.018125491,-0.61758924,-10.80410385131836,1.3556582927703857,-1.8377838134765625,19.60930824279785,95.91315460205078, 15.536247253417969
309,111325174,0.053796474,0.7943476,-0.021510413,-0.60469425,-12.16484546661377,0.5277788639068604,-0.9696544408798218,24.178220748901367,107.25888061523438, 17.90218162536621
310,111341841,0.051733263,0.8058883,-0.025652979,-0.58924496,-14.614906311035156,0.9131399393081665,-1.0387678146362305,34.58203125,127.50801849365234, 18.00265884399414
311,111358508,0.05035767,0.81898016,-0.02914842,-0.57086414,-17.1729793548584,1.2761125564575195,-0.1292116940021515,29.235748291015625,150.57347106933594, 17.994043350219727
312,111375175,0.049080767,0.83333695,-0.033021335,-0.5495908,-18.526762008666992,-0.15359486639499664,0.13332727551460266,31.201229095458984,171.9249725341797, 21.271717071533203
313,111391842,0.048134618,0.84856915,-0.036961805,-0.5255922,-20.287656784057617,-0.030728038400411606,-0.006456851959228516,30.48941421508789,191.11410522460938, 23.67157745361328
314,111408509,0.049464565,0.8635438,-0.039982803,-0.50024664,-21.806720733642578,1.7972804307937622,1.608159065246582,14.153149604797363,199.1331787109375, 27.078746795654297
315,111425176,0.05455156,0.87688524,-0.041599475,-0.47577918,-21.093942642211914,1.2456775903701782,4.378264427185059,-13.753829956054688,190.03778076171875, 31.821142196655273
316,111441843,0.06085492,0.88751674,-0.04206353,-0.45479843,-17.85589027404785,0.34087449312210083,7.976794242858887,-26.840242385864258,161.16551208496094, 28.335268020629883
317,111458510,0.06309356,0.8944182,-0.04480221,-0.44048616,-10.540690422058105,1.2138789892196655,1.8191370964050293,1.6213215589523315,106.90827941894531, 27.819360733032227
318,111475177,0.057620324,0.90191174,-0.050377324,-0.42508483,-7.495180130004883,5.759708881378174,-1.4625002145767212,58.2493896484375,111.86839294433594, 22.190324783325195
319,111491844,0.05560881,0.90672904,-0.05312115,-0.4146424,-7.472764015197754,4.737330913543701,-1.2334754467010498,25.772663116455078,75.61474609375, 13.65113639831543
320,111508511,0.053292714,0.90873533,-0.05391838,-0.41043013,-7.943174362182617,0.9665630459785461,5.89597225189209,18.80337142944336,29.399797439575195, -0.7476635575294495
321,111525178,0.051057328,0.90621775,-0.052778028,-0.41638532,-6.029733180999756,0.5212663412094116,6.976863384246826,7.418025016784668,-46.07406997680664, -14.67115306854248
322,111541845,0.055728722,0.9001692,-0.046386298,-0.4294627,-4.518332004547119,1.2237526178359985,4.394333839416504,-54.46745300292969,-96.15140533447266, -28.82998275756836
323,111558512,0.062069066,0.8912177,-0.037674878,-0.44772655,-6.76406717300415,0.501011848449707,3.8303518295288086,-74.41243743896484,-135.39010620117188, -39.31938552856445
324,111575179,0.06957891,0.8789124,-0.028192077,-0.47103807,-7.3406081199646,1.9493496417999268,2.4060423374176025,-86.70098114013672,-175.99867248535156, -41.71982955932617
325,111591846,0.07965041,0.8633149,-0.01687343,-0.4980545,-8.104543685913086,1.6666843891143799,0.5991573333740234,-110.425048828125,-207.68084716796875, -45.65121078491211
326,111608513,0.08939712,0.8447508,-0.0037990299,-0.52762634,-8.944314956665039,-0.6617364883422852,-0.8542949557304382,-116.43981170654297,-232.1055145263672, -58.23704147338867
327,111625180,0.09406391,0.8244267,0.00845127,-0.55803317,-9.76923656463623,-1.8627703189849854,-2.5361649990081787,-85.05921173095703,-244.0045166015625, -72.32393646240234
328,111641847,0.09256468,0.8032092,0.018119307,-0.58818233,-10.420310974121094,-1.963026762008667,-3.530285358428955,-40.799861907958984,-247.31658935546875, -81.20153045654297
329,111658514,0.08597192,0.78084755,0.025452182,-0.61825407,-11.214963912963867,-0.658320426940918,-4.134462356567383,-3.977299451828003,-252.4142608642578, -88.98075103759766
330,111675181,0.0767687,0.75704026,0.031298243,-0.6480873,-11.790871620178223,0.33341217041015625,-4.226462364196777,15.456463813781738,-257.7554016113281, -92.2066421508789
331,111691848,0.066415295,0.73179233,0.03534366,-0.6773623,-12.510704040527344,1.029892086982727,-3.955484628677368,28.580108642578125,-262.0259094238281, -87.98487091064453
332,111708515,0.05638834,0.7050934,0.0380807,-0.7058425,-13.207442283630371,1.1695327758789062,-3.5735960006713867,32.171783447265625,-265.5154724121094, -79.8870849609375
333,111725182,0.04647715,0.67701715,0.038721602,-0.7334767,-13.87255859375,1.1456432342529297,-3.9723260402679443,41.029422760009766,-268.9949951171875, -69.21309661865234
334,111741849,0.037470732,0.6476534,0.037331544,-0.7600969,-14.687492370605469,1.5268747806549072,-4.46149206161499,46.37238311767578,-271.71820068359375, -55.23058319091797
335,111758516,0.0312739,0.6173087,0.035374913,-0.7853028,-14.532618522644043,2.6225624084472656,-5.521267890930176,36.198360443115234,-271.47955322265625, -37.92755889892578
336,111775183,0.028105965,0.58717644,0.033554424,-0.8082746,-14.730340957641602,3.130359649658203,-6.831722259521484,22.09818458557129,-261.6285095214844, -21.640380859375
337,111791850,0.025968187,0.5585999,0.03191782,-0.828416,-13.526342391967773,1.4508800506591797,-8.257683753967285,16.551406860351562,-241.83738708496094, -15.775249481201172
338,111808517,0.019876653,0.53439564,0.026047003,-0.84459907,-11.773479461669922,-1.2646734714508057,-11.51594352722168,55.75874328613281,-201.70138549804688, -20.373836517333984
339,111825184,0.009295941,0.5189356,0.0149376625,-0.8546322,-9.083441734313965,1.5399549007415771,-15.653717994689941,102.76685333251953,-128.3356475830078, -24.771236419677734
340,111841851,0.002545598,0.5148356,0.0062698494,-0.8572622,-7.508947372436523,4.711841583251953,-17.527158737182617,74.70120239257812,-35.52552032470703, -9.330358505249023
341,111858518,0.00091626047,0.52145326,-0.00074059033,-0.8532791,-7.509702682495117,2.4313278198242188,-14.88818359375,46.68192672729492,50.73659133911133, 15.547537803649902
342,111875185,0.0021215887,0.53330684,-0.0056086127,-0.8459006,-7.107740879058838,1.6972202062606812,-11.590335845947266,23.98221778869629,93.55634307861328, 24.486473083496094
343,111891852,0.0076360507,0.5464914,-0.0027821113,-0.83742523,-8.378775596618652,-1.4619778394699097,-4.716906547546387,-36.523895263671875,105.52770233154297, 21.290184020996094
344,111908519,0.015057815,0.5568274,0.004069781,-0.83048177,-17.562583923339844,-1.3030990362167358,15.621129989624023,-67.04949188232422,83.59365844726562, 17.12310218811035
345,111925186,0.022945343,0.566328,0.0103586875,-0.82379544,-13.350823402404785,-0.8450879454612732,0.470109224319458,-65.68556213378906,77.85708618164062, 21.883451461791992
346,111941853,0.027085898,0.5819956,0.008027378,-0.8127009,-12.841765403747559,2.888950824737549,-10.810195922851562,-1.61417555809021,128.85845947265625, 35.3631477355957
347,111958520,0.035714824,0.59657586,0.0109244585,-0.8016873,-14.021012306213379,-1.4515782594680786,0.5617258548736572,-49.00948715209961,123.10708618164062, 39.425575256347656
348,111975187,0.036214966,0.60940915,0.0019953877,-0.79202586,-6.8588995933532715,-1.4056004285812378,-3.5137014389038086,49.19204330444336,105.63833618164062, 42.67529296875
349,111991854,0.036235552,0.620676,-0.004974594,-0.7832135,-13.19211196899414,1.4478365182876587,-2.119368553161621,40.14896774291992,94.03478240966797, 31.64011001586914
350,112008521,0.037149083,0.63013977,-0.00980108,-0.7755307,-11.793671607971191,1.7344304323196411,-0.6938592791557312,24.298450469970703,80.05863952636719, 27.080568313598633
351,112025188,0.04108956,0.6387043,-0.010863361,-0.7682777,-10.250137329101562,3.4536380767822266,-0.5180613994598389,-9.151725769042969,74.57160949707031, 26.85557746887207
352,112041855,0.048449513,0.64584625,-0.007576557,-0.76189107,-10.250079154968262,0.5671146512031555,0.19752134382724762,-47.61470031738281,64.7461166381836, 25.65595245361328
353,112058522,0.05179162,0.652713,-0.00818111,-0.75578856,-10.566901206970215,-1.3480701446533203,-0.20731458067893982,-9.49725341796875,60.55064392089844, 21.804269790649414
354,112075189,0.052363645,0.6592515,-0.012121207,-0.749999,-10.402994155883789,-0.06659360975027084,-0.6343332529067993,20.134859085083008,56.10831832885742, 22.300981521606445
355,112091856,0.05243677,0.6649832,-0.016171392,-0.74483985,-10.502074241638184,1.549783706665039,-0.329623281955719,22.618040084838867,49.01768112182617, 20.077091217041016
356,112108523,0.053443164,0.6698853,-0.018510656,-0.74030745,-10.30320930480957,1.7798212766647339,-0.4853626787662506,9.219202041625977,42.63351058959961, 16.898334503173828
357,112125190,0.05389282,0.6745909,-0.020818928,-0.7359276,-10.057713508605957,0.9892029762268066,-0.46088188886642456,11.532909393310547,40.88055419921875, 13.886425018310547
358,112141857,0.053736966,0.6792203,-0.02311628,-0.7315995,-10.081856727600098,1.2065927982330322,-0.5584544539451599,14.250394821166992,40.18054962158203, 10.765532493591309
359,112158524,0.053243123,0.68368757,-0.025330542,-0.72738916,-9.8778715133667,1.068922519683838,-0.7279636859893799,15.332314491271973,38.80089569091797, 8.660612106323242
360,112175191,0.05200537,0.6880282,-0.028016636,-0.7232756,-9.5847806930542,0.8532942533493042,-0.6311366558074951,21.126176834106445,37.418113708496094, 7.146917819976807
361,112191858,0.049943443,0.6922608,-0.03125129,-0.71923876,-9.64666748046875,0.9700610041618347,-0.5254377126693726,27.699234008789062,36.17082595825195, 5.641514778137207
362,112208525,0.04800678,0.69618905,-0.034029283,-0.7154427,-9.829458236694336,1.507261872291565,-0.5611268281936646,24.690561294555664,33.71156311035156, 4.074090480804443
363,112225192,0.0469774,0.6995962,-0.03550073,-0.7121081,-9.714587211608887,1.4267405271530151,-0.5599450469017029,13.641792297363281,29.591657638549805, 2.252152442932129
364,112241859,0.046300407,0.7028966,-0.036438987,-0.7088477,-9.457511901855469,0.9575791954994202,-0.6925526857376099,9.285011291503906,28.977807998657227, 1.4137295484542847
365,112258526,0.04577396,0.7065354,-0.037234277,-0.7052136,-9.318838119506836,1.5291343927383423,-0.678078830242157,8.063441276550293,32.523895263671875, 1.4922850131988525
366,112275193,0.04565526,0.7104008,-0.03752115,-0.7013121,-9.184328079223633,1.7160321474075317,-0.8572174310684204,3.7585580348968506,35.19355392456055, 1.0225850343704224
367,112291860,0.045418084,0.7145681,-0.037669566,-0.6970731,-9.197859764099121,1.4912960529327393,-0.9380276203155518,3.8529319763183594,38.31615447998047, -0.20181632041931152
368,112308527,0.04504266,0.71880895,-0.03792419,-0.69270974,-9.395027160644531,1.1587400436401367,-0.6765670776367188,5.097845554351807,39.21562194824219, -0.32598745822906494
369,112325194,0.044550307,0.7231547,-0.038507402,-0.68817145,-9.470086097717285,1.052737832069397,-0.7633268237113953,7.320326328277588,40.456451416015625, 0.7675338983535767
370,112341861,0.044243142,0.72792006,-0.03915646,-0.68311197,-9.590140342712402,0.7847955226898193,-0.9235546588897705,6.979491710662842,45.0695915222168, 2.020325183868408
371,112358528,0.043920174,0.73337394,-0.039890103,-0.67723167,-9.740742683410645,0.8310250639915466,-0.7522739171981812,7.887592315673828,52.38803482055664, 2.436182737350464
372,112375195,0.04328323,0.7395012,-0.04096317,-0.6705124,-9.823907852172852,0.8928781151771545,-0.4853552579879761,11.486502647399902,59.57476806640625, 2.756659984588623
373,112391862,0.04199164,0.7461394,-0.042709168,-0.66309035,-9.86165714263916,1.0991041660308838,-0.7980234026908875,18.26966094970703,65.12948608398438, 3.227783441543579
374,112408529,0.04089076,0.75321335,-0.044449437,-0.65499777,-9.829556465148926,1.348254680633545,-1.4237068891525269,17.590805053710938,70.62489318847656, 4.134703636169434
375,112425196,0.040216938,0.7606828,-0.045972444,-0.6462437,-9.832695960998535,1.2079367637634277,-1.734384298324585,14.714593887329102,76.0303726196289, 4.996586322784424
376,112441863,0.039577257,0.76851034,-0.04764098,-0.63683283,-10.009599685668945,0.6203749179840088,-2.075547456741333,15.489532470703125,81.03238677978516, 5.977386474609375
377,112458530,0.0381937,0.7769269,-0.050130337,-0.62642884,-10.334343910217285,0.8472470045089722,-2.2451186180114746,23.50017547607422,88.39749908447266, 7.139553070068359
378,112475197,0.03663168,0.78605556,-0.053159833,-0.61477536,-10.931364059448242,0.7336292266845703,-1.835904598236084,27.39891815185547,97.94212341308594, 9.342850685119629
379,112491864,0.03471792,0.79612136,-0.05710537,-0.6014355,-12.011713027954102,0.9338065385818481,-1.2377263307571411,34.023807525634766,110.6717529296875, 12.894603729248047
380,112508531,0.0329839,0.8072567,-0.06120102,-0.5860917,-14.378586769104004,0.9666774272918701,-0.9373581409454346,34.70674133300781,126.12220764160156, 14.523819923400879
381,112525198,0.032195702,0.8200331,-0.0639299,-0.5678226,-17.474224090576172,1.0287041664123535,-0.6472748517990112,25.557140350341797,149.71681213378906, 10.729351043701172
382,112541865,0.0341086,0.83408713,-0.065012895,-0.5467255,-19.475221633911133,-0.4632241129875183,1.4563723802566528,5.436360836029053,172.25563049316406, 12.069762229919434
383,112558532,0.04056167,0.84717184,-0.063409194,-0.52595997,-21.573326110839844,-0.11025983840227127,2.94199800491333,-31.070756912231445,169.44815063476562, 14.107941627502441
384,112575199,0.050412238,0.8593654,-0.06074098,-0.5052328,-22.080692291259766,0.592962384223938,3.4777681827545166,-54.96472930908203,167.883544921875, 20.598575592041016
385,112591866,0.057447694,0.87211454,-0.06008898,-0.48218828,-19.210403442382812,0.5917768478393555,2.48567533493042,-30.147184371948242,181.75047302246094, 23.33255386352539
386,112608533,0.05912918,0.88505054,-0.061456293,-0.4576163,-16.58330535888672,1.2251989841461182,2.14107346534729,9.376301765441895,188.6230926513672, 18.24540138244629
387,112625200,0.05714548,0.89603007,-0.06458006,-0.43553913,-11.998018264770508,4.764523983001709,0.36477479338645935,35.36797332763672,165.11373901367188, 17.228717803955078
388,112641867,0.059396166,0.9033738,-0.0652725,-0.41967547,-10.354430198669434,2.6616501808166504,3.5941271781921387,-2.1580042839050293,118.83512878417969, 14.092208862304688
389,112658534,0.05255225,0.9081348,-0.06795608,-0.4097701,-6.8086347579956055,0.7099120020866394,1.7109063863754272,56.37276840209961,69.55868530273438, -1.0563102960586548
390,112675201,0.047899764,0.9088689,-0.067205854,-0.4088353,-7.695030689239502,1.8020381927490234,9.156634330749512,27.378280639648438,4.5157856941223145, -17.677465438842773
391,112691868,0.048928924,0.90491796,-0.0616226,-0.4182489,-4.035850524902344,1.8236514329910278,5.639562606811523,-28.00494384765625,-68.99711608886719, -33.145416259765625
392,112708535,0.053510644,0.8982236,-0.052858096,-0.43305525,-6.30720853805542,0.39578312635421753,4.008016109466553,-62.44518280029297,-107.8089599609375, -43.37284469604492
393,112725202,0.057543874,0.8884212,-0.044285677,-0.4532498,-6.304965496063232,1.1333463191986084,3.71429181098938,-61.57894515991211,-150.55711364746094, -44.656959533691406
394,112741869,0.06227981,0.8754083,-0.034121387,-0.47813946,-6.800328254699707,0.8994953036308289,1.131248950958252,-73.51941680908203,-188.35317993164062, -53.061851501464844
395,112758536,0.06534351,0.85968167,-0.023099888,-0.50610673,-7.95972204208374,-0.2587907910346985,-0.7935785055160522,-68.15042877197266,-215.7982940673828, -64.39260864257812
396,112775203,0.065462455,0.8416611,-0.011902282,-0.5358915,-8.928179740905762,-0.590006411075592,-1.8766388893127441,-52.67635726928711,-234.8948211669922, -76.11881256103516
397,112791870,0.06236372,0.8219249,-0.0015114063,-0.56616986,-9.550206184387207,-1.1629465818405151,-3.1233677864074707,-31.898988723754883,-244.6864776611328, -83.37483978271484
398,112808537,0.054134976,0.8010399,0.00593963,-0.59612876,-10.856250762939453,-0.5377623438835144,-4.259819984436035,8.047219276428223,-248.6646270751953, -86.56939697265625
399,112825204,0.043751705,0.77859986,0.011876796,-0.6258811,-11.308722496032715,0.7033079862594604,-4.725948333740234,25.527456283569336,-254.38523864746094, -87.0497817993164
400,112841871,0.03223195,0.75451404,0.016143149,-0.6552932,-11.873299598693848,1.1694339513778687,-4.777261257171631,38.27345275878906,-260.07952880859375, -83.04566955566406
401,112858538,0.021614173,0.72885484,0.018933257,-0.68406504,-12.698348999023438,1.8220608234405518,-4.485162734985352,39.82141876220703,-264.30328369140625, -71.37861633300781
402,112875205,0.013363926,0.70150137,0.020719029,-0.71224165,-13.208623886108398,2.1089510917663574,-4.6770148277282715,32.34605407714844,-269.7820739746094, -55.37145233154297
403,112891872,0.008017646,0.67265433,0.021785647,-0.7395928,-13.58648681640625,2.1998205184936523,-4.981166839599609,21.59770393371582,-273.6439514160156, -37.84996032714844
404,112908539,0.0060786866,0.6424407,0.023359885,-0.7659553,-13.937917709350586,2.47247576713562,-5.652819633483887,3.0221140384674072,-276.56982421875, -23.051517486572266
405,112925206,0.00694442,0.6116537,0.025598142,-0.7906808,-13.982029914855957,2.135376453399658,-6.758073329925537,-13.169013023376465,-272.86297607421875, -11.267128944396973
406,112941873,0.007640559,0.58156323,0.026194105,-0.81304353,-13.864675521850586,1.222314476966858,-7.643276691436768,-3.922093629837036,-259.2882385253906, -5.073145389556885
407,112958540,0.005955768,0.55268836,0.024248697,-0.833014,-13.105145454406738,-0.10595957934856415,-8.496071815490723,19.419479370117188,-242.7507781982422, -7.891118049621582
408,112975207,-0.0020147013,0.5272835,0.016720265,-0.84952265,-11.4774751663208,-4.130870342254639,-10.806473731994629,74.83988189697266,-209.03326416015625, -21.95816421508789
409,112991874,-0.018357461,0.50911397,-0.0011993413,-0.8605025,-10.17310619354248,-0.45650482177734375,-15.102190017700195,165.16690063476562,-145.77911376953125, -32.387672424316406
410,113008541,-0.029568385,0.5022011,-0.015835902,-0.86410016,-7.856653213500977,6.029577255249023,-17.226892471313477,126.38080596923828,-53.899715423583984, -14.51064682006836
411,113025208,-0.029967686,0.5071498,-0.019981416,-0.861105,-7.712528228759766,5.269006252288818,-15.1201810836792,24.961938858032227,38.16072463989258, 10.833762168884277
412,113041875,-0.021570563,0.5193921,-0.01380206,-0.8541524,-8.394667625427246,2.2608933448791504,-11.16203784942627,-67.85791015625,94.02680206298828, 25.05048370361328
413,113058542,-0.0071940618,0.5333533,0.0020515923,-0.8458595,-12.22467041015625,-1.091761827468872,2.9303109645843506,-146.20486450195312,107.88702392578125, 25.215417861938477
414,113075209,0.0058169784,0.54413587,0.01581716,-0.838828,-16.68129539489746,-3.8374924659729004,11.344675064086914,-128.8777618408203,84.8615493774414, 24.921133041381836
415,113091876,0.013283066,0.5565648,0.019661298,-0.83046544,-9.478911399841309,-1.7433043718338013,-4.793489456176758,-50.96862030029297,99.58536529541016, 30.300556182861328
416,113108543,0.016691888,0.5728016,0.017489951,-0.8193374,-13.681157112121582,2.512152910232544,-6.543132781982422,-1.1308095455169678,131.8151092529297, 30.93035888671875
417,113125210,0.02315699,0.58739525,0.016728027,-0.80879587,-11.214483261108398,0.30241313576698303,0.2971215546131134,-21.26536750793457,119.90674591064453, 42.29865646362305
418,113141877,0.02450712,0.5999869,0.010259953,-0.7995685,-8.00111198425293,0.31975024938583374,-2.863811492919922,30.940710067749023,103.10548400878906, 36.45237731933594
419,113158544,0.026604688,0.6113679,0.0072761225,-0.7908657,-13.17805004119873,1.5399377346038818,-2.1479172706604004,8.514510154724121,94.75597381591797, 26.013540267944336
420,113175211,0.029761871,0.62150544,0.0061391294,-0.78282034,-12.025455474853516,0.9852011799812317,-1.5286498069763184,-6.196012496948242,85.44771575927734, 23.809492111206055
421,113191878,0.03489914,0.6306294,0.007015164,-0.77526724,-10.647258758544922,0.39178478717803955,-0.9007520079612732,-25.699966430664062,78.16476440429688, 25.703519821166992
422,113208545,0.040751263,0.6385953,0.008703757,-0.7684139,-10.774975776672363,-0.6544699668884277,-0.6209222674369812,-33.38698959350586,69.07978820800781, 25.749404907226562
423,113225212,0.044388648,0.64592046,0.007545326,-0.7620759,-10.572118759155273,-1.288474678993225,-0.7640455365180969,-8.782752990722656,62.73487091064453, 26.366117477416992
424,113241879,0.045381844,0.65248877,0.0034142737,-0.7564306,-10.217857360839844,-0.5793759226799011,-0.4980350136756897,18.329069137573242,54.891334533691406, 25.4814395904541
425,113258546,0.045795828,0.6582276,-0.0010377445,-0.7514242,-10.560050010681152,1.3548561334609985,-0.12616237998008728,22.342391967773438,47.60002517700195, 23.707809448242188
426,113275213,0.04723854,0.6632307,-0.003590383,-0.7469142,-10.249008178710938,1.8350000381469727,-0.20700198411941528,7.623481750488281,42.13722610473633, 20.268762588500977
427,113291880,0.048649035,0.66794235,-0.005161616,-0.7426032,-9.918039321899414,1.543014645576477,-0.207631915807724,2.6204588413238525,40.03391647338867, 15.55395793914795
428,113308547,0.049805023,0.6724545,-0.005963145,-0.7384368,-10.027115821838379,1.158070683479309,-0.08969644457101822,-0.22158950567245483,38.58235168457031, 10.664271354675293
429,113325214,0.05059278,0.676773,-0.0065527703,-0.73442197,-9.885254859924316,0.7831031084060669,-0.3805992305278778,0.32797864079475403,36.943153381347656, 7.762101173400879
430,113341881,0.050530657,0.6813216,-0.007416191,-0.73020035,-9.674524307250977,0.7554976940155029,-0.4603612720966339,5.7478742599487305,38.91701889038086, 4.803669452667236
431,113358548,0.0501772,0.68583506,-0.008210014,-0.7259786,-9.645273208618164,0.9335687756538391,-0.5019491314888,6.747862339019775,38.73366165161133, 3.0159053802490234
432,113375215,0.049874738,0.69014645,-0.008747973,-0.7218959,-9.693704605102539,0.8621264696121216,-0.5855684280395508,5.149516582489014,37.14524841308594, 2.0239577293395996
433,113391882,0.049704738,0.6943559,-0.009184967,-0.7178543,-9.689486503601074,0.5518932342529297,-0.6363664865493774,3.9793548583984375,36.47106170654297, 2.1916825771331787
434,113408549,0.04934358,0.6985428,-0.0099558,-0.71379554,-9.669414520263672,0.39435577392578125,-0.553460955619812,6.530660629272461,36.30214309692383, 2.8511486053466797
435,113425216,0.049175344,0.70258766,-0.010850998,-0.7098131,-9.60110092163086,0.7352922558784485,-0.6428608894348145,6.1577372550964355,35.197792053222656, 4.38393497467041
436,113441883,0.048723813,0.70665336,-0.012169458,-0.70577514,-9.501299858093262,0.6264739036560059,-0.9386924505233765,9.600808143615723,35.39252853393555, 5.063918113708496
437,113458550,0.04814037,0.710845,-0.013589859,-0.7015674,-9.515151977539062,0.9710621237754822,-0.8754867315292358,10.787581443786621,36.76899719238281, 4.968690872192383
438,113475217,0.047589973,0.71510804,-0.0149462335,-0.6972317,-9.533405303955078,0.678862988948822,-0.8881512880325317,10.349808692932129,37.75146484375, 4.849631309509277
439,113491884,0.046658833,0.7197097,-0.016616857,-0.69250596,-9.478913307189941,0.39185622334480286,-0.9663144946098328,13.877058982849121,41.14033508300781, 4.665787696838379
440,113508551,0.04536687,0.7248069,-0.018613076,-0.68720466,-9.566291809082031,0.6827518939971924,-0.7373622059822083,17.43375587463379,46.192535400390625, 4.695937156677246
441,113525218,0.043821324,0.73045146,-0.020898318,-0.6812367,-9.536684036254883,0.668879508972168,-0.7586787939071655,20.317581176757812,51.9740104675293, 5.0818657875061035
442,113541885,0.04033177,0.73675835,-0.02519792,-0.67448163,-9.594335556030273,0.7039662599563599,-0.8647052645683289,27.68495750427246,58.878326416015625, 5.220119953155518
443,113558552,0.03657801,0.7437647,-0.029840168,-0.6667725,-9.515993118286133,1.331766128540039,-0.9341250658035278,27.946828842163086,67.01087188720703, 5.333246231079102
444,113575219,0.034374468,0.75107056,-0.03316269,-0.65849185,-9.860153198242188,1.6705873012542725,-1.130626916885376,15.919670104980469,71.85986328125, 5.671216011047363
445,113591886,0.03354456,0.75883853,-0.03518364,-0.64946175,-9.815433502197266,0.6344588994979858,-1.85435950756073,14.029621124267578,77.77061462402344, 6.5400848388671875
446,113608553,0.03330902,0.7671671,-0.036598373,-0.6395354,-10.122995376586914,0.8318671584129333,-2.175936222076416,18.958467483520508,84.5510482788086, 7.858500003814697
447,113625220,0.03245831,0.7760328,-0.03881959,-0.62865937,-10.785197257995605,0.7350206971168518,-2.0289289951324463,27.452054977416992,91.47628784179688, 9.977706909179688
448,113641887,0.030590514,0.78579235,-0.042403437,-0.61627626,-11.704193115234375,0.44484075903892517,-1.6722228527069092,37.215030670166016,102.94195556640625, 12.73453140258789
449,113658554,0.027782004,0.79673415,-0.047402777,-0.60182685,-14.062277793884277,0.5356714725494385,-0.9532427787780762,42.22760009765625,119.04061126708984, 14.886098861694336
450,113675221,0.026050426,0.80923533,-0.0516937,-0.5846256,-17.199182510375977,0.617665708065033,0.6019340753555298,34.58976364135742,141.10401916503906, 15.500566482543945
451,113691888,0.027453875,0.82265514,-0.054120425,-0.5652925,-19.3162784576416,-0.5205721259117126,0.9996622800827026,10.580729484558105,158.20777893066406, 17.804964065551758
452,113708555,0.031233015,0.83719385,-0.05544979,-0.54319084,-21.909921646118164,-0.9372498989105225,2.126521110534668,-5.881775856018066,179.44187927246094, 20.970821380615234
453,113725222,0.038119275,0.85153764,-0.055976145,-0.519901,-22.91558265686035,0.05601804703474045,2.6233160495758057,-26.35482406616211,187.09234619140625, 28.325044631958008
454,113741889,0.044902686,0.86599946,-0.0568636,-0.4947679,-20.774330139160156,0.19885241985321045,4.495368003845215,-23.712858200073242,198.38804626464844, 30.542064666748047
455,113758556,0.04700412,0.8788539,-0.059069805,-0.4710806,-16.14116859436035,1.2679945230484009,3.1558237075805664,7.609896183013916,182.3098602294922, 22.685985565185547
456,113775223,0.044222973,0.8904538,-0.063474745,-0.44844973,-10.963040351867676,5.1453166007995605,0.3779182434082031,43.425289154052734,169.36386108398438, 20.345806121826172
457,113791890,0.043683756,0.8986026,-0.0666565,-0.4314646,-10.226588249206543,3.6447319984436035,1.8408167362213135,22.46481704711914,125.61418914794922, 19.516929626464844
458,113808557,0.038013384,0.9038398,-0.06979665,-0.4204244,-8.487812995910645,0.7812057137489319,3.738269805908203,50.490020751953125,78.03981018066406, 3.5662479400634766
459,113825224,0.028984018,0.9052591,-0.07245127,-0.4176322,-7.462886810302734,1.1995255947113037,6.4196696281433105,65.02959442138672,14.409161567687988, -9.467911720275879
460,113841891,0.026129462,0.9027179,-0.06990635,-0.42371038,-4.9095892906188965,2.920259475708008,6.234947204589844,6.495850563049316,-47.8875617980957, -23.887340545654297
461,113858558,0.028939735,0.89649147,-0.063587576,-0.43751785,-5.719514846801758,1.4788703918457031,4.661594390869141,-43.98417663574219,-103.05782318115234, -30.444854736328125
462,113875225,0.034181807,0.8870893,-0.05541466,-0.45698264,-6.226544380187988,-0.1283162534236908,4.0250935554504395,-67.62751007080078,-145.9296875, -34.292808532714844
463,113891892,0.037917435,0.87452203,-0.047245134,-0.48118728,-6.382584095001221,0.9524605870246887,2.053488254547119,-60.9666862487793,-185.24609375, -38.88682174682617
464,113908559,0.041232873,0.8587905,-0.038096823,-0.5092419,-7.542727947235107,-0.18527182936668396,-0.32049983739852905,-63.73924255371094,-218.6667938232422, -46.130287170410156
465,113925226,0.040331718,0.84054756,-0.02923872,-0.5394425,-8.989012718200684,-1.5812621116638184,-2.1597113609313965,-39.09341049194336,-241.26681518554688, -59.10761260986328
466,113941893,0.034851298,0.8205343,-0.021593023,-0.57012475,-9.702997207641602,-1.7347424030303955,-3.3374767303466797,-8.728833198547363,-251.84274291992188, -68.82323455810547
467,113958560,0.024306815,0.7991985,-0.01710504,-0.60033154,-10.767977714538574,-1.163108229637146,-4.908915042877197,31.967649459838867,-255.84364318847656, -70.51244354248047
468,113975227,0.010701568,0.77659595,-0.014955687,-0.6297303,-11.38170051574707,0.49913373589515686,-5.5603532791137695,58.32279586791992,-257.4071960449219, -69.99214935302734
469,113991894,-0.0037249965,0.75275207,-0.015150667,-0.6581191,-12.129993438720703,1.620651364326477,-5.707907676696777,72.87273406982422,-257.69305419921875, -60.84392166137695
470,114008561,-0.014958642,0.7273984,-0.015785713,-0.6858707,-12.387284278869629,3.6066596508026123,-6.086051940917969,58.44435119628906,-260.9462890625, -44.013267517089844
471,114025228,-0.018801462,0.7008317,-0.013304088,-0.7129547,-12.32290267944336,3.900663137435913,-6.276587009429932,6.967350006103516,-262.93731689453125, -24.752582550048828
472,114041895,-0.01606644,0.67358655,-0.007548379,-0.738895,-12.336724281311035,3.371117353439331,-6.154409885406494,-40.59918975830078,-260.6904602050781, -8.439690589904785
473,114058562,-0.009152226,0.64582366,0.001023372,-0.7634309,-12.26564884185791,2.8251354694366455,-6.140834331512451,-74.15435028076172,-257.0450134277344, -0.4360765516757965
474,114075229,-0.0020409757,0.6177208,0.010227466,-0.7863282,-12.618308067321777,1.1122446060180664,-6.104132652282715,-78.35945129394531,-251.74009704589844, -2.3652210235595703
475,114091896,0.0011799035,0.5898153,0.0162067,-0.8073746,-12.639005661010742,-0.8379267454147339,-5.811808109283447,-44.54846954345703,-242.65093994140625, -9.735480308532715
476,114108563,-0.00084568525,0.5622219,0.017217204,-0.82680655,-12.393038749694824,-1.4652539491653442,-5.696731090545654,4.134160995483398,-233.9971466064453, -18.650808334350586
477,114125230,-0.008681727,0.53615254,0.0124978665,-0.8439838,-12.491982460021973,-2.209347724914551,-6.212826251983643,58.89498519897461,-216.07791137695312, -29.336950302124023
478,114141897,-0.022965357,0.5137865,-0.00057016895,-0.8576104,-12.46518611907959,-1.574465036392212,-8.75969123840332,130.6064453125,-180.65133666992188, -35.81770324707031
479,114158564,-0.037899733,0.49888882,-0.018730856,-0.86563414,-9.865946769714355,3.564980983734131,-12.877096176147461,161.7827606201172,-116.26883697509766, -22.511077880859375
480,114175231,-0.043867413,0.4952441,-0.03064329,-0.8671041,-7.402061939239502,4.689935207366943,-15.07674789428711,91.68316650390625,-27.591983795166016, 6.262604236602783
481,114191898,-0.041883476,0.502177,-0.034971286,-0.8630416,-7.881162643432617,1.335665225982666,-13.101007461547852,17.288625717163086,53.363792419433594, 23.90439796447754
482,114208565,-0.035889987,0.51475286,-0.034490287,-0.85589236,-8.401905059814453,0.6032004356384277,-9.859513282775879,-26.026121139526367,96.78535461425781, 28.831533432006836
483,114225232,-0.027102463,0.5292156,-0.028938796,-0.8475605,-9.129192352294922,-0.7060350179672241,-5.018392562866211,-65.9861068725586,111.2393569946289, 26.556859970092773
484,114241899,-0.01578134,0.5415017,-0.01606051,-0.8403979,-14.375043869018555,-0.6294798254966736,14.364174842834473,-117.75360870361328,93.27493286132812, 15.266364097595215
485,114258566,-0.0015264562,0.5503562,0.0011862274,-0.8349273,-15.511533737182617,-1.7243980169296265,10.75166130065918,-153.72512817382812,67.14762115478516, 16.441097259521484
486,114275233,0.008532428,0.5641886,0.010408061,-0.82553625,-9.529850006103516,-3.254382848739624,-9.090524673461914,-91.843505859375,110.76395416259766, 22.67328453063965
487,114291900,0.01745529,0.58009046,0.017192338,-0.81418335,-14.036044120788574,3.526838779449463,-3.2542479038238525,-73.62494659423828,129.8254852294922, 25.9470157623291
488,114308567,0.027151532,0.5936857,0.020777158,-0.8039703,-8.541504859924316,-2.7745659351348877,0.1916104406118393,-58.98916244506836,111.7406997680664, 42.51079559326172
489,114325234,0.028390046,0.60486454,0.016992155,-0.79564077,-7.913307189941406,-1.045299768447876,-2.1853713989257812,16.092466354370117,90.48536682128906, 25.1728458404541
490,114341901,0.02938133,0.6153159,0.014295076,-0.7876031,-13.478492736816406,2.711958408355713,-1.489086389541626,11.050908088684082,85.4529037475586, 19.17829704284668
491,114358568,0.0324117,0.6248418,0.0144526325,-0.77994436,-11.271697998046875,1.0797483921051025,-1.2790523767471313,-13.214418411254883,79.1218032836914, 17.92146110534668
492,114375235,0.03647892,0.63370425,0.016413568,-0.77254045,-11.223620414733887,-0.8622946739196777,-1.1006206274032593,-27.476926803588867,74.70140075683594, 15.573206901550293
493,114391902,0.041627217,0.6418554,0.018345278,-0.7654751,-11.054990768432617,-0.8973129391670227,-0.5035006999969482,-32.18172836303711,69.26151275634766, 21.27103042602539
494,114408569,0.045648847,0.6491254,0.018381877,-0.7590878,-10.060233116149902,-1.998859167098999,-0.7328570485115051,-17.41347312927246,61.19196701049805, 23.398263931274414
495,114425236,0.04666905,0.6557796,0.015250619,-0.753354,-10.517523765563965,-0.19739383459091187,-0.9305295348167419,12.394684791564941,54.41082000732422, 21.627975463867188
496,114441903,0.04705104,0.66163975,0.012360573,-0.7482419,-10.502680778503418,1.0871343612670898,-0.45694565773010254,13.81975269317627,47.59825897216797, 16.969926834106445
497,114458570,0.04743903,0.66696,0.0102968905,-0.7435105,-10.151130676269531,1.466675877571106,-0.34339794516563416,9.385542869567871,43.329139709472656, 13.06601333618164
498,114475237,0.048250407,0.6719538,0.009423775,-0.73895943,-10.027539253234863,1.4582072496414185,-0.29822227358818054,1.2542937994003296,41.17132568359375, 9.670065879821777
499,114491904,0.04951315,0.6766038,0.009507721,-0.734619,-9.870146751403809,1.27159583568573,-0.20107954740524292,-5.80098819732666,38.72345733642578, 7.42584753036499
500,114508571,0.051039897,0.68097764,0.0100923665,-0.73045343,-9.776260375976562,0.5169082283973694,-0.29506009817123413,-9.645434379577637,36.66066360473633, 6.32907772064209
501,114525238,0.05154094,0.68538135,0.009909858,-0.7262903,-9.626829147338867,0.5641524791717529,-0.38671237230300903,-0.9815088510513306,36.590518951416016, 4.764797687530518
502,114541905,0.050920032,0.689896,0.008856614,-0.7220609,-9.559213638305664,0.42172566056251526,-0.5621151328086853,8.687968254089355,37.216346740722656, 3.2970566749572754
503,114558572,0.04973215,0.69459873,0.0074239997,-0.7176377,-9.650104522705078,0.43755289912223816,-0.7485975623130798,13.315208435058594,38.959590911865234, 2.370335102081299
504,114575239,0.048514627,0.6994409,0.006035067,-0.7130162,-9.781688690185547,0.14371240139007568,-0.5689054727554321,13.278752326965332,40.59777069091797, 2.1011831760406494
505,114591906,0.047300924,0.7042506,0.004519431,-0.7083594,-9.642181396484375,0.4278429448604584,-0.6013715267181396,13.87167739868164,40.561073303222656, 2.756962299346924
506,114608573,0.046186525,0.7090673,0.0030475105,-0.70361984,-9.53758430480957,0.5143775343894958,-0.9077064990997314,13.178773880004883,41.004146575927734, 3.067492961883545
507,114625240,0.044956245,0.7139235,0.0014270089,-0.69877744,-9.426434516906738,0.48639941215515137,-0.9339533448219299,14.472472190856934,41.645172119140625, 3.274676561355591
508,114641907,0.043685365,0.7187954,-0.00029262248,-0.69384754,-9.48276424407959,0.4953145980834961,-0.9179983139038086,15.153266906738281,42.12165832519531, 3.605224370956421
509,114658574,0.04244163,0.72379166,-0.0021237622,-0.68870866,-9.500750541687012,0.4401375651359558,-0.8932318687438965,15.591867446899414,43.732421875, 4.36151123046875
510,114675241,0.041211113,0.72905,-0.0039756782,-0.68320704,-9.337923049926758,0.42961615324020386,-1.0188888311386108,15.710638999938965,46.806339263916016, 4.645127296447754
511,114691908,0.039904464,0.7349095,-0.0056232,-0.6769666,-9.317635536193848,0.8816982507705688,-0.6709346175193787,15.32970905303955,53.434410095214844, 3.471538782119751
512,114708575,0.03825967,0.7413084,-0.0071839644,-0.6700346,-9.602470397949219,0.8661328554153442,-0.6338138580322266,16.82029914855957,59.51392364501953, 1.6350151300430298
513,114725242,0.035986286,0.74833333,-0.008960781,-0.66228515,-9.765684127807617,0.6552276015281677,-1.0739667415618896,21.239253997802734,66.55244445800781, 0.034199945628643036
514,114741909,0.03365838,0.75601447,-0.010778538,-0.6536,-9.614727973937988,-0.11006641387939453,-1.796986699104309,21.942615509033203,74.41859436035156, 0.20309379696846008
515,114758576,0.031218065,0.7644865,-0.0128799435,-0.6437546,-9.920948028564453,0.16445858776569366,-1.8922561407089233,24.080970764160156,84.00089263916016, 1.4115344285964966
516,114775243,0.028489608,0.77338,-0.01562274,-0.6331094,-10.445355415344238,0.5653063058853149,-2.0938756465911865,28.60862922668457,89.98724365234375, 3.6670279502868652
517,114791910,0.024828678,0.7829564,-0.01969752,-0.6212687,-11.128091812133789,0.9961890578269958,-1.9976056814193726,39.637752532958984,99.04141998291016, 6.872528553009033
518,114808577,0.02081321,0.79374343,-0.024230912,-0.60741323,-13.75978946685791,1.8822718858718872,-0.9544913172721863,44.00002670288086,115.0321044921875, 8.023972511291504
519,114825244,0.017320955,0.8058479,-0.028469551,-0.59118396,-16.20347785949707,1.9370406866073608,-0.24466286599636078,40.52088165283203,133.75491333007812, 8.723641395568848
520,114841911,0.015110013,0.819237,-0.033099003,-0.57229936,-18.22274398803711,0.4646774232387543,0.7900292873382568,35.70893478393555,154.06619262695312, 16.164020538330078
521,114858578,0.015217558,0.8331089,-0.036941577,-0.55166394,-20.537275314331055,-0.409789115190506,1.937233328819275,20.018770217895508,166.642822265625, 20.95002555847168
522,114875245,0.018767798,0.8472196,-0.03937733,-0.52944875,-22.309751510620117,0.538372278213501,1.2408612966537476,-4.595301151275635,177.86685180664062, 26.087810516357422
523,114891912,0.024211628,0.8608009,-0.039931998,-0.5067945,-21.6119441986084,-0.5888115167617798,3.575979232788086,-22.40064811706543,179.50253295898438, 22.237661361694336
524,114908579,0.02658875,0.8742678,-0.041324634,-0.48295033,-17.960853576660156,1.9437708854675293,5.066016674041748,-0.9999778866767883,185.4470672607422, 16.77764320373535
525,114925246,0.028014475,0.8855497,-0.044233147,-0.46158445,-12.387646675109863,3.29227352142334,3.06355881690979,8.693263053894043,163.00772094726562, 22.901193618774414
526,114941913,0.026834887,0.89384335,-0.04918186,-0.44486532,-9.735075950622559,3.2487740516662598,1.0916426181793213,29.090335845947266,124.22025299072266, 27.048805236816406
527,114958580,0.02279987,0.89870566,-0.05434196,-0.43457478,-8.637242317199707,1.7267745733261108,3.513947010040283,44.518775939941406,73.33126068115234, 19.568180084228516
528,114975247,0.016646335,0.8995978,-0.059188697,-0.43236926,-8.358548164367676,2.7253763675689697,5.833380699157715,53.05936813354492,10.905075073242188, 11.517891883850098
529,114991914,0.019512242,0.89655864,-0.058396216,-0.43862462,-6.380060195922852,3.7018096446990967,6.989313125610352,-23.34101676940918,-48.641822814941406, 4.071122646331787
530,115008581,0.029152395,0.889952,-0.054614566,-0.45183238,-5.847326755523682,1.851224660873413,6.031893253326416,-77.3393325805664,-99.00115203857422, 6.551177501678467
531,115025248,0.040259726,0.87997025,-0.049739048,-0.47069836,-6.338788032531738,2.026127815246582,4.170981407165527,-92.49553680419922,-143.23220825195312, 4.549826145172119
532,115041915,0.051488128,0.8666177,-0.043063544,-0.49443713,-6.963794231414795,0.4638582766056061,2.413252830505371,-101.63777923583984,-183.00975036621094, -6.1446428298950195
533,115058582,0.059032645,0.8504787,-0.035754196,-0.5214621,-8.104597091674805,-0.4697014391422272,0.24186907708644867,-83.80136108398438,-212.8777618408203, -22.767799377441406
534,115075249,0.06232999,0.8321166,-0.027880106,-0.5503812,-9.21339225769043,-1.38383150100708,-1.294447898864746,-62.369503021240234,-232.71559143066406, -41.49721908569336
535,115091916,0.05997251,0.81198096,-0.021040287,-0.58021295,-9.960282325744629,-1.4618364572525024,-2.729541063308716,-27.05030059814453,-246.1699676513672, -56.99869918823242
536,115108583,0.052602366,0.7907735,-0.016655099,-0.6096167,-10.863082885742188,-1.5139986276626587,-4.017268657684326,10.334707260131836,-249.80882263183594, -62.933677673339844
537,115125250,0.040762268,0.7686909,-0.015118038,-0.63814104,-11.503639221191406,0.4178127646446228,-4.696648597717285,46.344818115234375,-250.2744140625, -65.7459487915039
538,115141917,0.028528124,0.74535024,-0.0143495845,-0.6659077,-12.208353996276855,1.3604636192321777,-4.511938095092773,51.51628494262695,-252.0957794189453, -63.07564163208008
539,115158584,0.017216818,0.7208995,-0.014990329,-0.69266325,-12.594792366027832,1.5323290824890137,-4.407817363739014,53.10990905761719,-252.23716735839844, -51.337528228759766
540,115175251,0.0084511805,0.6951897,-0.016106458,-0.718596,-13.188386917114258,2.060938596725464,-4.5510783195495605,42.67929458618164,-254.00897216796875, -36.647762298583984
541,115191918,0.0033820602,0.66846454,-0.01668469,-0.743549,-13.187664985656738,2.118361234664917,-4.959162712097168,22.38861083984375,-253.9718475341797, -20.806808471679688
542,115208585,0.0029387698,0.640767,-0.014878135,-0.76758546,-13.107665061950684,2.6073319911956787,-5.271281719207764,-11.002591133117676,-254.22891235351562, -8.004401206970215
543,115225252,0.0065413048,0.6125645,-0.010097307,-0.7903288,-13.072027206420898,1.907663106918335,-5.8173089027404785,-44.42494583129883,-250.81539916992188, 0.3000252842903137
544,115241919,0.010688896,0.58493865,-0.0048304563,-0.8109926,-12.690282821655273,0.6999630928039551,-6.564113616943359,-49.20947265625,-238.96054077148438, 1.2551510334014893
545,115258586,0.011824357,0.558978,-0.002108702,-0.82909536,-12.102662086486816,-1.9763524532318115,-7.305482864379883,-22.708173751831055,-219.7658233642578, -5.171300411224365
546,115275253,0.0059274477,0.53569645,-0.0063442257,-0.844366,-10.633899688720703,-3.80692982673645,-7.919189453125,44.24176788330078,-194.38967895507812, -18.298316955566406
547,115291920,-0.0068412693,0.5162574,-0.019786438,-0.85617733,-10.39549446105957,-0.34378519654273987,-9.436419486999512,123.32991027832031,-160.13209533691406, -24.254953384399414
548,115308587,-0.016872626,0.5036156,-0.03448622,-0.8630742,-9.435037612915039,5.381211280822754,-12.02543830871582,121.34978485107422,-102.36121368408203, -4.800758361816406
549,115325254,-0.019951968,0.5009338,-0.04529072,-0.86406946,-8.394902229309082,5.523743629455566,-12.9990234375,74.35480499267578,-21.764793395996094, 19.895889282226562
550,115341921,-0.01627057,0.5070126,-0.04849914,-0.8604192,-8.031795501708984,2.707249402999878,-11.370924949645996,6.135969161987305,47.200775146484375, 30.500350952148438
551,115358588,-0.009696379,0.51798576,-0.047391355,-0.85402024,-8.560596466064453,-0.7572149038314819,-9.924803733825684,-29.147672653198242,86.10256958007812, 30.607791900634766
552,115375255,-0.0016789236,0.5307933,-0.04163299,-0.8464762,-9.959798812866211,-2.4518473148345947,-3.5776703357696533,-61.362091064453125,101.01573181152344, 21.846210479736328
553,115391922,0.009209182,0.54230344,-0.028995566,-0.83963156,-17.8343563079834,0.09953998029232025,15.058768272399902,-112.06005096435547,91.61624145507812, 13.828768730163574
554,115408589,0.024621127,0.5536077,-0.011686709,-0.83233166,-12.30138874053955,-1.516089916229248,2.268458366394043,-155.80905151367188,93.43488311767578, 22.56526756286621
555,115425256,0.034370083,0.56844884,-0.0034178493,-0.82199323,-10.956740379333496,-4.015559196472168,-7.843811511993408,-81.66236877441406,123.26225280761719, 24.782176971435547
556,115441923,0.04363705,0.5829118,0.002939459,-0.8113575,-11.903864860534668,-0.002360939048230648,-0.5074287056922913,-69.05622863769531,121.74029541015625, 29.62740707397461
557,115458590,0.048385758,0.59467405,0.0015551111,-0.80250806,-7.0013041496276855,-1.4040863513946533,-1.584355115890503,-8.538496017456055,97.27294158935547, 34.84945297241211
558,115475257,0.049134057,0.60499746,-0.003086491,-0.794704,-11.261797904968262,1.6734323501586914,-2.9325666427612305,25.320341110229492,84.01652526855469, 25.748159408569336
559,115491924,0.050704718,0.61428684,-0.00472431,-0.78743786,-14.196429252624512,1.276160478591919,-1.4138872623443604,5.115450382232666,77.13643646240234, 17.580135345458984
560,115508591,0.052795313,0.6231374,-0.005913502,-0.7803059,-10.654897689819336,0.5527341961860657,-0.32444262504577637,0.32535842061042786,74.35392761230469, 18.46426010131836
561,115525258,0.056483746,0.6310228,-0.0055303704,-0.7736855,-10.399913787841797,0.5616359114646912,-0.21729128062725067,-15.329495429992676,67.62796020507812, 20.151823043823242
562,115541925,0.061698306,0.6380617,-0.0041479217,-0.7674982,-10.809216499328613,0.1457275003194809,0.4071330428123474,-27.6149959564209,61.7025032043457, 23.792724609375
563,115558592,0.06449322,0.6446243,-0.005230231,-0.76175654,-9.876069068908691,-0.2516338527202606,-0.6347090005874634,-4.2094879150390625,56.13628005981445, 21.66281509399414
564,115575259,0.06486691,0.6508656,-0.008439882,-0.75636965,-10.26917552947998,1.283199667930603,-0.2656836211681366,17.50688934326172,51.85923385620117, 18.275943756103516
565,115591926,0.06452057,0.6567631,-0.01135561,-0.75124586,-10.288726806640625,1.7704124450683594,0.07244468480348587,19.028596878051758,48.99541473388672, 13.119953155517578
566,115608593,0.0644504,0.66234106,-0.013409159,-0.74630463,-10.206816673278809,1.5503478050231934,0.11392360925674438,13.172528266906738,46.94052505493164, 10.593588829040527
567,115625260,0.06407688,0.66784394,-0.015301435,-0.7413802,-10.05405330657959,1.2520456314086914,-0.3916087746620178,13.69241714477539,46.53819274902344, 8.300167083740234
568,115641927,0.06415053,0.6730921,-0.0164753,-0.7365868,-10.06800365447998,1.2557796239852905,-0.4338388442993164,7.851945400238037,45.015480041503906, 7.2501325607299805
569,115658594,0.06405922,0.67809194,-0.017500283,-0.73197097,-9.994694709777832,0.746710479259491,-0.2743079960346222,7.733224868774414,42.994930267333984, 5.675358295440674
570,115675261,0.06292684,0.682928,-0.019305408,-0.72751415,-9.713751792907715,0.8286290764808655,-0.432216078042984,16.423824310302734,40.97349548339844, 4.028386116027832
571,115691928,0.06122301,0.68769354,-0.021470362,-0.72309625,-9.58879280090332,1.2947252988815308,-0.5998604893684387,20.873798370361328,40.219635009765625, 2.8585004806518555
572,115708595,0.059757113,0.6923062,-0.023187289,-0.71875125,-9.693248748779297,1.3172858953475952,-0.6164892911911011,17.447797775268555,39.350528717041016, 1.9167709350585938
573,115725262,0.05871915,0.69674325,-0.02443028,-0.7144956,-9.671285629272461,0.9416530728340149,-0.682937502861023,12.985922813415527,38.33120346069336, 1.7677279710769653
574,115741929,0.057664413,0.7011246,-0.025737729,-0.71023697,-9.557604789733887,1.0863049030303955,-0.5928761959075928,13.36257266998291,38.055137634277344, 2.008514404296875
575,115758596,0.056688495,0.70558935,-0.02687494,-0.7058384,-9.395774841308594,1.273648977279663,-0.8010501861572266,12.211893081665039,39.23099136352539, 1.6156138181686401
576,115775263,0.05565968,0.710136,-0.028008813,-0.70130205,-9.391213417053223,1.3342214822769165,-0.9463692903518677,12.510865211486816,40.29861831665039, 1.3813977241516113
577,115791930,0.0547094,0.7146342,-0.02910452,-0.6967482,-9.370684623718262,1.1872341632843018,-0.9743856191635132,11.93058967590332,40.19013977050781, 1.5890921354293823
578,115808597,0.05380354,0.719208,-0.030200649,-0.69204986,-9.536358833312988,1.0282628536224365,-0.7815708518028259,11.773868560791016,41.281402587890625, 1.8439022302627563
579,115825264,0.052848622,0.7239188,-0.031434312,-0.6871394,-9.701167106628418,0.8387216329574585,-0.9070830345153809,12.767642974853516,42.93373489379883, 2.3428807258605957
580,115841931,0.05173079,0.728954,-0.03292099,-0.6818109,-9.620271682739258,0.8946952223777771,-0.9511486291885376,14.984355926513672,46.43113708496094, 2.9182779788970947
581,115858598,0.050348826,0.73437786,-0.03495075,-0.67596793,-9.456015586853027,0.7282894849777222,-0.8446484208106995,19.11094093322754,50.59109115600586, 4.501753807067871
582,115875265,0.048764102,0.7403171,-0.03736441,-0.66944504,-9.713666915893555,1.0051318407058716,-0.8034608960151672,22.26169776916504,56.25215148925781, 5.6154069900512695
583,115891932,0.04728501,0.74693143,-0.039732378,-0.66202635,-9.845714569091797,1.113417625427246,-0.8980718851089478,21.97184944152832,63.97705841064453, 5.999674320220947
584,115908599,0.045834307,0.75411433,-0.042164925,-0.6537835,-9.766196250915527,1.2207962274551392,-1.340363621711731,22.531963348388672,70.80009460449219, 6.576079845428467
585,115925266,0.044538725,0.76199937,-0.044849887,-0.64448553,-9.655440330505371,1.221847653388977,-1.5674751996994019,23.391386032104492,79.40548706054688, 8.712506294250488
586,115941933,0.043016285,0.77017033,-0.048259474,-0.6345537,-10.083344459533691,1.6595494747161865,-1.6776570081710815,28.073089599609375,83.7138900756836, 11.611116409301758
587,115958600,0.040713873,0.7788504,-0.05281705,-0.6236545,-10.81033706665039,1.003772497177124,-1.8142145872116089,37.68608856201172,90.47480773925781, 14.403740882873535
588,115975267,0.03739061,0.78838843,-0.0582815,-0.6112684,-12.317227363586426,0.8933610916137695,-1.665533185005188,47.82166290283203,101.50851440429688, 14.995393753051758
589,115991934,0.034133267,0.79926777,-0.063310914,-0.5966554,-14.820335388183594,1.2620600461959839,-1.4006074666976929,46.873416900634766,119.38113403320312, 12.96022891998291
590,116008601,0.032188855,0.81144094,-0.06760136,-0.57961863,-16.57317543029785,0.09753704071044922,-0.4086374342441559,37.98862838745117,138.79417419433594, 14.300078392028809
591,116025268,0.031166833,0.8250474,-0.07183498,-0.5596116,-18.520479202270508,-1.4114153385162354,0.009821027517318726,34.315574645996094,161.5787353515625, 17.670490264892578
592,116041935,0.033244647,0.83931625,-0.07429879,-0.5375153,-20.64322280883789,-2.1030144691467285,1.6436505317687988,11.090795516967773,177.966796875, 19.711957931518555
593,116058602,0.04063652,0.8519563,-0.07362661,-0.5168155,-21.89872932434082,-0.3308011591434479,2.3693580627441406,-32.25634002685547,167.41946411132812, 21.806331634521484
594,116075269,0.050895132,0.86387813,-0.072168685,-0.49589944,-19.215190887451172,0.4555208683013916,1.4423929452896118,-51.929893493652344,167.92689514160156, 27.840673446655273
595,116091936,0.05404001,0.8770858,-0.07307959,-0.47165635,-15.928228378295898,-0.11832582950592041,2.3683021068573,0.5088537335395813,187.82704162597656, 18.200061798095703
596,116108603,0.051131457,0.88852113,-0.076446846,-0.44952357,-11.563218116760254,3.3954432010650635,3.0150146484375,43.26823806762695,165.49998474121094, 13.510660171508789
597,116125270,0.04909026,0.8962058,-0.079478994,-0.43369186,-9.053271293640137,6.46498966217041,0.3105486333370209,32.32855987548828,116.0691909790039, 13.891312599182129
598,116141937,0.048550542,0.90152216,-0.08065089,-0.4223695,-7.613742828369141,5.174121379852295,2.5844554901123047,14.303661346435547,82.72522735595703, 6.639138221740723
599,116158604,0.048420805,0.9029557,-0.080192566,-0.41939902,-8.191566467285156,-0.10509525239467621,7.154565334320068,1.139657974243164,20.51831817626953, -2.9361159801483154
600,116175271,0.04324641,0.90096974,-0.0796141,-0.424317,-5.306218147277832,0.1563791036605835,6.490185260772705,26.64266014099121,-40.94977951049805, -18.950685501098633
601,116191938,0.040900152,0.8957258,-0.07598754,-0.43615204,-5.123993873596191,0.6949816942214966,4.480849266052246,-4.506801605224609,-90.76880645751953, -29.846284866333008
602,116208605,0.038149893,0.88756895,-0.07067382,-0.45361987,-6.121753692626953,-0.3571782410144806,3.4957752227783203,-10.82423210144043,-133.87115478515625, -41.506717681884766
603,116225272,0.03621211,0.8762316,-0.063983865,-0.47624886,-7.73831033706665,1.1448262929916382,2.300006628036499,-23.410993576049805,-174.47911071777344, -47.167850494384766
604,116241939,0.035782285,0.86175233,-0.05622306,-0.50293314,-7.768770694732666,1.8712369203567505,0.8313325047492981,-38.556827545166016,-208.22323608398438, -48.30592727661133
605,116258606,0.03784936,0.84415364,-0.046339482,-0.5327519,-8.408635139465332,2.0354835987091064,-0.7263927459716797,-62.65914535522461,-236.06922912597656, -51.81698989868164
606,116275273,0.038782828,0.82417893,-0.035856694,-0.5638609,-9.702919960021973,0.8172496557235718,-1.9994632005691528,-59.294654846191406,-252.4490966796875, -59.03175354003906
607,116291940,0.035422456,0.80269384,-0.02769711,-0.5946938,-11.197474479675293,0.15272729098796844,-3.5331101417541504,-26.280437469482422,-258.4053039550781, -62.06333923339844
608,116308607,0.027716195,0.78016406,-0.02247364,-0.6245563,-11.623122215270996,0.5917539000511169,-4.88736629486084,9.650896072387695,-258.86541748046875, -63.187896728515625
609,116325274,0.017682483,0.7564163,-0.019514335,-0.6535603,-12.041733741760254,1.5692082643508911,-5.305519104003906,31.756168365478516,-260.3054504394531, -60.693443298339844
610,116341941,0.007937454,0.73136216,-0.017932262,-0.6817073,-12.642780303955078,2.139364242553711,-4.950071811676025,36.397953033447266,-261.8844909667969, -51.97357177734375
611,116358608,-0.0002784636,0.70493406,-0.017612109,-0.709054,-12.921772956848145,2.4698026180267334,-5.001636505126953,34.64293670654297,-264.2227478027344, -38.273406982421875
612,116375275,-0.006045208,0.67749316,-0.017966874,-0.73528475,-12.836335182189941,2.8136613368988037,-5.5384650230407715,26.196962356567383,-263.5057373046875, -22.97020721435547
613,116391942,-0.008619415,0.64956456,-0.018077333,-0.76004267,-12.672306060791016,2.785613536834717,-5.7297468185424805,10.282391548156738,-258.7943420410156, -8.000035285949707
614,116408609,-0.009366098,0.6213944,-0.01801784,-0.7832347,-12.774335861206055,2.4087955951690674,-5.636578559875488,1.4284796714782715,-252.9280548095703, 0.6989039778709412
615,116425276,-0.009999586,0.59333736,-0.018453551,-0.8046802,-13.168473243713379,0.6716330647468567,-6.1096954345703125,3.80532169342041,-244.9003143310547, 3.274129867553711
616,116441943,-0.013654092,0.56607145,-0.022196023,-0.82394415,-12.630860328674316,-0.08961403369903564,-7.361085891723633,34.636375427246094,-231.88314819335938, -0.20451860129833221
617,116458610,-0.020668518,0.5411375,-0.029556347,-0.8401604,-11.639501571655273,-1.9749159812927246,-8.579922676086426,68.44418334960938,-207.10403442382812, -5.792757987976074
618,116475277,-0.032585878,0.5211543,-0.042661887,-0.8517724,-10.782095909118652,-1.345853567123413,-10.579442024230957,120.10831451416016,-161.69093322753906, -14.369048118591309
619,116491944,-0.043653198,0.509219,-0.056091335,-0.857697,-9.253944396972656,1.963918924331665,-13.867618560791016,118.80815124511719,-94.0097427368164, -11.829023361206055
620,116508611,-0.047358308,0.5076544,-0.064284176,-0.857853,-7.344934940338135,3.3867883682250977,-14.994589805603027,61.22085952758789,-11.576318740844727, 7.530025959014893
621,116525278,-0.042946044,0.5152377,-0.064253055,-0.8535558,-8.056876182556152,1.1702470779418945,-13.03133487701416,-16.67617416381836,58.635379791259766, 21.192419052124023
622,116541945,-0.033569463,0.5274334,-0.057041932,-0.8470143,-8.36630630493164,0.41973912715911865,-9.389946937561035,-76.809814453125,93.54967498779297, 22.177804946899414
623,116558612,-0.020185972,0.53999794,-0.042422622,-0.84035426,-12.487358093261719,-0.277135968208313,6.993947505950928,-134.55905151367188,95.85184478759766, 18.44837760925293
624,116575279,-0.0063767545,0.54850346,-0.028250527,-0.8356466,-17.671892166137695,-2.093658924102783,14.531393051147461,-133.5563201904297,65.35032653808594, 23.99003791809082
625,116591946,0.002548634,0.55976534,-0.0211012,-0.8283787,-9.227096557617188,-5.950704097747803,-6.6313276290893555,-74.38822937011719,90.28328704833984, 21.764705657958984
626,116608613,0.0052252924,0.57492995,-0.021663286,-0.8178991,-13.853680610656738,3.0846433639526367,-5.0752153396606445,-5.876707553863525,123.71663665771484, 15.400985717773438
627,116625280,0.013584516,0.58860445,-0.019385325,-0.8080745,-9.997711181640625,-0.3225470781326294,0.5259240865707397,-44.496273040771484,113.5787353515625, 36.289398193359375
628,116641947,0.015519944,0.59990996,-0.023629235,-0.7995679,-7.808575630187988,-0.6452164649963379,-1.730251431465149,17.327289581298828,93.5869369506836, 27.184856414794922
629,116658614,0.017390283,0.61036,-0.02675591,-0.791481,-12.446919441223145,2.1567652225494385,-2.504244804382324,11.282973289489746,87.21695709228516, 22.326210021972656
630,116675281,0.020614833,0.6198646,-0.027596053,-0.7839524,-12.883514404296875,0.838492214679718,-1.3932247161865234,-7.0818023681640625,80.18404388427734, 20.18718910217285
631,116691948,0.024931598,0.62866527,-0.027764916,-0.7767802,-10.12862777709961,0.26739323139190674,-0.4068043529987335,-15.53950023651123,75.12152099609375, 23.288349151611328
632,116708615,0.030231187,0.6362033,-0.026708085,-0.77046615,-10.760498046875,0.19472023844718933,0.010124213993549347,-26.725807189941406,65.03864288330078, 23.32613754272461
633,116725282,0.034238067,0.64304495,-0.02742871,-0.76457095,-10.660987854003906,-1.2270710468292236,-0.330810010433197,-11.89057731628418,58.89019775390625, 24.290504455566406
634,116741949,0.035533242,0.6492535,-0.031189717,-0.7591012,-10.296258926391602,0.07325264066457748,-0.5595215559005737,15.84386157989502,52.43185043334961, 23.520259857177734
635,116758616,0.036490664,0.65463805,-0.03485481,-0.7542563,-10.42965316772461,1.4643561840057373,-0.33607959747314453,16.504119873046875,45.26862716674805, 21.36713409423828
636,116775283,0.037355434,0.6594286,-0.037801307,-0.74988633,-10.419707298278809,1.3002456426620483,-0.24692678451538086,12.917828559875488,40.19055938720703, 17.67256736755371
637,116791950,0.037927914,0.66377324,-0.040469136,-0.74587446,-10.051294326782227,1.452829360961914,0.01848270371556282,12.588773727416992,36.24739074707031, 14.925369262695312
638,116808617,0.038872384,0.6676719,-0.04224117,-0.7422392,-9.877734184265137,1.7293670177459717,-0.10842165350914001,6.067079544067383,32.568565368652344, 12.767059326171875
639,116825284,0.040325202,0.6713883,-0.0430534,-0.7387544,-9.798416137695312,1.4187920093536377,-0.32246696949005127,-1.265080213546753,31.342132568359375, 10.958084106445312
640,116841951,0.04101555,0.6751439,-0.044213973,-0.7352167,-9.659059524536133,1.01759672164917,-0.2531545162200928,4.043178558349609,31.45066261291504, 8.690556526184082
641,116858618,0.04050896,0.6790525,-0.046254456,-0.7315101,-9.520228385925293,0.8985975384712219,-0.2305455505847931,14.136922836303711,32.38639831542969, 6.728249549865723
642,116875285,0.039186954,0.6832096,-0.04896494,-0.7275242,-9.604118347167969,0.963536262512207,-0.31691765785217285,21.4665470123291,34.48599624633789, 5.762270927429199
643,116891952,0.038090695,0.68754256,-0.051418435,-0.723319,-9.535042762756348,1.4574612379074097,-0.30112212896347046,19.23780632019043,36.53315353393555, 5.692552089691162
644,116908619,0.037273847,0.69204265,-0.053470433,-0.7189079,-9.405747413635254,1.3285090923309326,-0.4388600289821625,16.03314208984375,38.53481674194336, 5.179246425628662
645,116925286,0.03632064,0.6967495,-0.055468068,-0.7142439,-9.37308406829834,1.3419876098632812,-0.5425751209259033,16.55610466003418,40.717628479003906, 4.236926555633545
646,116941953,0.03513413,0.7016365,-0.057500422,-0.70934165,-9.492717742919922,1.1141473054885864,-0.4738699495792389,17.975839614868164,42.63868713378906, 3.2496421337127686
647,116958620,0.033672325,0.7065318,-0.059704643,-0.7043538,-9.575108528137207,0.9585145115852356,-0.6589537858963013,20.174957275390625,42.93796157836914, 2.759168863296509
648,116975287,0.032157477,0.7116603,-0.062056337,-0.69903827,-9.641417503356934,0.9047962427139282,-0.7945584654808044,21.333873748779297,45.59892272949219, 3.2074623107910156
649,116991954,0.030721817,0.7169549,-0.0644568,-0.69345313,-9.74095344543457,0.9215359687805176,-0.770697832107544,21.328739166259766,47.73450469970703, 3.825120210647583
650,117008621,0.029412486,0.7225563,-0.066827714,-0.6874455,-9.66866397857666,0.9430862665176392,-0.8997924327850342,20.81464958190918,51.339996337890625, 4.244268417358398
651,117025288,0.028317902,0.7285243,-0.06894085,-0.68095356,-9.741068840026855,1.2823519706726074,-0.7202643752098083,18.821624755859375,55.62904739379883, 3.9159793853759766
652,117041955,0.026306948,0.73471814,-0.07202044,-0.67402536,-9.469943046569824,1.6492310762405396,-0.7118616700172424,14.569524765014648,59.721256256103516, 3.271304130554199
653,117058622,0.024721142,0.7411024,-0.07461066,-0.66677517,-9.23647403717041,1.7302844524383545,-1.2271595001220703,8.5449857711792,62.73857879638672, 2.2789292335510254
654,117075289,0.023911366,0.7479576,-0.076191336,-0.6589254,-9.314749717712402,1.4362754821777344,-1.6003658771514893,6.991055488586426,67.80571746826172, 1.0732600688934326
655,117091956,0.024546046,0.75520706,-0.07612685,-0.6505879,-9.735031127929688,1.2104566097259521,-1.780392050743103,5.781179428100586,71.6700668334961, 0.8159009218215942
656,117108623,0.025050327,0.76258606,-0.07632425,-0.6418799,-9.861910820007324,0.7649053931236267,-2.3253173828125,12.47850227355957,73.55096435546875, 2.482105016708374
657,117125290,0.024497803,0.77005315,-0.07786542,-0.6327363,-10.0066556930542,0.9451669454574585,-2.5854058265686035,22.908933639526367,75.56863403320312, 4.867193222045898
658,117141957,0.023336628,0.7777332,-0.08041295,-0.6229931,-10.410896301269531,0.9138432145118713,-2.4581241607666016,29.14842414855957,79.35279083251953, 7.362500190734863
659,117158624,0.021216327,0.7857949,-0.08437503,-0.6123374,-11.097064018249512,1.0123708248138428,-2.1904964447021484,34.72742462158203,85.79903411865234, 9.40213680267334
660,117175291,0.018688912,0.79467183,-0.088702336,-0.6002327,-12.81992244720459,0.8978888988494873,-1.8553555011749268,39.41914749145508,96.78565216064453, 9.415804862976074
661,117191958,0.016211106,0.8047893,-0.092814215,-0.58603513,-14.959234237670898,1.147713541984558,-1.2530417442321777,39.69020462036133,113.43379211425781, 7.976464748382568
662,117208625,0.015061384,0.8158864,-0.096363194,-0.569927,-16.520668029785156,0.32555732131004333,-0.35681360960006714,31.400436401367188,128.9257049560547, 9.819170951843262
663,117225292,0.016359806,0.82794017,-0.09881528,-0.55179995,-18.536584854125977,-0.6416846513748169,0.8614431619644165,14.801498413085938,145.82957458496094, 12.86263656616211
664,117241959,0.022285186,0.8393507,-0.09860239,-0.5341081,-20.588796615600586,-1.5331815481185913,2.3724377155303955,-22.025318145751953,144.48770141601562, 15.671880722045898
665,117258626,0.030901732,0.8503608,-0.09771578,-0.51612335,-20.457015991210938,0.15224595367908478,2.0409188270568848,-39.90542221069336,146.81797790527344, 22.032743453979492
666,117275293,0.03750891,0.8623308,-0.097947866,-0.49536353,-17.52065658569336,0.5442352294921875,1.4800609350204468,-22.11884307861328,165.0526580810547, 21.418066024780273
667,117291960,0.038484525,0.8751616,-0.10042836,-0.47172597,-14.976399421691895,2.785133123397827,0.7601451873779297,21.09261131286621,180.8492889404297, 15.756383895874023
668,117308627,0.03858096,0.8862321,-0.10399884,-0.44976464,-11.827537536621094,5.888986587524414,1.6245371103286743,28.311885833740234,164.30682373046875, 20.22826385498047
669,117325294,0.040344194,0.8934049,-0.106997326,-0.43445542,-9.581957817077637,3.6433985233306885,1.833901286125183,10.649888038635254,113.19775390625, 22.867136001586914
670,117341961,0.038237553,0.89794314,-0.1101237,-0.4243924,-7.725506782531738,0.7592264413833618,5.196742057800293,30.254701614379883,70.34541320800781, 12.553850173950195
671,117358628,0.03132357,0.89870816,-0.11383932,-0.42235428,-7.3800201416015625,0.30148839950561523,8.306478500366211,54.6131477355957,6.154995441436768, 2.9263782501220703
672,117375295,0.027157646,0.8955949,-0.11390135,-0.4291838,-5.007969379425049,1.766839861869812,7.355012893676758,19.284151077270508,-56.76792526245117, -10.520848274230957
673,117391962,0.026608469,0.8891756,-0.110341206,-0.4432647,-6.065751075744629,-0.013054802082479,5.24768590927124,-19.921630859375,-107.51492309570312, -20.92055892944336
674,117408629,0.027048832,0.87965554,-0.10479616,-0.46313334,-7.051913261413574,-0.41923242807388306,3.971369981765747,-36.9533805847168,-151.10931396484375, -28.71916961669922
675,117425296,0.026422929,0.8670343,-0.09900746,-0.48759714,-7.4895548820495605,1.0824426412582397,2.3246638774871826,-35.1474723815918,-189.3834228515625, -32.1734619140625
676,117441963,0.02778365,0.8512,-0.09075424,-0.5161881,-8.19287109375,0.5765478014945984,0.4420108497142792,-58.61820602416992,-222.87445068359375, -38.75351333618164
677,117458630,0.027811617,0.83275753,-0.08082558,-0.5469999,-9.58802604675293,-0.8100581169128418,-1.376805067062378,-58.62672424316406,-245.58311462402344, -52.06267547607422
678,117475297,0.024528695,0.812443,-0.07103375,-0.5781774,-10.612369537353516,-1.362728238105774,-2.8531346321105957,-39.703433990478516,-256.5460205078125, -62.715946197509766
679,117491964,0.016541949,0.7906999,-0.063403055,-0.6086871,-11.537042617797852,-1.7312248945236206,-3.9977378845214844,-4.739349842071533,-261.14215087890625, -68.48371887207031
680,117508631,0.004631396,0.76756686,-0.057856634,-0.6383357,-12.361932754516602,-0.5961487889289856,-4.825752258300781,25.5456485748291,-264.23870849609375, -72.82369995117188
681,117525298,-0.009727848,0.7429478,-0.054635726,-0.6670451,-12.964923858642578,0.12996339797973633,-4.933207035064697,49.01728820800781,-266.8882751464844, -70.65923309326172
