PacketCounter,SampleTimeFine,Quat_W,Quat_X,Quat_Y,Quat_Z,Acc_X,Acc_Y,Acc_Z,Gyr_X,Gyr_Y,Gyr_Z 
1,130431425,0.64796984,-0.22462386,0.6991446,0.20217873,-0.9121606349945068,0.5390186309814453,0.15632891654968262,-0.13224239647388458,6.197705268859863, -0.47409945726394653
2,130448092,0.6477013,-0.22469549,0.69934964,0.20225008,-9.672673225402832,-0.050808437168598175,-0.7981188297271729,1.11538827419281,-2.755376100540161, 0.9621987342834473
3,130464759,0.64757264,-0.22448283,0.69947886,0.20245205,-9.689507484436035,-0.06421739608049393,-0.7730740904808044,0.5872159600257874,-2.762547492980957, 0.9648367762565613
4,130481426,0.64760244,-0.2244097,0.6993726,0.20280404,-9.697368621826172,-0.07902508229017258,-0.7877267599105835,0.4589731991291046,-2.6653730869293213, 0.9079510569572449
5,130498093,0.64765155,-0.2244298,0.69922316,0.20313999,-9.714975357055664,-0.10081677883863449,-0.7882673144340515,0.6298995018005371,-2.432809352874756, 1.0658917427062988
6,130514760,0.6477892,-0.22433504,0.6991028,0.20321976,-9.71082878112793,-0.09385000169277191,-0.7822787761688232,1.2212327718734741,-2.3247623443603516, 0.9969038963317871
7,130531427,0.6479759,-0.22421874,0.6989618,0.20323803,-9.707247734069824,-0.04688279330730438,-0.7997876405715942,1.136134386062622,-2.441837787628174, 0.8557779788970947
8,130548094,0.6480965,-0.22420044,0.69880265,0.20342079,-9.706472396850586,-0.05099784582853317,-0.8161144852638245,0.6850693225860596,-2.4260730743408203, 0.8294224739074707
9,130564761,0.64818716,-0.22416666,0.69867426,0.2036102,-9.723000526428223,-0.025474129244685173,-0.7549753189086914,0.21514666080474854,-2.3509769439697266, 0.8135490417480469
10,130581428,0.64831,-0.22418791,0.69846046,0.20392914,-9.76842975616455,-0.07335451245307922,-0.7795057892799377,-0.36845147609710693,-2.688936233520508, 0.7390992641448975
11,130598095,0.6484507,-0.2241842,0.6982502,0.2042054,-9.742374420166016,-0.0989469513297081,-0.8032500743865967,0.061451271176338196,-2.665526866912842, 0.7886471152305603
12,130614762,0.64859897,-0.22420423,0.69803494,0.20444824,-9.717451095581055,-0.06167702004313469,-0.8067785501480103,0.08391360938549042,-2.7168543338775635, 0.7017943859100342
13,130631429,0.6487559,-0.22422102,0.69780874,0.2047042,-9.692130088806152,-0.07221662998199463,-0.8593946695327759,0.24911554157733917,-2.9028666019439697, 0.7513806223869324
14,130648096,0.6489005,-0.22421972,0.6976079,0.20493227,-9.6947660446167,-0.07367230206727982,-0.8651323318481445,0.42882704734802246,-2.924227237701416, 0.7928858995437622
15,130664763,0.6490353,-0.22426131,0.6973936,0.20518894,-9.694661140441895,-0.06785289198160172,-0.8032040596008301,0.3690854012966156,-3.0677096843719482, 0.7526611089706421
16,130681430,0.64917296,-0.22429235,0.6971773,0.20545457,-9.745582580566406,-0.07885408401489258,-0.6901169419288635,-0.21550524234771729,-3.0748555660247803, 0.7943970561027527
17,130698097,0.6493252,-0.22440232,0.69689065,0.20582491,-9.770310401916504,-0.06771492213010788,-0.746211051940918,-0.6389343738555908,-3.234781265258789, 0.8143749237060547
18,130714764,0.64946216,-0.22448476,0.69664186,0.20614533,-9.719352722167969,-0.10030612349510193,-0.8010279536247253,-0.1287166178226471,-2.8615150451660156, 0.8080487251281738
19,130731431,0.6496176,-0.22456762,0.69638544,0.20643134,-9.681085586547852,-0.03725655376911163,-0.8288557529449463,0.19189678132534027,-2.9574601650238037, 0.6733387112617493
20,130748098,0.64977884,-0.22461106,0.6961445,0.20668915,-9.677360534667969,-0.031255196779966354,-0.853154182434082,0.21228444576263428,-2.993868589401245, 0.675336480140686
21,130764765,0.64990014,-0.22474375,0.69589996,0.2069862,-9.7077054977417,0.029101677238941193,-0.7539434432983398,-0.3904784619808197,-2.83308482170105, 0.42962104082107544
22,130781432,0.6500079,-0.22498609,0.6955849,0.20744334,-9.74488639831543,0.017577894032001495,-0.6854183077812195,-1.7043585777282715,-3.1177055835723877, 0.4284171760082245
23,130798099,0.6501384,-0.22525947,0.6952285,0.20793222,-9.768860816955566,-0.08101868629455566,-0.7425785064697266,-1.9671837091445923,-3.2982120513916016, 0.2593606412410736
24,130814766,0.6503238,-0.22543904,0.69487596,0.20833583,-9.749899864196777,-0.10387714952230453,-0.8452078104019165,-1.183345079421997,-3.511296272277832, 0.2857545018196106
25,130831433,0.6505415,-0.22554989,0.6945463,0.20863517,-9.728132247924805,-0.07638898491859436,-0.8656938672065735,-0.1372840702533722,-3.5637001991271973, 0.20051543414592743
26,130848100,0.6507731,-0.22566494,0.69419456,0.2089591,-9.67784309387207,-0.05039834603667259,-0.8992452621459961,-0.02676527202129364,-3.831403970718384, 0.2724359333515167
27,130864767,0.65102845,-0.22572207,0.6938558,0.20922646,-9.655383110046387,-0.00911471713334322,-0.8888621926307678,0.04213930293917656,-3.969264507293701, 0.24376249313354492
28,130881434,0.6512833,-0.22579549,0.69350165,0.20952812,-9.671560287475586,-0.07943848520517349,-0.8832486271858215,0.3144919276237488,-4.129035949707031, 0.29833030700683594
29,130898101,0.65155774,-0.22580022,0.6931766,0.20974535,-9.68500804901123,-0.025509072467684746,-0.780605673789978,0.7392528057098389,-4.111465930938721, 0.2599240839481354
30,130914768,0.6518166,-0.22583197,0.69285184,0.2099795,-9.721949577331543,-0.012031881138682365,-0.7579655051231384,0.6692023277282715,-4.004700183868408, 0.22196607291698456
31,130931435,0.6520849,-0.22584262,0.6925407,0.21016198,-9.73755168914795,-0.03691175580024719,-0.7485206723213196,1.0088523626327515,-3.9102914333343506, 0.07428324222564697
32,130948102,0.6523393,-0.2258546,0.6922468,0.21032815,-9.712539672851562,-0.059056606143713,-0.7518715262413025,1.0348237752914429,-3.7128045558929443, 0.03261137381196022
33,130964769,0.65258056,-0.22586623,0.69197273,0.2104686,-9.698588371276855,-0.060718435794115067,-0.7686954140663147,1.1503112316131592,-3.5024471282958984, -0.026842111721634865
34,130981436,0.65278673,-0.22590613,0.69170445,0.21066782,-9.696398735046387,-0.04319123923778534,-0.7594988346099854,0.671392023563385,-3.3531248569488525, 0.16525954008102417
35,130998103,0.65299255,-0.22601779,0.69138485,0.21095961,-9.735682487487793,-0.056163206696510315,-0.7352968454360962,-0.09365284442901611,-3.6119544506073, 0.16046999394893646
36,131014770,0.6532261,-0.2260769,0.6910616,0.21123192,-9.773008346557617,-0.07610490173101425,-0.7622920274734497,0.2694264054298401,-3.788681983947754, 0.2778145968914032
37,131031437,0.6534898,-0.22609065,0.69073623,0.21146613,-9.723344802856445,-0.07611051201820374,-0.809120774269104,0.653668224811554,-3.9434597492218018, 0.281297892332077
38,131048104,0.65378433,-0.22609018,0.6903899,0.21168645,-9.672384262084961,-0.052327223122119904,-0.8654136657714844,0.6753236055374146,-4.198651313781738, 0.20912127196788788
39,131064771,0.65407467,-0.22608005,0.69004214,0.21193424,-9.685776710510254,-0.03273828327655792,-0.8219572305679321,0.6061821579933167,-4.276937007904053, 0.3815971910953522
40,131081438,0.65436107,-0.2261067,0.6896753,0.2122159,-9.71335506439209,-0.04025036841630936,-0.796049177646637,0.3405912518501282,-4.361150741577148, 0.33181893825531006
41,131098105,0.6546631,-0.22609234,0.68930686,0.21249665,-9.70104694366455,-0.05218417942523956,-0.7659085392951965,0.44537290930747986,-4.509283065795898, 0.4861099123954773
42,131114772,0.6549861,-0.22605276,0.6889304,0.21276309,-9.656672477722168,-0.015224792994558811,-0.7921248078346252,0.6642206311225891,-4.660654067993164, 0.49726423621177673
43,131131439,0.65531105,-0.22598986,0.68856144,0.21302387,-9.62906265258789,-0.018028145655989647,-0.8048964738845825,0.7770957946777344,-4.671718597412109, 0.5781235694885254
44,131148106,0.6556362,-0.2259049,0.68821335,0.21323909,-9.66292667388916,-0.02510172314941883,-0.7446681261062622,1.1775376796722412,-4.554783821105957, 0.5029246807098389
45,131164773,0.6559522,-0.22579,0.6879016,0.21339425,-9.689413070678711,-0.06493663787841797,-0.7368105053901672,1.4304887056350708,-4.297863006591797, 0.42762327194213867
46,131181440,0.6562215,-0.22570395,0.6876266,0.2135436,-9.732072830200195,-0.0700758621096611,-0.6424018144607544,1.4248408079147339,-3.8580920696258545, 0.40056338906288147
47,131198107,0.6564644,-0.22561556,0.6873729,0.21370669,-9.723084449768066,-0.09378787875175476,-0.6889705061912537,1.3428421020507812,-3.6390531063079834, 0.5503209233283997
48,131214774,0.6567102,-0.22552499,0.68711835,0.2138658,-9.757076263427734,-0.06550298631191254,-0.6815411448478699,1.2624437808990479,-3.6454687118530273, 0.5420480370521545
49,131231441,0.6569486,-0.22544785,0.6868646,0.21403031,-9.759459495544434,-0.05810908228158951,-0.7926622629165649,1.2671566009521484,-3.586636543273926, 0.5231074690818787
50,131248108,0.65721786,-0.22529179,0.6866247,0.21413739,-9.708690643310547,-0.06491421908140182,-0.7560638189315796,1.8042160272598267,-3.7141101360321045, 0.6066175699234009
51,131264775,0.6574702,-0.2251915,0.686372,0.21427822,-9.699824333190918,-0.025564296171069145,-0.6959267854690552,1.4597512483596802,-3.671107292175293, 0.5089948177337646
52,131281442,0.6577432,-0.22505681,0.68612087,0.2143864,-9.737066268920898,-0.01465156301856041,-0.6746325492858887,1.4794602394104004,-3.7607388496398926, 0.4766075611114502
53,131298109,0.6580024,-0.22494677,0.68587035,0.21450797,-9.71118450164795,-0.04242030531167984,-0.6838010549545288,1.5838704109191895,-3.671645164489746, 0.44853606820106506
54,131314776,0.6582657,-0.22481418,0.68563724,0.21458474,-9.7285795211792,-0.023736275732517242,-0.6739564538002014,1.7078871726989746,-3.5750722885131836, 0.36324575543403625
55,131331443,0.65851015,-0.22472422,0.6853996,0.21468844,-9.715539932250977,-0.00146292126737535,-0.6974627375602722,1.3767530918121338,-3.4828407764434814, 0.30212101340293884
56,131348110,0.6587247,-0.22471021,0.68514746,0.21484908,-9.727042198181152,-0.03094666637480259,-0.6827929019927979,0.8081255555152893,-3.3873822689056396, 0.2207750827074051
57,131364777,0.6589502,-0.22468841,0.6848837,0.21502158,-9.725874900817871,-0.017469244077801704,-0.7256889343261719,0.6752979159355164,-3.5235133171081543, 0.2704508900642395
58,131381444,0.65916705,-0.22467975,0.68462664,0.21518463,-9.701753616333008,-0.02157854288816452,-0.7180554866790771,0.638530969619751,-3.4278368949890137, 0.18418732285499573
59,131398111,0.65933615,-0.22476096,0.68435127,0.2154572,-9.735878944396973,0.00554895494133234,-0.6280319690704346,-0.43448105454444885,-3.3317770957946777, 0.2947061359882355
60,131414778,0.65947664,-0.22490028,0.6840709,0.21577255,-9.723252296447754,-0.0190271008759737,-0.6753209233283997,-0.9031422734260559,-3.1956067085266113, 0.24441559612751007
61,131431445,0.65963864,-0.2250402,0.68376976,0.2160852,-9.713605880737305,-0.03291434422135353,-0.6972717046737671,-0.9592724442481995,-3.3900198936462402, 0.15976561605930328
62,131448112,0.6598065,-0.22518565,0.683464,0.2163882,-9.690213203430176,-0.01479855552315712,-0.7293771505355835,-0.9136562943458557,-3.4236114025115967, 0.0740014910697937
63,131464779,0.65999,-0.22528556,0.683163,0.21667509,-9.708333969116211,-0.06615956127643585,-0.7361900806427002,-0.6285997033119202,-3.5316970348358154, 0.19459889829158783
64,131481446,0.6601984,-0.2253178,0.68287873,0.21690293,-9.72395133972168,-0.03843275085091591,-0.7471869587898254,-0.048100654035806656,-3.5957672595977783, 0.23511822521686554
65,131498113,0.66041017,-0.22536705,0.68257564,0.21716048,-9.734752655029297,-0.03838518261909485,-0.7374546527862549,-0.18140193819999695,-3.7342801094055176, 0.259450227022171
66,131514780,0.6606353,-0.22537784,0.68228686,0.21737194,-9.721607208251953,-0.05131710320711136,-0.7239084839820862,0.2255774587392807,-3.732795000076294, 0.23214711248874664
67,131531447,0.6608588,-0.22534624,0.6820262,0.21754336,-9.680222511291504,-0.04183157905936241,-0.7156942486763,0.5678271651268005,-3.6130940914154053, 0.2942194938659668
68,131548114,0.66107553,-0.22527498,0.6818065,0.21764717,-9.683890342712402,-0.011696700938045979,-0.6914986371994019,0.9730968475341797,-3.362665891647339, 0.2432246059179306
69,131564781,0.66128755,-0.22519538,0.68160605,0.21771342,-9.683417320251465,-0.013129208236932755,-0.7314687371253967,1.3029626607894897,-3.217902421951294, 0.14880336821079254
70,131581448,0.66150606,-0.225035,0.6814592,0.21767515,-9.652831077575684,-0.03694210574030876,-0.764866054058075,2.180799722671509,-2.9801528453826904, 0.12142340838909149
71,131598115,0.66174304,-0.224797,0.68135005,0.21754251,-9.65224552154541,-0.06784478574991226,-0.7872918248176575,3.0824434757232666,-2.8857955932617188, 0.0880756676197052
72,131614782,0.661982,-0.22451733,0.6812708,0.21735278,-9.759843826293945,-0.0665496438741684,-0.6324427127838135,3.5937886238098145,-2.754837989807129, 0.07208053767681122
73,131631449,0.6622074,-0.22442423,0.6810679,0.21739817,-9.807952880859375,-0.0006186597165651619,-0.5351296067237854,1.494276762008667,-3.3430590629577637, 0.10360977798700333
74,131648116,0.6624049,-0.2244244,0.68081796,0.21757862,-9.76649284362793,-0.08125589787960052,-0.6598101258277893,0.27571430802345276,-3.4898200035095215, 0.2455553561449051
75,131664783,0.66266507,-0.22444613,0.6804803,0.21782,-9.719913482666016,-0.0900760069489479,-0.7346141934394836,-0.09754595905542374,-4.253910541534424, 0.19917075335979462
76,131681450,0.66295576,-0.2243848,0.68016434,0.21798567,-9.705842018127441,-0.06449547410011292,-0.7151596546173096,0.6109845042228699,-4.323910236358643, 0.2329282909631729
77,131698117,0.66323483,-0.22432698,0.67985547,0.21815965,-9.746380805969238,-0.024494383484125137,-0.6417236924171448,0.5310344696044922,-4.261876106262207, 0.28467872738838196
78,131714784,0.66348046,-0.22430566,0.6795602,0.21835494,-9.756103515625,-0.028635120019316673,-0.6656103134155273,0.25759339332580566,-4.031951427459717, 0.2814643979072571
79,131731451,0.6637164,-0.22415864,0.67935956,0.21841268,-9.688336372375488,-0.04600946232676506,-0.6798559427261353,0.5070482492446899,-3.545668601989746, 0.37475863099098206
80,131748118,0.6639259,-0.22401536,0.67919517,0.21843506,-9.695352554321289,0.005410651210695505,-0.6057944297790527,0.6687796115875244,-3.2123830318450928, 0.29347673058509827
81,131764785,0.66409737,-0.22394371,0.6790285,0.21850486,-9.701934814453125,0.02063966542482376,-0.580846905708313,0.05864667892456055,-3.0189177989959717, 0.22592324018478394
82,131781452,0.66423666,-0.22392927,0.6788728,0.21857986,-9.704666137695312,-0.013928157277405262,-0.6597041487693787,-0.25994327664375305,-2.7470645904541016, 0.04344554245471954
83,131798119,0.66437876,-0.22386806,0.6787573,0.21856923,-9.695775985717773,-0.02784503810107708,-0.6863634586334229,0.4183514416217804,-2.5306882858276367, -0.07266322523355484
84,131814786,0.66447246,-0.22381034,0.67868394,0.21857156,-9.689397811889648,0.050185676664114,-0.5793882012367249,0.33058953285217285,-2.1445512771606445, 0.10832251608371735
85,131831453,0.664556,-0.2239045,0.6785241,0.21871756,-9.81583023071289,0.03684370592236519,-0.6264802813529968,-1.1788629293441772,-2.492781639099121, -0.06879571080207825
86,131848120,0.6646607,-0.22392999,0.6784003,0.21875685,-9.69328784942627,-0.06400790810585022,-0.6611834764480591,-0.2803950309753418,-2.3783183097839355, -0.21763108670711517
87,131864787,0.66475713,-0.22399062,0.6782781,0.21878049,-9.735149383544922,-0.00623971875756979,-0.6773698925971985,-0.3779410123825073,-2.2713983058929443, -0.43428897857666016
88,131881454,0.6648407,-0.22407906,0.67813957,0.21886541,-9.7127685546875,-0.04574880376458168,-0.7233325839042664,-0.8350380659103394,-2.3568294048309326, -0.29148533940315247
89,131898121,0.6648987,-0.22418025,0.6780204,0.21895531,-9.707551956176758,-0.07118886709213257,-0.7476807236671448,-0.9266418218612671,-2.1588945388793945, -0.2577790319919586
90,131914788,0.66497195,-0.22424796,0.6779108,0.2190027,-9.709824562072754,-0.06655978411436081,-0.7484469413757324,-0.5377002358436584,-2.195866584777832, -0.30064186453819275
91,131931455,0.6650648,-0.22428405,0.6778044,0.21901278,-9.710031509399414,-0.05181536823511124,-0.7117611765861511,-0.18414251506328583,-2.286637783050537, -0.3446444869041443
92,131948122,0.6652001,-0.22429359,0.67767143,0.21900392,-9.706292152404785,-0.0232903603464365,-0.7174405455589294,0.05119338259100914,-2.637301206588745, -0.4103282690048218
93,131964789,0.6653574,-0.22431974,0.6775133,0.21898827,-9.722158432006836,-0.029813582077622414,-0.7112887501716614,0.003156765131279826,-2.8418188095092773, -0.5913204550743103
94,131981456,0.66556805,-0.22447044,0.6772227,0.21909319,-9.69032096862793,-0.027739349752664566,-0.7574915885925293,-1.2448030710220337,-3.715378761291504, -0.9045767188072205
95,131998123,0.6657703,-0.22458814,0.67695886,0.21917343,-9.688287734985352,-0.07026107609272003,-0.7752671837806702,-0.9514732956886292,-3.590528964996338, -0.8103857636451721
96,132014790,0.66596305,-0.22463526,0.67674494,0.21920042,-9.661906242370605,-0.05084586516022682,-0.741679310798645,-0.3196977376937866,-3.3690948486328125, -0.6316220164299011
97,132031457,0.6661431,-0.22463033,0.6765741,0.21918559,-9.686100959777832,-0.06264971196651459,-0.6969542503356934,0.15862585604190826,-3.1513736248016357, -0.493953675031662
98,132048124,0.66630656,-0.22460915,0.676438,0.21913084,-9.722742080688477,-0.04919581487774849,-0.6580012440681458,0.4456033706665039,-2.8988966941833496, -0.5203988552093506
99,132064791,0.6664468,-0.22455299,0.67634726,0.21904105,-9.722542762756348,-0.08526293188333511,-0.7258772850036621,0.8019400238990784,-2.599522590637207, -0.4121723473072052
100,132081458,0.6665804,-0.22441874,0.67631996,0.2188569,-9.680479049682617,-0.0833665207028389,-0.7218959331512451,1.6838874816894531,-2.273895263671875, -0.36929669976234436
101,132098125,0.6667246,-0.22424236,0.6763119,0.21862343,-9.669803619384766,-0.050317637622356415,-0.6837658882141113,2.1516268253326416,-2.2464001178741455, -0.38192373514175415
102,132114792,0.6668264,-0.22416767,0.676272,0.2185128,-9.738855361938477,0.04190817102789879,-0.6198830604553223,1.0012710094451904,-2.2520735263824463, -0.276002436876297
103,132131459,0.66693634,-0.22415161,0.67618513,0.21846214,-9.738202095031738,-0.057043951004743576,-0.7153631448745728,0.39594030380249023,-2.5244643688201904, -0.36478888988494873
104,132148126,0.66707075,-0.22407876,0.67611855,0.21833235,-9.727824211120605,-0.07057954370975494,-0.7226205468177795,1.0929386615753174,-2.5316998958587646, -0.46793121099472046
105,132164793,0.6672185,-0.22396909,0.67605954,0.21817668,-9.719583511352539,-0.11480671912431717,-0.771765947341919,1.414378046989441,-2.599151134490967, -0.4217899739742279
106,132181460,0.6673803,-0.22379676,0.67601824,0.21798664,-9.727810859680176,-0.08884347230195999,-0.7284707427024841,1.9094457626342773,-2.6512088775634766, -0.2757975161075592
107,132198127,0.66751564,-0.22365688,0.6759762,0.21784596,-9.714424133300781,-0.06619805842638016,-0.7353717088699341,1.489589810371399,-2.5839755535125732, -0.15838894248008728
108,132214794,0.6676371,-0.2235211,0.6759461,0.21770631,-9.679969787597656,-0.08731011301279068,-0.6860315203666687,1.4624017477035522,-2.484649419784546, -0.13184137642383575
109,132231461,0.6677585,-0.22338282,0.67591935,0.21755861,-9.697159767150879,-0.06085522472858429,-0.7001777291297913,1.5165600776672363,-2.481614589691162, -0.14874576032161713
110,132248128,0.6678802,-0.22325122,0.67589676,0.21739072,-9.697837829589844,-0.07447197288274765,-0.7182950377464294,1.5865081548690796,-2.446063995361328, -0.2658213973045349
111,132264795,0.66796935,-0.22314797,0.67588425,0.21726103,-9.731983184814453,-0.058298319578170776,-0.6863924264907837,1.2443993091583252,-2.288571357727051, -0.15581485629081726
112,132281462,0.6680514,-0.22311585,0.67583066,0.21720888,-9.747282028198242,-0.06666348874568939,-0.6639555096626282,0.48584091663360596,-2.478233575820923, -0.18220874667167664
113,132298129,0.6681533,-0.22309902,0.6757495,0.21716544,-9.729013442993164,-0.09175232797861099,-0.7446325421333313,0.36364272236824036,-2.7077620029449463, -0.2843009829521179
114,132314796,0.66826487,-0.22304028,0.6756907,0.21706523,-9.718161582946777,-0.10430935025215149,-0.756366491317749,0.8687379956245422,-2.6510682106018066, -0.3278169631958008
115,132331463,0.6683878,-0.22296442,0.6756293,0.21695605,-9.699958801269531,-0.08780480176210403,-0.7445418238639832,1.0028588771820068,-2.754223108291626, -0.30686572194099426
116,132348130,0.66849554,-0.22290874,0.67557085,0.21686256,-9.712021827697754,-0.12494031339883804,-0.6995005011558533,0.818011999130249,-2.69057559967041, -0.2990538477897644
117,132364797,0.66860217,-0.2228359,0.6755297,0.21673688,-9.735445976257324,-0.11253371834754944,-0.7444024085998535,1.0710910558700562,-2.604875326156616, -0.3344250023365021
118,132381464,0.6686982,-0.2227706,0.67549753,0.21660843,-9.719480514526367,-0.08104941248893738,-0.6979424357414246,1.046784520149231,-2.5244646072387695, -0.34857603907585144
119,132398131,0.66878223,-0.22273822,0.67545956,0.21650109,-9.7017240524292,-0.03376658633351326,-0.6851101517677307,0.7705132961273193,-2.500990390777588, -0.39394888281822205
120,132414798,0.66886973,-0.22272485,0.6754044,0.21641657,-9.694010734558105,-0.05731143429875374,-0.7278100252151489,0.5567240715026855,-2.624674081802368, -0.4111478626728058
121,132431465,0.66895765,-0.22266857,0.6753844,0.21626493,-9.681735038757324,-0.1074102595448494,-0.7261760830879211,1.1194223165512085,-2.4513020515441895, -0.46794405579566956
122,132448132,0.6690554,-0.2225875,0.67536676,0.21610075,-9.693845748901367,-0.10122314095497131,-0.7177359461784363,1.3109028339385986,-2.527512550354004, -0.4184987246990204
123,132464799,0.66912866,-0.22254612,0.6753475,0.21597737,-9.73419189453125,-0.07616090029478073,-0.6910427212715149,0.8991914391517639,-2.448727607727051, -0.3784276247024536
124,132481466,0.669174,-0.22261094,0.67528963,0.21595103,-9.74575424194336,-0.05719966068863869,-0.6711095571517944,-0.13987095654010773,-2.509519338607788, -0.4423697292804718
125,132498133,0.66922176,-0.22264627,0.67524976,0.21589121,-9.730786323547363,-0.09566408395767212,-0.7089380025863647,0.18165168166160583,-2.4515323638916016, -0.43724724650382996
126,132514800,0.66927624,-0.222667,0.675218,0.21580017,-9.699620246887207,-0.05794532969594002,-0.741029679775238,0.4166225790977478,-2.4420814514160156, -0.5091676712036133
127,132531467,0.66934353,-0.22268747,0.6751782,0.2156949,-9.690650939941406,-0.08501429855823517,-0.7703313231468201,0.49206480383872986,-2.5426111221313477, -0.606009304523468
128,132548134,0.6694076,-0.22270799,0.6751371,0.21560346,-9.739130020141602,-0.13329066336154938,-0.7441014051437378,0.4216298460960388,-2.581542491912842, -0.5392113327980042
129,132564801,0.6694638,-0.22272474,0.67510206,0.21552147,-9.705180168151855,-0.13147296011447906,-0.7493101358413696,0.3916245400905609,-2.5633060932159424, -0.45384418964385986
130,132581468,0.6695086,-0.22273475,0.67508703,0.21541929,-9.718618392944336,-0.12667256593704224,-0.733884334564209,0.5294977426528931,-2.4216933250427246, -0.4644734561443329
131,132598135,0.66954976,-0.22272992,0.67507786,0.21532483,-9.727005958557129,-0.11620505154132843,-0.7496237754821777,0.5646511316299438,-2.437701463699341, -0.34306931495666504
132,132614802,0.6695836,-0.22271395,0.6750913,0.21519354,-9.689443588256836,-0.08866358548402786,-0.7376675605773926,0.8101169466972351,-2.2833786010742188, -0.4131392538547516
133,132631469,0.66962165,-0.2227282,0.6750771,0.21510544,-9.680352210998535,-0.04892701283097267,-0.7719848155975342,0.43634432554244995,-2.4758388996124268, -0.4028109312057495
134,132648136,0.669675,-0.22271746,0.6750678,0.21497965,-9.68147087097168,-0.12284035980701447,-0.8024730682373047,0.7573867440223694,-2.5300991535186768, -0.478342741727829
135,132664803,0.6697362,-0.22266245,0.6750754,0.2148219,-9.689835548400879,-0.13834074139595032,-0.7699328660964966,1.146610140800476,-2.532968044281006, -0.40297743678092957
136,132681470,0.6697506,-0.22264323,0.6751053,0.21470317,-9.748377799987793,-0.12501169741153717,-0.6708065271377563,0.7625605463981628,-2.246080160140991, -0.28321242332458496
137,132698137,0.6697656,-0.22267587,0.6751021,0.21463221,-9.758817672729492,-0.10905315726995468,-0.7155333161354065,0.25458383560180664,-2.416635036468506, -0.3535448908805847
138,132714804,0.6698198,-0.22362156,0.67442083,0.21561989,-10.03465461730957,0.13502241671085358,0.30875691771507263,-9.803648948669434,-6.016604900360107, -0.8144842386245728
139,132731471,0.67099917,-0.22600731,0.6712668,0.21927664,-9.62944507598877,0.0335104838013649,-0.9887504577636719,-30.747377395629883,-24.54484748840332, -0.6962721347808838
140,132748138,0.67142195,-0.22770561,0.6695254,0.22153755,-9.56070327758789,-0.3899060785770416,-1.1688967943191528,-20.178274154663086,-13.446232795715332, -0.6487069129943848
141,132764805,0.6717624,-0.22856893,0.66846097,0.22282681,-9.66419792175293,-0.15266908705234528,-0.7835575342178345,-10.948821067810059,-9.75039005279541, -0.09416516125202179
142,132781472,0.67199075,-0.22915153,0.6677434,0.22369026,-9.727898597717285,-0.19336830079555511,-0.6895407438278198,-7.339859485626221,-7.426955699920654, -0.05492645129561424
143,132798139,0.6721615,-0.22932976,0.66739905,0.22402203,-9.75613021850586,-0.16467873752117157,-0.6404618620872498,-2.54718279838562,-5.250244617462158, 0.025747166946530342
144,132814806,0.6725842,-0.2306652,0.6659051,0.22582048,-9.879003524780273,0.07147534191608429,-0.1609947383403778,-15.998213768005371,-12.273981094360352, -0.7071931958198547
145,132831473,0.67279243,-0.23231435,0.6644154,0.22788846,-9.437326431274414,-0.029632877558469772,-0.9424614906311035,-19.01593780517578,-11.207651138305664, -0.5779643654823303
146,132848140,0.6728096,-0.23347962,0.6635229,0.22924262,-9.630600929260254,-0.11911871284246445,-0.6947827339172363,-12.88538646697998,-7.236757755279541, -0.4287185072898865
147,132864807,0.6727471,-0.23427637,0.66300225,0.23011835,-9.679842948913574,-0.1943541020154953,-0.6403427124023438,-8.539032936096191,-4.997257232666016, -0.2419760823249817
148,132881474,0.67265815,-0.23467274,0.66282487,0.23048568,-9.65604305267334,-0.15591955184936523,-0.590613842010498,-3.8692212104797363,-3.1322286128997803, -0.17042690515518188
149,132898141,0.67252403,-0.23489806,0.6628497,0.23057605,-9.65943717956543,-0.12808144092559814,-0.5659297108650208,-1.56831693649292,-1.8401317596435547, -0.27107203006744385
150,132914808,0.67236775,-0.2349633,0.66304606,0.23040058,-9.862336158752441,-0.17231731116771698,-0.4251399040222168,0.6198209524154663,-0.7935197949409485, -0.4564054608345032
151,132931475,0.67226577,-0.2348715,0.6633163,0.23001309,-9.904289245605469,-0.11475782096385956,-0.5008296966552734,2.517632246017456,-0.6193918585777283, -0.6812593340873718
152,132948142,0.6723026,-0.23468372,0.6635141,0.22952685,-9.860651016235352,-0.1910901963710785,-0.6468716263771057,3.5214202404022217,-1.5974003076553345, -1.0335110425949097
153,132964809,0.67249995,-0.23498596,0.66318583,0.22958803,-9.751466751098633,-0.12264351546764374,-0.784640371799469,-1.810958981513977,-4.8974175453186035, -1.8344329595565796
154,132981476,0.67263335,-0.23557784,0.6627286,0.2299105,-9.663093566894531,-0.09673953801393509,-0.8255335092544556,-4.646566867828369,-5.202939033508301, -2.055393695831299
155,132998143,0.6727151,-0.23630528,0.6622506,0.23030166,-9.865143775939941,0.026230737566947937,-0.41594114899635315,-5.701107025146484,-4.997845649719238, -2.310701608657837
156,133014810,0.672804,-0.23704825,0.66176754,0.23066697,-9.882622718811035,-0.023473452776670456,-0.38739559054374695,-5.650725841522217,-4.998754024505615, -2.5328528881073
157,133031477,0.67297304,-0.23737298,0.66152984,0.23052159,-9.729307174682617,-0.2193179577589035,-0.5235772728919983,-0.8716641664505005,-4.070037364959717, -2.7273426055908203
158,133048144,0.67318135,-0.23744795,0.66147405,0.22999518,-9.640314102172852,-0.13331906497478485,-0.5019772052764893,2.371588945388794,-3.2002816200256348, -3.113544225692749
159,133064811,0.67334527,-0.2374659,0.6615029,0.22941424,-9.614359855651855,-0.1521381139755249,-0.6041443347930908,2.946516990661621,-2.624495029449463, -2.8966429233551025
160,133081478,0.6734478,-0.23745169,0.6616329,0.22875237,-9.650750160217285,-0.22570455074310303,-0.5596370100975037,3.5249154567718506,-1.8191163539886475, -2.860349416732788
161,133098145,0.67342335,-0.23746517,0.66188043,0.22809301,-9.651917457580566,-0.17785875499248505,-0.4644927978515625,3.364567756652832,-0.6784932613372803, -2.57653546333313
162,133114812,0.6732883,-0.2374168,0.66230273,0.22731471,-9.679130554199219,-0.14863470196723938,-0.3702186942100525,4.2871880531311035,0.7184425592422485, -2.383453607559204
163,133131479,0.67300284,-0.23730984,0.6629872,0.22627403,-9.784566879272461,-0.09883197396993637,-0.07222975790500641,5.918884754180908,2.9449548721313477, -2.666858673095703
164,133148146,0.6724909,-0.2372334,0.6639386,0.22508353,-9.919191360473633,0.26567792892456055,0.019989972934126854,6.507349967956543,5.517086029052734, -2.7121682167053223
165,133164813,0.67181385,-0.23708701,0.6652504,0.22338043,-9.992477416992188,0.04252824932336807,-0.4490518867969513,9.460434913635254,8.682640075683594, -3.9429235458374023
166,133181480,0.6710543,-0.23693165,0.66675365,0.22133693,-9.841499328613281,-0.1893317997455597,-0.7568448185920715,11.220133781433105,10.476033210754395, -5.044477462768555
167,133198147,0.67023647,-0.23692614,0.6682364,0.21934031,-9.636877059936523,-0.34906503558158875,-0.9445613026618958,10.19101333618164,10.776008605957031, -5.454164505004883
168,133214814,0.6693107,-0.23716713,0.6696204,0.2176801,-9.650296211242676,-0.5569960474967957,-0.9830183386802673,7.188342094421387,10.60656452178955, -5.021564483642578
169,133231481,0.6682614,-0.23748131,0.67105865,0.21612635,-9.71076488494873,-0.3660789132118225,-0.6545372009277344,6.244565963745117,11.32780647277832, -4.571895599365234
170,133248148,0.6670791,-0.23809119,0.67239684,0.21494588,-9.658550262451172,-0.09437493979930878,-0.418634831905365,2.7996938228607178,11.301258087158203, -4.177612781524658
171,133264815,0.66591907,-0.23882425,0.67365414,0.21378982,-9.654241561889648,0.05476818233728409,-0.5326210260391235,2.041032075881958,10.974348068237305, -4.809823989868164
172,133281482,0.6647408,-0.23951815,0.674998,0.21243677,-9.92163372039795,0.020946960896253586,-0.6868051886558533,3.232996940612793,11.7229585647583, -5.3800272941589355
173,133298149,0.6634259,-0.24069145,0.67617065,0.21148992,-9.834781646728516,-0.23506519198417664,-0.6635054349899292,-1.3151743412017822,11.600502967834473, -5.849418640136719
174,133314816,0.6618441,-0.24232145,0.6774046,0.21063468,-9.5354642868042,-0.8137800693511963,-0.7676994800567627,-4.173170566558838,13.63248062133789, -7.071134567260742
175,133331483,0.659967,-0.24400638,0.6789408,0.20963061,-9.906632423400879,-0.5497193336486816,-0.6150988340377808,-3.7814502716064453,16.705446243286133, -7.046290874481201
176,133348150,0.6577658,-0.24578331,0.6806898,0.20879993,-10.056413650512695,-0.48799821734428406,-0.5541911721229553,-5.242734909057617,19.034290313720703, -5.855865478515625
177,133364817,0.65557575,-0.24871574,0.6815098,0.20953842,-10.497404098510742,-0.47562485933303833,0.24078884720802307,-19.125385284423828,13.802436828613281, -5.753866195678711
178,133381484,0.65312195,-0.25207967,0.68218935,0.21096578,-9.95300579071045,-0.7664684653282166,-0.8730416297912598,-24.9520263671875,13.915514945983887, -4.5394158363342285
179,133398151,0.64978206,-0.2548091,0.68424565,0.21133994,-10.196146011352539,-1.0201539993286133,-0.5056858658790588,-16.70098114013672,25.15941619873047, -2.6114025115966797
180,133414818,0.6459709,-0.25711283,0.68705326,0.21112494,-10.413666725158691,-0.5096582174301147,-0.15230000019073486,-11.767863273620605,31.17467498779297, -1.2120105028152466
181,133431485,0.64195246,-0.2591263,0.69023484,0.21054159,-10.743077278137207,-0.37676531076431274,-0.6216518878936768,-8.557367324829102,34.09858322143555, -0.5155218243598938
182,133448152,0.6375928,-0.26118413,0.6937774,0.20960084,-11.534979820251465,-0.3248635530471802,-0.4900290071964264,-7.153139591217041,38.04511642456055, -1.1748607158660889
183,133464819,0.6329195,-0.26498967,0.69630146,0.21061563,-11.4071044921875,-0.10534325987100601,-0.30469194054603577,-24.393253326416016,34.21061325073242, -2.1411325931549072
184,133481486,0.62726456,-0.26953226,0.69924015,0.2120283,-10.996992111206055,-0.036782413721084595,-0.6370047330856323,-30.418394088745117,41.13548278808594, -1.7413594722747803
185,133498153,0.6211187,-0.27372062,0.7028278,0.21289134,-10.708441734313965,-0.28702282905578613,-0.8072112202644348,-26.241785049438477,46.84835433959961, -0.5023982524871826
186,133514820,0.61495626,-0.2771441,0.70689625,0.21288209,-10.407397270202637,-0.12334757298231125,-1.0193390846252441,-17.95884132385254,49.558494567871094, 0.430227130651474
187,133531487,0.609149,-0.2801163,0.71099,0.21205394,-10.296696662902832,0.037277691066265106,-1.4079402685165405,-11.90186595916748,48.861568450927734, -1.3892579078674316
188,133548154,0.60349065,-0.28305838,0.7149471,0.21101874,-10.099469184875488,0.6581013798713684,-2.0861501693725586,-11.69333553314209,47.905452728271484, -2.7774267196655273
189,133564821,0.5979012,-0.2857098,0.71889853,0.20992944,-9.94288158416748,1.0785446166992188,-2.3225812911987305,-11.480052947998047,47.17234420776367, -2.007821798324585
190,133581488,0.5926022,-0.2875884,0.7230134,0.20825101,-9.589191436767578,1.1769793033599854,-2.511962890625,-4.963484764099121,46.428375244140625, -0.8825819492340088
191,133598155,0.58795863,-0.2882422,0.72723675,0.2057883,-9.726018905639648,1.1100181341171265,-2.127321720123291,5.005030632019043,43.37934112548828, 1.1019362211227417
192,133614822,0.5840859,-0.28765205,0.73143095,0.20275646,-9.573192596435547,1.1239984035491943,-1.6611738204956055,14.63652515411377,38.801475524902344, 3.8410897254943848
193,133631489,0.58131063,-0.2860786,0.7350496,0.19985065,-9.05453109741211,0.33841776847839355,0.30697208642959595,19.612751007080078,29.405385971069336, 6.609802722930908
194,133648156,0.5802824,-0.2842174,0.7370001,0.198305,-8.203057289123535,0.2201312929391861,2.0073442459106445,16.11878204345703,11.027314186096191, 8.061603546142578
195,133664823,0.58053356,-0.28373393,0.73625374,0.20101614,-8.283939361572266,2.1228342056274414,2.90289306640625,-12.131216049194336,-12.426389694213867, 11.024956703186035
196,133681490,0.58155006,-0.28536463,0.7324983,0.20931832,-8.53442668914795,0.9536530375480652,3.1551201343536377,-51.525386810302734,-36.016685485839844, 15.579299926757812
197,133698157,0.58463585,-0.2869467,0.72657937,0.21896629,-8.616310119628906,-0.43736088275909424,2.982963800430298,-57.168495178222656,-57.50518035888672, 13.916781425476074
198,133714824,0.58986944,-0.28825295,0.7187666,0.22877981,-8.894615173339844,-1.1058040857315063,2.483358383178711,-55.5255126953125,-76.31240844726562, 9.005782127380371
199,133731491,0.597059,-0.2888083,0.70953846,0.23804733,-8.979052543640137,-1.4893144369125366,2.073315143585205,-49.38151550292969,-91.58668518066406, 4.447424411773682
200,133748158,0.6058183,-0.28906584,0.69885623,0.24703516,-9.086135864257812,-1.5788058042526245,1.7050799131393433,-46.41765213012695,-104.93936920166016, -0.6386054754257202
201,133764825,0.616001,-0.28906873,0.68681747,0.2554701,-9.450262069702148,-1.623016595840454,1.5008624792099,-42.2690315246582,-116.59526824951172, -6.699710369110107
202,133781492,0.627479,-0.2886691,0.6735936,0.26308393,-9.919123649597168,-1.7107722759246826,1.4067143201828003,-35.08626937866211,-126.66365814208984, -12.652850151062012
203,133798159,0.6400064,-0.28748006,0.65957,0.2696584,-10.363224029541016,-1.3894822597503662,1.141258955001831,-24.326936721801758,-134.20938110351562, -16.74980926513672
204,133814826,0.65329367,-0.2853833,0.6449398,0.27534997,-10.683432579040527,-0.8545905947685242,0.7035003900527954,-15.407342910766602,-140.16571044921875, -19.10157012939453
205,133831493,0.6670118,-0.28219596,0.6300391,0.28020096,-11.068574905395508,-0.2046481966972351,0.31861022114753723,-6.720234394073486,-143.66632080078125, -19.422245025634766
206,133848160,0.6806895,-0.27825576,0.61489236,0.28485787,-11.476335525512695,-0.005594180431216955,0.16021892428398132,-4.725338459014893,-145.73635864257812, -17.40147590637207
207,133864827,0.69399995,-0.27362862,0.5998492,0.28926384,-11.475738525390625,-0.05366876348853111,-0.11520449817180634,-0.9579477906227112,-144.60842895507812, -14.766461372375488
208,133881494,0.706676,-0.2683949,0.58516353,0.2935269,-11.283917427062988,0.0919589251279831,-0.18956926465034485,2.0359246730804443,-141.30592346191406, -11.024151802062988
209,133898161,0.7186407,-0.26239824,0.571026,0.2977133,-10.833704948425293,0.04159355163574219,-0.45030808448791504,5.837080478668213,-137.28614807128906, -5.90084171295166
210,133914828,0.7299406,-0.2552508,0.55786234,0.30137122,-10.568595886230469,-0.14019671082496643,-0.5304763913154602,14.388401985168457,-131.40570068359375, -0.8948091268539429
211,133931495,0.74062794,-0.24694553,0.5459593,0.3040032,-10.173026084899902,-0.9069344997406006,-0.7813472151756287,25.669544219970703,-123.48606872558594, 1.869876742362976
212,133948162,0.75063056,-0.23731026,0.5361734,0.3045601,-9.99095344543457,-0.8589274883270264,-1.0249115228652954,43.504940032958984,-109.57300567626953, 1.35303795337677
213,133964829,0.75937676,-0.2278389,0.52842486,0.30365258,-9.647636413574219,-0.7536150813102722,-1.3025507926940918,50.287208557128906,-91.89691162109375, -0.821635901927948
214,133981496,0.76670873,-0.21906479,0.5228038,0.30140615,-9.25229263305664,-0.5651941299438477,-1.842423677444458,53.75297546386719,-72.32026672363281, -4.028609275817871
215,133998163,0.77246064,-0.2105953,0.51978487,0.29795805,-8.999347686767578,-0.1613369733095169,-2.4304888248443604,59.49155807495117,-50.729610443115234, -4.233896255493164
216,134014830,0.776334,-0.20208132,0.5195541,0.29416516,-8.490327835083008,0.4300665557384491,-3.0072717666625977,63.958526611328125,-29.073772430419922, 1.9988561868667603
217,134031497,0.77776325,-0.19505155,0.5216156,0.2914752,-8.103339195251465,1.4072147607803345,-3.7477309703826904,53.33134078979492,-6.929551601409912, 10.711044311523438
218,134048164,0.7765087,-0.19145617,0.52531976,0.29054984,-8.288370132446289,0.5184454917907715,-4.278987884521484,28.30204963684082,15.678340911865234, 15.36805248260498
219,134064831,0.7732975,-0.19084951,0.5301081,0.29081595,-8.123567581176758,0.8419144749641418,-4.349081993103027,7.618539810180664,32.59877395629883, 16.264747619628906
220,134081498,0.76794827,-0.19377397,0.5360773,0.29211193,-8.057384490966797,0.9386272430419922,-4.664215564727783,-15.3733491897583,52.049800872802734, 14.66477108001709
221,134098165,0.760746,-0.19965024,0.5429588,0.29428264,-10.993417739868164,1.2022958993911743,4.237973213195801,-34.84146499633789,68.12808990478516, 13.293689727783203
222,134114832,0.7541294,-0.20635267,0.5475225,0.29820696,-13.97283935546875,-1.3017407655715942,10.668937683105469,-49.61370849609375,53.125205993652344, 14.940849304199219
223,134131499,0.7473926,-0.21371245,0.5512086,0.30315292,-10.663222312927246,-1.4500528573989868,2.6960341930389404,-58.81630325317383,49.23200225830078, 16.802431106567383
224,134148166,0.7390315,-0.2203219,0.55791456,0.30663207,-10.420886993408203,-1.8620331287384033,-3.361820697784424,-45.47655487060547,71.48943328857422, 19.979469299316406
225,134164833,0.7300015,-0.2243424,0.5673359,0.30805758,-10.817688941955566,-2.0470499992370605,-1.1984846591949463,-19.71943473815918,85.23049926757812, 25.080244064331055
226,134181500,0.72230214,-0.22522612,0.57703036,0.30755475,-9.360579490661621,0.7284050583839417,0.34721291065216064,6.184543132781982,77.5750961303711, 25.346431732177734
227,134198167,0.71488416,-0.22730614,0.5852722,0.30778283,-9.68889331817627,2.0779781341552734,-0.20519104599952698,-5.313226222991943,70.57786560058594, 21.36509895324707
228,134214834,0.7077704,-0.2301947,0.59272444,0.30781552,-10.67159652709961,1.7144790887832642,-0.2273644357919693,-9.728190422058105,67.40470886230469, 15.188701629638672
229,134231501,0.700995,-0.23367296,0.59912163,0.30831382,-10.067863464355469,1.348109483718872,0.21468937397003174,-16.21096420288086,61.319847106933594, 12.597259521484375
230,134248168,0.6947991,-0.23708181,0.6046897,0.30886564,-10.138845443725586,0.5663313865661621,0.39716988801956177,-16.937135696411133,54.6580810546875, 10.5286283493042
231,134264835,0.6886566,-0.24038051,0.6099624,0.30970383,-10.189353942871094,0.13388918340206146,0.08134064078330994,-18.145954132080078,52.29713821411133, 11.744340896606445
232,134281502,0.6827054,-0.24340135,0.61491036,0.31073388,-10.219099044799805,-0.1020292416214943,-0.08560842275619507,-18.01397705078125,49.01593017578125, 12.880391120910645
233,134298169,0.6773661,-0.24537125,0.61975425,0.3112455,-10.088401794433594,-0.1785106360912323,0.2202727198600769,-10.089844703674316,44.52975845336914, 13.42973518371582
234,134314836,0.6726771,-0.24634004,0.6245828,0.3109974,-10.053439140319824,0.6176728010177612,0.20001059770584106,-1.1303852796554565,40.81571960449219, 12.772052764892578
235,134331503,0.6682538,-0.24765956,0.6287986,0.3109906,-10.210559844970703,1.1203663349151611,0.2228647619485855,-4.655095100402832,37.17528533935547, 10.774673461914062
236,134348170,0.66401005,-0.24951595,0.6323763,0.3113419,-10.255756378173828,1.1465301513671875,-0.7456072568893433,-9.733433723449707,34.00516891479492, 8.603184700012207
237,134364837,0.6599801,-0.25148746,0.63569885,0.31155798,-10.036333084106445,0.9890455603599548,-0.6371209025382996,-9.856420516967773,32.349796295166016, 6.563696384429932
238,134381504,0.6563197,-0.25321397,0.6389866,0.31116632,-9.989044189453125,0.5690451264381409,-0.7081948518753052,-5.526318550109863,31.074779510498047, 4.008908271789551
239,134398171,0.65291727,-0.2545446,0.64246136,0.3100818,-10.051353454589844,0.32602357864379883,-0.6831588745117188,0.1535678654909134,31.118223190307617, 2.4025626182556152
240,134414838,0.6497215,-0.25539303,0.6461432,0.30844176,-9.798649787902832,0.26185092329978943,-0.7681441903114319,5.576320171356201,31.059982299804688, 1.9830764532089233
241,134431505,0.64672524,-0.255642,0.6500407,0.30633616,-9.81318187713623,0.30929139256477356,-0.9297229647636414,11.13099479675293,30.665233612060547, 2.5510663986206055
242,134448172,0.6438577,-0.25547928,0.6540883,0.30388692,-9.743685722351074,0.2939484417438507,-0.6254867315292358,15.040254592895508,30.473237991333008, 2.886274576187134
243,134464839,0.6411738,-0.2550429,0.6581699,0.30110294,-9.696903228759766,0.4702000617980957,-0.4266776740550995,18.15081787109375,29.811870574951172, 2.3438475131988525
244,134481506,0.6385519,-0.25439712,0.66235495,0.29802805,-9.488672256469727,0.8394695520401001,-0.5613843202590942,20.714427947998047,30.074556350708008, 2.0892059803009033
245,134498173,0.6358082,-0.25397334,0.6664355,0.29514477,-9.368205070495605,1.0228239297866821,-0.5686290264129639,18.442474365234375,30.298978805541992, 1.9956670999526978
246,134514840,0.632932,-0.25380763,0.6704252,0.29242107,-9.443111419677734,0.8591575026512146,-0.5716553926467896,16.169641494750977,30.76663589477539, 1.6203495264053345
247,134531507,0.62983,-0.25398263,0.67434496,0.28994292,-9.447026252746582,0.8064239621162415,-0.5001801252365112,13.023233413696289,31.77648162841797, 1.4539555311203003
248,134548174,0.62644786,-0.25428152,0.6784641,0.28738743,-9.410616874694824,0.7382634282112122,-0.6300678253173828,12.756073951721191,34.345298767089844, 1.457004427909851
249,134564841,0.622757,-0.25489914,0.68258363,0.28509787,-9.393000602722168,0.9792919158935547,-0.7722079753875732,9.606953620910645,35.97438049316406, 1.7326114177703857
250,134581508,0.6188235,-0.2556684,0.68681026,0.28281423,-9.297246932983398,0.7927137017250061,-0.9999147653579712,8.717667579650879,37.87890625, 1.7039515972137451
251,134598175,0.61461496,-0.2565865,0.69115067,0.28057754,-9.351431846618652,0.9007537364959717,-0.9326187968254089,7.602168083190918,39.88410568237305, 1.9367988109588623
252,134614842,0.61002976,-0.25759798,0.6957887,0.27818367,-9.592254638671875,-0.07620054483413696,-1.5864591598510742,7.8668718338012695,43.412620544433594, 2.0773255825042725
253,134631509,0.6051483,-0.25828046,0.7009941,0.27512756,-9.654744148254395,0.22137482464313507,-1.2844163179397583,12.972923278808594,47.7562370300293, 2.4866621494293213
254,134648176,0.6000834,-0.25863537,0.7065092,0.27176023,-9.653688430786133,0.40712323784828186,-1.4244725704193115,16.09441375732422,49.88323211669922, 3.6971070766448975
255,134664843,0.5948278,-0.25884652,0.7121613,0.26833895,-9.529192924499512,0.7822783589363098,-1.834072470664978,16.863849639892578,51.22471618652344, 4.796213150024414
256,134681510,0.5889898,-0.25965163,0.7178628,0.265229,-9.542081832885742,0.7929866909980774,-2.0785815715789795,11.963906288146973,54.82960891723633, 4.328356742858887
257,134698177,0.5825391,-0.26107544,0.7237146,0.26215696,-9.553091049194336,0.670468270778656,-2.3449900150299072,8.451498985290527,59.53001022338867, 2.8171448707580566
258,134714844,0.5756503,-0.2625389,0.730056,0.2583013,-9.71531867980957,0.2751731276512146,-2.537729263305664,12.286608695983887,65.15217590332031, 1.156578540802002
259,134731511,0.56846166,-0.26326212,0.73727787,0.25291693,-10.19620418548584,0.44232654571533203,-2.3002548217773438,23.909452438354492,71.59195709228516, 0.9729499220848083
260,134748178,0.56061494,-0.26382464,0.7449652,0.24725595,-10.75429916381836,0.9297159314155579,-2.5114572048187256,25.55401611328125,76.99594116210938, 2.7182681560516357
261,134764845,0.5514796,-0.26477325,0.7534069,0.2411321,-11.745811462402344,1.3944995403289795,-2.3839809894561768,25.38404083251953,88.03382873535156, 2.5225729942321777
262,134781512,0.54069954,-0.26700073,0.7622057,0.23536864,-12.915470123291016,1.3463281393051147,-1.2625972032546997,16.273212432861328,99.43341064453125, 0.6275848150253296
263,134798179,0.5282786,-0.26968998,0.7715904,0.22986615,-14.245969772338867,0.8153972029685974,-1.1112139225006104,11.137904167175293,110.61040496826172, 2.893496513366699
264,134814846,0.51426375,-0.27354798,0.7804552,0.2271457,-16.8946533203125,0.1189090758562088,0.8980957269668579,-11.637467384338379,114.03469848632812, 8.353108406066895
265,134831513,0.49940574,-0.27714068,0.78921795,0.22566153,-17.65744400024414,-0.8134248852729797,-0.6613243818283081,-19.078378677368164,115.75711822509766, 15.29725170135498
266,134848180,0.48122713,-0.28031796,0.80035555,0.22197911,-19.17173957824707,0.19705204665660858,0.42089536786079407,-8.389516830444336,145.7484588623047, 19.745092391967773
267,134864847,0.46032783,-0.2847295,0.8114261,0.22049122,-19.865982055664062,1.2588332891464233,2.0620932579040527,-29.898012161254883,158.50831604003906, 24.272058486938477
268,134881514,0.4377493,-0.2901381,0.82233834,0.21898896,-17.156583786010742,1.0240105390548706,1.7173526287078857,-36.476463317871094,169.36485290527344, 20.9024715423584
269,134898181,0.4156885,-0.29488593,0.8331998,0.21453373,-15.001789093017578,1.7621805667877197,0.6631871461868286,-16.812721252441406,171.58322143554688, 14.882299423217773
270,134914848,0.39638698,-0.29794046,0.84291255,0.20882691,-12.125308990478516,2.0098462104797363,0.6212784051895142,-0.8636934757232666,152.869384765625, 14.598356246948242
271,134931515,0.38333988,-0.29784214,0.8510912,0.19996408,-9.60133171081543,0.05568750947713852,0.9245314002037048,36.678749084472656,114.66493225097656, 12.122482299804688
272,134948182,0.37757963,-0.29429045,0.85774136,0.18737069,-8.122114181518555,0.9686151742935181,3.002441883087158,80.43836212158203,71.1395034790039, 9.365559577941895
273,134964849,0.3784047,-0.29139495,0.85964596,0.18140861,-7.036228656768799,3.353548526763916,6.795912265777588,46.874759674072266,7.690703392028809, 4.597804069519043
274,134981516,0.3831648,-0.29095817,0.8568803,0.18516354,-6.14463996887207,3.3255088329315186,5.513783931732178,-14.786131858825684,-43.760807037353516, 0.9883438348770142
275,134998183,0.3920765,-0.2912268,0.85029227,0.19613056,-6.763921737670898,0.8664126992225647,5.584784507751465,-55.59977722167969,-91.53004455566406, 2.8275835514068604
276,135014850,0.40630776,-0.29090267,0.840792,0.20822924,-5.997042655944824,0.4578983187675476,3.086338520050049,-53.85459899902344,-133.24520874023438, -3.6440818309783936
277,135031517,0.4251142,-0.290623,0.82833266,0.22064038,-7.375667095184326,-1.2440950870513916,1.1985162496566772,-50.860679626464844,-168.32498168945312, -15.472908973693848
278,135048184,0.4480516,-0.28936213,0.8138178,0.23069665,-8.114517211914062,-1.8215289115905762,-0.41416507959365845,-29.47348976135254,-194.48248291015625, -27.061553955078125
279,135064851,0.47402984,-0.28731385,0.7973391,0.23874274,-8.836440086364746,-1.6308178901672363,-1.8682149648666382,-12.9133882522583,-214.68804931640625, -37.48895263671875
280,135081518,0.50192577,-0.2842772,0.77932477,0.24476734,-9.314374923706055,-1.198636770248413,-2.902527093887329,2.614560842514038,-227.7773895263672, -44.7620849609375
281,135098185,0.53094584,-0.27976194,0.76046443,0.24804232,-10.267139434814453,-1.0499085187911987,-3.815084934234619,23.185340881347656,-233.8229217529297, -49.82206726074219
282,135114852,0.56057894,-0.27377176,0.740973,0.24851659,-11.037310600280762,-0.44198447465896606,-4.444844722747803,43.28404998779297,-236.4902801513672, -54.559959411621094
283,135131519,0.5901909,-0.26625556,0.7208308,0.2473595,-11.518401145935059,-0.08718051016330719,-4.521947383880615,56.304100036621094,-238.4969024658203, -54.26075744628906
284,135148186,0.6193102,-0.25735435,0.69971013,0.2462326,-12.002145767211914,0.9573041796684265,-4.487795352935791,59.19168472290039,-242.53469848632812, -48.246437072753906
285,135164853,0.64722204,-0.2477856,0.67724484,0.24707602,-12.633881568908691,1.2770843505859375,-4.453907489776611,48.13148498535156,-247.19195556640625, -37.0352783203125
286,135181520,0.6736705,-0.23800758,0.6533069,0.25042322,-12.90773868560791,1.8912363052368164,-4.649712562561035,32.40293502807617,-251.7074432373047, -25.002134323120117
287,135198187,0.69810927,-0.22888605,0.62794244,0.25679597,-12.924628257751465,2.1206462383270264,-4.67643928527832,10.024763107299805,-253.302734375, -12.882604598999023
288,135214854,0.72051823,-0.220251,0.6016158,0.2653354,-12.792370796203613,1.905311942100525,-4.618706703186035,-6.568273067474365,-251.9341278076172, -2.581275463104248
289,135231521,0.74140096,-0.21151441,0.5746952,0.2744318,-13.058476448059082,0.8190497756004333,-4.732026100158691,-11.772873878479004,-249.84376525878906, 2.4266273975372314
290,135248188,0.76158273,-0.20124766,0.5483266,0.2807671,-13.032114028930664,-1.1395726203918457,-4.798318386077881,6.959381580352783,-243.41204833984375, -3.4977481365203857
291,135264855,0.78132236,-0.18713221,0.52479184,0.28126806,-12.638873100280762,-3.7415695190429688,-6.193611145019531,53.989742279052734,-226.5645751953125, -14.727580070495605
292,135281522,0.79969656,-0.16857381,0.50672954,0.2743988,-11.640650749206543,-2.1572232246398926,-7.993159770965576,113.34500122070312,-191.70401000976562, -28.49489974975586
293,135298189,0.8130433,-0.15393615,0.49401847,0.2668541,-10.060872077941895,4.028240203857422,-11.29072380065918,98.44660949707031,-136.98779296875, -30.108232498168945
294,135314856,0.8177206,-0.15261924,0.486966,0.2662814,-8.354636192321777,5.013382911682129,-13.243692398071289,1.4406627416610718,-59.35103225708008, -14.586135864257812
295,135331523,0.81434226,-0.15940157,0.48735878,0.27188364,-8.478601455688477,2.320236921310425,-12.139558792114258,-59.6760139465332,17.282371520996094, 15.428844451904297
296,135348190,0.8061614,-0.16994335,0.49279544,0.27995852,-8.828788757324219,1.358580470085144,-9.623310089111328,-84.89310455322266,65.43610382080078, 31.091936111450195
297,135364857,0.7958616,-0.18067136,0.5012718,0.28755853,-8.45903491973877,1.398781418800354,-7.063379287719727,-80.97563934326172,89.96426391601562, 35.3805046081543
298,135381524,0.7846294,-0.19144379,0.5108462,0.29452258,-8.981192588806152,-0.15899842977523804,-4.083367347717285,-78.04682922363281,99.74783325195312, 34.86587142944336
299,135398191,0.7733214,-0.20470291,0.5183925,0.30222696,-11.045722961425781,-0.5822855234146118,7.579405784606934,-98.27891540527344,92.91424560546875, 27.554922103881836
300,135414858,0.76272,-0.22142513,0.520989,0.3127317,-15.280540466308594,-3.604384660720825,13.004119873046875,-135.9675750732422,67.46756744384766, 21.603559494018555
301,135431525,0.7511942,-0.23532611,0.52745724,0.31956017,-10.075789451599121,-5.27726936340332,-2.8597826957702637,-101.04656219482422,90.87662506103516, 20.34745979309082
302,135448192,0.7390473,-0.2426899,0.540019,0.32138956,-11.9124755859375,2.827329397201538,-4.4034223556518555,-36.7115592956543,118.15250396728516, 29.581953048706055
303,135464859,0.724903,-0.25292355,0.5500624,0.3286,-9.97177791595459,1.483549952507019,-0.23829548060894012,-80.2158432006836,109.90084075927734, 46.35368728637695
304,135481526,0.71426827,-0.2579473,0.5596795,0.33172888,-8.558178901672363,-2.3465330600738525,-2.011986255645752,-33.700279235839844,89.76043701171875, 36.957061767578125
305,135498193,0.7053373,-0.2599951,0.5703849,0.33100465,-12.758450508117676,0.46483469009399414,-1.8150683641433716,1.2521852254867554,88.49305725097656, 27.599130630493164
306,135514860,0.69658476,-0.26256588,0.580183,0.3304812,-12.125272750854492,0.7771614789962769,-1.3692305088043213,-3.830124616622925,84.10079956054688, 24.488189697265625
307,135531527,0.68770486,-0.26622266,0.58862257,0.33122817,-10.341042518615723,0.21282920241355896,-1.4897053241729736,-17.430755615234375,78.1867904663086, 24.05726432800293
308,135548194,0.67859447,-0.27057773,0.5958926,0.33348212,-11.046642303466797,0.19897359609603882,-0.9978020191192627,-29.930326461791992,72.3511734008789, 26.728336334228516
309,135564861,0.67031085,-0.2735651,0.6028338,0.3353181,-10.321690559387207,-1.4059064388275146,-0.9377050399780273,-21.06760597229004,65.02263641357422, 27.862869262695312
310,135581528,0.6636738,-0.27373877,0.6101894,0.33507353,-10.35952091217041,-0.452831506729126,-1.0020177364349365,4.566943168640137,57.4983024597168, 26.975671768188477
311,135598195,0.65787494,-0.27306184,0.61700374,0.33458266,-10.475339889526367,0.15247789025306702,-0.5736829042434692,9.79688835144043,49.98347473144531, 26.51091957092285
312,135614862,0.6527548,-0.27192473,0.6232414,0.3339752,-10.43663501739502,0.8577215671539307,-0.5995517373085022,12.30236530303955,43.64156723022461, 25.31875991821289
313,135631529,0.6480896,-0.27097684,0.6286727,0.33365116,-10.131136894226074,0.9348810911178589,-0.6798304319381714,9.220671653747559,37.96603012084961, 23.23394203186035
314,135648196,0.64388776,-0.27014446,0.63354486,0.33324572,-10.028145790100098,0.9132639765739441,-0.5715494155883789,8.62157917022705,33.88138961791992, 20.27232551574707
315,135664863,0.64040345,-0.26936588,0.63752306,0.33300275,-10.06528091430664,0.7455074787139893,-0.2993340790271759,6.947259426116943,26.6214599609375, 17.45870018005371
316,135681530,0.6376545,-0.26849604,0.6407222,0.3328406,-9.958145141601562,1.185285210609436,-0.2885369658470154,6.561944007873535,19.620594024658203, 15.10011100769043
317,135698197,0.63518846,-0.2677596,0.6435593,0.33267543,-9.661882400512695,1.0492653846740723,-0.9382646679878235,5.675405979156494,17.11289405822754, 13.183077812194824
318,135714864,0.6328716,-0.2673797,0.64602846,0.3326109,-9.948153495788574,0.7259127497673035,-0.3116021454334259,3.0972516536712646,15.472556114196777, 11.028810501098633
319,135731531,0.63175505,-0.2667734,0.64707017,0.33319488,-9.624991416931152,-0.31159642338752747,-1.293312430381775,0.13836626708507538,2.239415168762207, 9.499798774719238
320,135748198,0.63020897,-0.26513633,0.6500095,0.33170524,-9.670877456665039,-0.017668336629867554,-0.7611904740333557,17.39333152770996,13.824732780456543, 9.593595504760742
321,135764865,0.62836856,-0.26252055,0.65409535,0.32923594,-9.650832176208496,0.7374550700187683,-0.50460284948349,28.085111618041992,19.685710906982422, 12.536365509033203
322,135781532,0.62608767,-0.25969478,0.6588245,0.326381,-9.442697525024414,1.5039783716201782,-0.6187261939048767,31.385644912719727,24.729812622070312, 14.008792877197266
323,135798199,0.6231882,-0.25774005,0.663522,0.32395425,-9.55270004272461,1.9430691003799438,-0.4524875581264496,24.521909713745117,28.674697875976562, 13.250081062316895
324,135814866,0.6199945,-0.25627422,0.6682682,0.32147926,-9.13398551940918,1.4864451885223389,-0.5622603893280029,22.24113655090332,31.516780853271484, 11.551271438598633
325,135831533,0.61650896,-0.2549193,0.673381,0.3185784,-9.247556686401367,1.7118580341339111,-0.5604795217514038,24.029813766479492,35.5469970703125, 10.526371955871582
326,135848200,0.6128316,-0.25324735,0.6789946,0.31507263,-9.323760986328125,1.2492672204971313,-0.6679636836051941,28.947742462158203,39.0682373046875, 10.734548568725586
327,135864867,0.6088389,-0.2512738,0.6851613,0.3110175,-9.294063568115234,1.370664358139038,-0.8733677864074707,33.446372985839844,43.32305908203125, 11.494563102722168
328,135881534,0.6041244,-0.24980544,0.6916445,0.30701795,-9.477259635925293,1.5494190454483032,-0.9622496366500854,30.512678146362305,49.18160629272461, 11.45431137084961
329,135898201,0.59885585,-0.24851926,0.6985525,0.30271357,-9.64322280883789,1.313725471496582,-0.904909074306488,31.168161392211914,54.63591384887695, 11.23161792755127
330,135914868,0.59306234,-0.24711414,0.7060627,0.2978058,-9.767736434936523,1.1896002292633057,-1.2317214012145996,34.92654800415039,60.5679817199707, 11.454732894897461
331,135931535,0.5864875,-0.24578035,0.7141069,0.2927064,-9.389781951904297,1.3645950555801392,-1.185426950454712,35.34785842895508,67.14913177490234, 12.853150367736816
332,135948202,0.5790359,-0.24496524,0.7223066,0.28806937,-9.51201057434082,1.8485462665557861,-1.5848078727722168,29.830698013305664,72.47557830810547, 14.206586837768555
333,135964869,0.5707446,-0.24446946,0.7309794,0.28311762,-9.677199363708496,1.407310128211975,-2.04282808303833,29.65810203552246,79.8115463256836, 13.825695037841797
334,135981536,0.5617638,-0.2437884,0.7404805,0.27690834,-10.504554748535156,1.305827021598816,-2.130652904510498,37.172813415527344,88.38784790039062, 12.564858436584473
335,135998203,0.5519357,-0.24256174,0.7510169,0.26926872,-11.40821361541748,0.7109910249710083,-1.4607164859771729,47.12547302246094,98.16453552246094, 13.179901123046875
336,136014870,0.54117227,-0.2407967,0.7623753,0.26064247,-12.446845054626465,0.5849829912185669,-1.1955586671829224,54.23622131347656,106.87852478027344, 15.341484069824219
337,136031537,0.5283286,-0.23988985,0.7745387,0.25181854,-14.614212036132812,0.6352590918540955,-0.9797744750976562,50.086891174316406,122.76348876953125, 15.191071510314941
338,136048204,0.51271206,-0.24060139,0.78717124,0.24413088,-16.674604415893555,0.15208974480628967,-0.1755935549736023,34.406944274902344,140.291015625, 16.295406341552734
339,136064871,0.49451032,-0.24203996,0.80041766,0.23708388,-18.52777862548828,-1.1120960712432861,0.3354474604129791,25.139131546020508,156.75320434570312, 19.998668670654297
340,136081538,0.47345576,-0.24470289,0.8138159,0.23165676,-20.831052780151367,-1.646599292755127,1.228223204612732,7.561722278594971,172.42543029785156, 23.710054397583008
341,136098205,0.4514604,-0.24828775,0.8258076,0.229302,-21.444133758544922,-1.4436489343643188,1.9594988822937012,-16.454891204833984,169.5786590576172, 27.72811508178711
342,136114872,0.42723262,-0.2518618,0.83854234,0.22557907,-19.587249755859375,-0.3371058702468872,1.494555950164795,-11.290059089660645,187.05392456054688, 28.368125915527344
343,136131539,0.4030259,-0.25434434,0.85232663,0.21545191,-16.461122512817383,0.7522997260093689,0.6227009892463684,30.515926361083984,199.56063842773438, 17.65201759338379
344,136148206,0.3812447,-0.25569415,0.8647698,0.20358601,-13.287373542785645,5.741505146026611,1.465151071548462,46.1075553894043,183.0931854248047, 13.529129028320312
345,136164873,0.36289316,-0.25828478,0.87273794,0.19981745,-11.66435718536377,7.407968521118164,3.14548921585083,-5.47617769241333,138.54124450683594, 14.660760879516602
346,136181540,0.3497652,-0.26044476,0.8773496,0.20022851,-7.029695987701416,4.543218612670898,2.1377782821655273,-24.754146575927734,90.8797378540039, 14.482067108154297
347,136198207,0.34335208,-0.26238623,0.8788783,0.20208146,-6.652315139770508,1.8900707960128784,6.576996803283691,-25.1097354888916,40.104469299316406, 4.475732803344727
348,136214874,0.3468577,-0.2639375,0.87670267,0.20351978,-6.313229084014893,-1.188989520072937,8.88453483581543,-8.913408279418945,-28.313922882080078, -14.613997459411621
349,136231541,0.3582755,-0.26566887,0.87085307,0.2065792,-4.139334678649902,-0.5543472766876221,5.951264381408691,-9.893396377563477,-87.39457702636719, -29.55641746520996
350,136248208,0.37546766,-0.2688229,0.8615967,0.21073852,-6.020383358001709,-1.4788641929626465,3.415287494659424,-14.277084350585938,-130.33236694335938, -49.787071228027344
351,136264875,0.39808837,-0.27160427,0.8492661,0.2156505,-7.160199165344238,0.727156937122345,3.039543628692627,-12.206975936889648,-172.3542938232422, -59.1747932434082
352,136281542,0.423957,-0.27547112,0.83284837,0.22525728,-7.551758766174316,1.4588147401809692,1.2769864797592163,-42.590187072753906,-209.665283203125, -65.11620330810547
353,136298209,0.45220613,-0.28017747,0.81286085,0.23720974,-8.455528259277344,0.9932172894477844,-0.44505774974823,-59.49164581298828,-236.8627166748047, -73.54032135009766
354,136314876,0.48187828,-0.28477314,0.79035884,0.24906151,-9.830857276916504,1.0385833978652954,-1.4961576461791992,-59.96158981323242,-252.64291381835938, -80.40672302246094
355,136331543,0.51304543,-0.28789762,0.76616293,0.2586404,-11.02696704864502,0.5418958067893982,-2.95023250579834,-42.70409393310547,-264.4756774902344, -85.81803894042969
356,136348210,0.5450498,-0.28821048,0.74171007,0.26405075,-11.90281867980957,0.13762369751930237,-4.639560699462891,-9.631117820739746,-266.57025146484375, -87.71099853515625
357,136364877,0.5773763,-0.28579077,0.7169925,0.26623923,-12.794140815734863,0.837384045124054,-5.305396556854248,17.19322967529297,-267.82684326171875, -86.96338653564453
358,136381544,0.60884106,-0.28157917,0.6914182,0.26826823,-13.439125061035156,1.4740798473358154,-5.273279666900635,21.82402801513672,-269.9979553222656, -78.87813568115234
359,136398211,0.639029,-0.27542722,0.66517335,0.27079007,-13.84289836883545,1.8634042739868164,-5.02869176864624,23.889713287353516,-271.3221740722656, -66.5482406616211
360,136414878,0.66745305,-0.26696315,0.6388493,0.2740617,-14.15391731262207,2.4764442443847656,-4.895998001098633,27.12675666809082,-269.3804626464844, -49.561500549316406
361,136431545,0.69365746,-0.25755024,0.61172044,0.2798331,-14.097859382629395,2.8667166233062744,-5.065597057342529,14.909167289733887,-269.7578430175781, -31.235776901245117
362,136448212,0.7175212,-0.24744397,0.5842357,0.28741005,-14.084555625915527,2.3567824363708496,-5.394515037536621,5.775261878967285,-266.2020568847656, -15.854521751403809
363,136464879,0.73975945,-0.2361307,0.5568076,0.29489765,-14.23552417755127,0.11765671521425247,-5.866076946258545,9.432539939880371,-261.69317626953125, -8.155879020690918
364,136481546,0.7616235,-0.22088186,0.53157246,0.29761168,-13.022740364074707,-2.058206796646118,-7.542418479919434,51.56698989868164,-249.40394592285156, -13.050664901733398
365,136498213,0.78281444,-0.19981663,0.51155317,0.29255685,-11.743298530578613,-3.4462647438049316,-9.343168258666992,120.08112335205078,-219.81045532226562, -23.162490844726562
366,136514880,0.8018455,-0.17447467,0.4982103,0.279982,-11.16784954071045,-1.3792245388031006,-10.984874725341797,180.02880859375,-174.63302612304688, -35.05229568481445
367,136531547,0.81512505,-0.15109843,0.49204496,0.26576933,-9.676488876342773,3.3123621940612793,-13.795802116394043,181.7068634033203,-109.68767547607422, -31.108776092529297
368,136548214,0.81919336,-0.13571616,0.4941431,0.25754073,-7.354550838470459,5.72010612487793,-14.725603103637695,122.15275573730469,-23.91326904296875, 0.8027521967887878
369,136564881,0.8148865,-0.13490164,0.50092643,0.25852606,-7.182245254516602,5.349791049957275,-12.967970848083496,9.248703956604004,48.02924346923828, 22.3837833404541
370,136581548,0.8052772,-0.14810622,0.5081053,0.26725164,-7.525237560272217,2.3172225952148438,-10.379786491394043,-100.1990966796875,86.16949462890625, 27.225717544555664
371,136598215,0.79250395,-0.17010961,0.51432145,0.28013328,-12.101510047912598,0.9047446846961975,1.6048461198806763,-168.4571075439453,103.77531433105469, 24.30286979675293
372,136614882,0.7790875,-0.19092557,0.5203943,0.29285023,-18.085012435913086,-1.402891993522644,8.896275520324707,-162.43443298339844,103.17635345458984, 28.64764976501465
373,136631549,0.7656949,-0.20443363,0.5315432,0.29896718,-10.181857109069824,-4.35006046295166,-6.399947166442871,-89.40375518798828,124.25892639160156, 26.04648208618164
374,136648216,0.75169086,-0.21427405,0.5460963,0.301376,-13.923134803771973,0.7814577221870422,-3.7632436752319336,-50.39863586425781,142.04843139648438, 25.989036560058594
375,136664883,0.7389717,-0.21992916,0.5598067,0.3035944,-8.198479652404785,-3.3617308139801025,-1.1472890377044678,-27.912939071655273,124.44137573242188, 36.80662536621094
376,136681550,0.72993875,-0.2181955,0.57396233,0.3002477,-9.701824188232422,0.7489691376686096,-3.8031258583068848,37.551795959472656,105.50577545166016, 29.97226333618164
377,136698217,0.7201207,-0.22105534,0.58502656,0.30050927,-14.257689476013184,1.8119332790374756,-2.5122268199920654,-7.307054042816162,97.13813018798828, 26.935392379760742
378,136714884,0.7108098,-0.22354512,0.5952316,0.30079502,-11.206954956054688,-0.21085834503173828,-1.449622392654419,-6.58091402053833,90.02703857421875, 26.179882049560547
379,136731551,0.7014082,-0.22769767,0.6034628,0.30333817,-10.646260261535645,1.6080665588378906,-0.5072439908981323,-28.173688888549805,80.71842956542969, 27.562496185302734
380,136748218,0.6924864,-0.23282611,0.6096727,0.30749783,-11.029006004333496,-1.7885738611221313,-0.7767336368560791,-43.0545654296875,68.49054718017578, 27.130477905273438
381,136764885,0.68590826,-0.23251285,0.6174839,0.3068917,-10.529845237731934,-1.539663314819336,-1.3422574996948242,9.966607093811035,62.41864013671875, 24.871440887451172
382,136781552,0.68070126,-0.22998117,0.6251701,0.30482432,-10.37792682647705,0.722917377948761,-0.42688223719596863,28.558574676513672,53.66401672363281, 24.321260452270508
383,136798219,0.67594564,-0.22862533,0.6313647,0.30365732,-10.509049415588379,2.27156925201416,-0.5439448356628418,16.77063751220703,45.79125213623047, 20.179927825927734
384,136814886,0.67126054,-0.22868358,0.6364458,0.30339915,-10.15918254852295,1.3892587423324585,-0.5191320180892944,4.036980628967285,41.84154510498047, 16.35941505432129
385,136831553,0.66693777,-0.22894967,0.64118254,0.302758,-10.038623809814453,1.1610320806503296,-0.2550524175167084,4.60327672958374,39.70902633666992, 12.382427215576172
386,136848220,0.66305214,-0.22913477,0.6457007,0.30154723,-9.935880661010742,1.000765323638916,-0.42933452129364014,7.71994686126709,37.516475677490234, 8.87169075012207
387,136864887,0.6595326,-0.22911988,0.65019614,0.2996114,-9.75698184967041,1.1791021823883057,-0.6727778315544128,12.37960147857666,36.52405548095703, 5.66045618057251
388,136881554,0.6562744,-0.22908162,0.6545474,0.29731232,-9.649556159973145,1.1683701276779175,-0.4348299205303192,14.225666999816895,35.232147216796875, 3.3521881103515625
389,136898221,0.6533373,-0.22884963,0.6587083,0.29475898,-9.606717109680176,1.0216279029846191,-0.5507174134254456,16.361528396606445,32.94014358520508, 2.1207737922668457
390,136914888,0.6503255,-0.22893593,0.6627188,0.2923529,-9.539019584655762,1.2615633010864258,-0.6892591714859009,13.844758987426758,33.02375411987305, 1.2568786144256592
391,136931555,0.64689666,-0.2297974,0.6667069,0.29020837,-9.353598594665527,1.3847240209579468,-0.6090553402900696,8.48609733581543,35.97563171386719, -0.3041394054889679
392,136948222,0.6434595,-0.23100044,0.6704795,0.2881964,-9.375811576843262,1.1565266847610474,-0.6907238960266113,5.917847633361816,35.533714294433594, -1.6069608926773071
393,136964889,0.6399523,-0.23217352,0.6744357,0.28582197,-9.38842487335205,0.7197909355163574,-0.4920329451560974,7.976149082183838,37.1916389465332, -2.642834424972534
394,136981556,0.6363476,-0.2333552,0.678392,0.2835361,-9.429335594177246,0.9135209321975708,-0.4180716872215271,7.373863697052002,37.52775955200195, -2.0999064445495605
395,136998223,0.6323597,-0.23482384,0.6824156,0.2815834,-9.511733055114746,0.3637928366661072,-0.8549224138259888,4.082962512969971,39.64384841918945, -1.1250954866409302
396,137014890,0.6279654,-0.2359789,0.6870631,0.27913976,-9.615893363952637,0.020596444606781006,-0.8302205801010132,8.302755355834961,44.45552062988281, 0.009444749914109707
397,137031557,0.6231545,-0.23676613,0.6922881,0.27633026,-9.625160217285156,0.08983860909938812,-0.7614524960517883,12.053848266601562,48.815216064453125, 1.9103467464447021
398,137048224,0.61775845,-0.23742282,0.6981398,0.2731424,-9.56178092956543,0.6614254713058472,-0.5386956930160522,14.653836250305176,54.667545318603516, 3.0491044521331787
399,137064891,0.6116831,-0.23830181,0.7044917,0.2697198,-9.423824310302734,1.1677178144454956,-0.6956016421318054,14.670060157775879,60.87045669555664, 3.0792460441589355
400,137081558,0.6050472,-0.23923466,0.71143275,0.2656108,-9.530614852905273,1.0125099420547485,-1.175171136856079,17.94728660583496,67.30597686767578, 1.9360651969909668
401,137098225,0.59758747,-0.24039218,0.7190006,0.26103655,-9.636059761047363,0.6068447828292847,-1.6338011026382446,19.0819091796875,75.13667297363281, 1.4373703002929688
402,137114892,0.5893927,-0.24154754,0.727065,0.2562199,-9.441619873046875,0.5952447652816772,-2.190739870071411,19.967660903930664,81.22228240966797, 2.595379590988159
403,137131559,0.58040756,-0.2428961,0.7354498,0.25148252,-9.823089599609375,1.0453472137451172,-2.413784980773926,18.042076110839844,86.69400787353516, 3.8775177001953125
404,137148226,0.57058686,-0.24419056,0.74443215,0.24621859,-10.489314079284668,1.188619613647461,-2.004434585571289,20.56231117248535,94.1027603149414, 4.492403507232666
405,137164893,0.5600089,-0.2446107,0.75439745,0.23966944,-11.651183128356934,1.1303977966308594,-1.495427131652832,30.96853256225586,102.53267669677734, 6.857867240905762
406,137181560,0.5481429,-0.24441232,0.76564395,0.23150112,-13.766067504882812,0.9679126143455505,-1.3357124328613281,41.69815444946289,115.87673950195312, 8.110395431518555
407,137198227,0.53345674,-0.24511485,0.7782983,0.22270072,-16.524160385131836,1.4109283685684204,-0.5714511871337891,39.14158630371094,138.55935668945312, 7.845853805541992
408,137214894,0.5159376,-0.24664797,0.7918301,0.21442795,-18.475601196289062,-0.043122198432683945,0.16679704189300537,29.8474178314209,157.36717224121094, 11.155171394348145
409,137231561,0.49501127,-0.24841271,0.80656505,0.20666118,-21.038230895996094,0.13920767605304718,1.3112324476242065,22.27349090576172,179.72824096679688, 18.76508903503418
410,137248228,0.47246063,-0.25176492,0.8196901,0.20372672,-23.151216506958008,1.0338228940963745,2.7091293334960938,-14.984265327453613,177.3278350830078, 25.97884178161621
411,137264895,0.44935265,-0.25620967,0.83080393,0.20543829,-21.818389892578125,-0.21437618136405945,4.672092437744141,-48.484031677246094,167.50531005859375, 32.22611999511719
412,137281562,0.42620236,-0.25879422,0.8438881,0.19806954,-18.347810745239258,-1.2102218866348267,4.961454391479492,11.856791496276855,187.29788208007812, 18.34712028503418
413,137298229,0.40762183,-0.25905016,0.85563296,0.18609338,-13.36343765258789,2.6241848468780518,2.804175615310669,51.732093811035156,161.96063232421875, 9.77122688293457
414,137314896,0.391167,-0.2583209,0.8655987,0.17606482,-9.860896110534668,6.725710391998291,1.3581205606460571,44.556922912597656,139.7864990234375, 15.13058853149414
415,137331563,0.3814234,-0.25692713,0.8717105,0.16919503,-8.324837684631348,2.8634328842163086,1.3176900148391724,34.8292350769043,83.08821868896484, 12.588796615600586
416,137348230,0.38076112,-0.25415212,0.87413174,0.16224255,-8.062285423278809,1.2450742721557617,8.065132141113281,50.709659576416016,17.545089721679688, 3.559042453765869
417,137364897,0.38712227,-0.25553393,0.87044466,0.16482154,-5.202485084533691,2.396731376647949,7.694550037384033,-11.984813690185547,-52.621360778808594, -14.977203369140625
418,137381564,0.39809433,-0.25932077,0.8624965,0.1742835,-5.476612091064453,2.9871208667755127,4.722281455993652,-56.29396438598633,-100.89089965820312, -23.76432228088379
419,137398231,0.4129152,-0.26396915,0.8506436,0.19033687,-6.82045841217041,2.1096701622009277,4.446550369262695,-95.54936218261719,-145.1087188720703, -22.4090518951416
420,137414898,0.4329916,-0.26836592,0.8352055,0.20719838,-6.825328826904297,1.161327600479126,2.0389018058776855,-94.71644592285156,-187.80743408203125, -32.02941131591797
421,137431565,0.45696217,-0.2726771,0.81681734,0.22280785,-8.212422370910645,-1.120155692100525,-0.15716002881526947,-84.27880096435547,-216.76451110839844, -46.24821090698242
422,137448232,0.48438767,-0.2758034,0.79633427,0.23484924,-9.189859390258789,-0.8507576584815979,-1.5107711553573608,-57.26552200317383,-237.8797607421875, -60.02169418334961
423,137464899,0.5132912,-0.27759406,0.77452236,0.24411044,-9.907470703125,-0.9410614371299744,-3.306976795196533,-36.94029998779297,-247.2903289794922, -66.86735534667969
424,137481566,0.5436189,-0.27617106,0.7527536,0.24813528,-10.8668794631958,-0.38241711258888245,-4.446484565734863,5.075257778167725,-250.13671875, -70.53836059570312
425,137498233,0.57458717,-0.27174842,0.730803,0.24885851,-11.507210731506348,1.2037458419799805,-4.722887992858887,34.26906204223633,-253.0028839111328, -68.79800415039062
426,137514900,0.60511696,-0.2646171,0.7083454,0.2491167,-11.828351974487305,2.4174392223358154,-4.780107498168945,45.62577819824219,-256.59564208984375, -57.23204040527344
427,137531567,0.63430864,-0.25663382,0.6842959,0.25205544,-12.397753715515137,2.6443557739257812,-5.065422534942627,30.93864631652832,-263.0699462890625, -42.5534782409668
428,137548234,0.66161114,-0.24869439,0.6584278,0.25864205,-12.588552474975586,2.7157764434814453,-5.587346076965332,7.088130950927734,-268.5111389160156, -26.802043914794922
429,137564901,0.68621993,-0.24180044,0.63088655,0.26947752,-12.886960983276367,3.2752649784088135,-5.577157020568848,-24.50672149658203,-269.3773498535156, -10.290563583374023
430,137581568,0.70795155,-0.23663062,0.60186905,0.28384042,-13.838459014892578,3.060842514038086,-5.463192939758301,-55.46432876586914,-266.5783386230469, 1.7343242168426514
431,137598235,0.72763336,-0.23179543,0.5726699,0.29811245,-13.822320938110352,2.279691219329834,-5.97758150100708,-60.428138732910156,-258.2236633300781, 3.5999059677124023
432,137614902,0.7458413,-0.22571005,0.54510856,0.30924678,-13.110559463500977,0.3611070215702057,-6.566959857940674,-40.818851470947266,-241.8336639404297, -1.553201675415039
433,137631569,0.7638938,-0.2158564,0.52087075,0.31395414,-12.3110990524292,-1.513715147972107,-7.165269374847412,9.417217254638672,-222.29576110839844, -14.89961051940918
434,137648236,0.78191584,-0.19873337,0.50285155,0.31024823,-10.842262268066406,-2.296036720275879,-7.368168830871582,91.10325622558594,-192.7912139892578, -23.743982315063477
435,137664903,0.7984398,-0.17559414,0.49070472,0.30144757,-10.312264442443848,1.1487071514129639,-7.639321327209473,151.54640197753906,-161.9764862060547, -19.092391967773438
436,137681570,0.81012523,-0.15246576,0.4839864,0.2936149,-9.868664741516113,3.8623533248901367,-10.54272174835205,153.60707092285156,-117.0513687133789, 2.780503034591675
437,137698237,0.81443,-0.13468012,0.48483136,0.28897205,-7.839161396026611,3.815114736557007,-12.82773208618164,120.73543548583984,-42.98953628540039, 25.593502044677734
438,137714904,0.8114474,-0.13048951,0.49036503,0.28994644,-7.474232196807861,2.7404441833496094,-12.598695755004883,28.4196834564209,29.28605079650879, 30.54547691345215
439,137731571,0.803751,-0.13682109,0.49827513,0.2949365,-7.8338470458984375,-0.11610933393239975,-10.999824523925781,-43.33904266357422,75.7354507446289, 28.99709701538086
440,137748238,0.79326546,-0.14893828,0.5073524,0.30189753,-8.769673347473145,-0.7183547019958496,-6.879334926605225,-82.34014129638672,101.55574035644531, 26.821632385253906
441,137764905,0.78085226,-0.1716552,0.51166517,0.31464967,-15.969012260437012,1.4592366218566895,12.251770973205566,-172.2449493408203,98.3284683227539, 20.54619026184082
442,137781572,0.7665062,-0.19682609,0.514822,0.32967746,-16.885520935058594,-1.70505952835083,4.832190036773682,-198.20950317382812,101.59339904785156, 26.917634963989258
443,137798239,0.7510196,-0.21422572,0.52607685,0.33663234,-10.842348098754883,-7.462705135345459,-9.393064498901367,-111.84276580810547,141.61856079101562, 25.414724349975586
444,137814906,0.7369797,-0.22585317,0.5386817,0.34010962,-11.066222190856934,0.14353665709495544,-1.261116862297058,-64.19967651367188,135.04959106445312, 27.008623123168945
445,137831573,0.7259959,-0.22846851,0.55195343,0.34070647,-7.128381252288818,-0.669092059135437,-2.6453120708465576,-1.5641024112701416,110.48868560791016, 39.674476623535156
446,137848240,0.7170396,-0.22987272,0.5638151,0.33930278,-12.741968154907227,2.691002368927002,-3.1513075828552246,11.950691223144531,96.04721069335938, 27.324199676513672
447,137864907,0.7080115,-0.23408352,0.5732281,0.3396104,-13.305426597595215,0.02952241525053978,-1.8907933235168457,-14.359685897827148,88.07024383544922, 21.16575050354004
448,137881574,0.6994216,-0.23699008,0.58272505,0.3392316,-10.597793579101562,0.566885769367218,-0.6145871877670288,-4.406067371368408,84.79442596435547, 22.07720184326172
449,137898241,0.6904309,-0.24185917,0.5898409,0.3419035,-10.99474048614502,0.652823269367218,-0.8270567655563354,-32.277217864990234,74.55455780029297, 25.935739517211914
450,137914908,0.682173,-0.24517821,0.596827,0.34398603,-10.921077728271484,-1.0690184831619263,-0.9641445875167847,-21.6215877532959,68.29872131347656, 27.48015785217285
451,137931575,0.6758994,-0.24460024,0.6049569,0.34257695,-10.242657661437988,-0.2053748071193695,-1.1193668842315674,17.03139305114746,62.188209533691406, 24.340240478515625
452,137948242,0.6707081,-0.2432923,0.61266744,0.33999914,-10.455240249633789,2.2075071334838867,-0.7845602035522461,26.113292694091797,55.98147201538086, 18.69963836669922
453,137964909,0.6656737,-0.24367078,0.6188151,0.33848545,-10.27637767791748,2.1130177974700928,-0.33233270049095154,10.46141242980957,50.27543258666992, 13.515654563903809
454,137981576,0.6608516,-0.24490093,0.6240241,0.33748186,-9.999442100524902,1.9080266952514648,-0.060135144740343094,2.5635247230529785,46.20574188232422, 10.152729988098145
455,137998243,0.6561433,-0.24701683,0.6283086,0.33717662,-9.775802612304688,1.5425195693969727,-0.24711278080940247,-6.410696506500244,42.402442932128906, 7.697966575622559
456,138014910,0.6517383,-0.24907371,0.6323751,0.33660382,-9.694592475891113,0.77162766456604,-0.46895918250083923,-4.977909088134766,40.43179702758789, 5.667912483215332
457,138031577,0.6478113,-0.2504845,0.63667303,0.33503187,-9.758079528808594,0.7582540512084961,-0.18719756603240967,3.6175129413604736,39.60963439941406, 3.290513753890991
458,138048244,0.644227,-0.25138634,0.64107764,0.33286202,-9.668301582336426,0.8661325573921204,-0.20927496254444122,9.337924003601074,38.44813537597656, 2.2515034675598145
459,138064911,0.6406279,-0.25232372,0.645381,0.33077648,-9.689956665039062,0.6590474247932434,-0.49139806628227234,8.555257797241211,38.00679397583008, 2.329353094100952
460,138081578,0.63692456,-0.2530914,0.6498057,0.32867265,-9.586405754089355,0.48107174038887024,-0.6035318970680237,9.478960990905762,38.65411376953125, 3.4527714252471924
461,138098245,0.63325244,-0.25346348,0.65435284,0.32645234,-9.594860076904297,0.842426598072052,-0.5092225670814514,12.064924240112305,38.36272048950195, 4.856688499450684
462,138114912,0.62966883,-0.25362512,0.65888804,0.32412845,-9.62283992767334,0.9954164624214172,-0.7985074520111084,13.57436466217041,37.626258850097656, 5.135355472564697
463,138131579,0.6260852,-0.25356168,0.663622,0.32145107,-9.524033546447754,0.6588360667228699,-1.0205655097961426,16.59483528137207,38.60478210449219, 4.973959922790527
464,138148246,0.6225732,-0.25294453,0.6688014,0.31800592,-9.584752082824707,0.1786433458328247,-1.3113131523132324,23.590930938720703,40.313785552978516, 4.818061351776123
465,138164913,0.6188194,-0.25171638,0.67474633,0.31371936,-9.709334373474121,0.4306260645389557,-1.026068091392517,31.326629638671875,44.82977294921875, 5.89469051361084
466,138181580,0.6146233,-0.2504495,0.6810056,0.3094282,-9.641655921936035,1.3039137125015259,-0.7310926914215088,31.42682456970215,48.14899444580078, 7.560542106628418
467,138198247,0.609844,-0.2496764,0.6873098,0.3055463,-9.447134971618652,1.4180819988250732,-1.027690052986145,26.518400192260742,51.425052642822266, 8.297558784484863
468,138214914,0.6043145,-0.24925476,0.6942399,0.30117804,-9.313310623168945,1.5619733333587646,-0.7678645849227905,27.37071418762207,59.17832946777344, 7.247267723083496
469,138231581,0.5981276,-0.24956308,0.70120245,0.29711622,-9.601433753967285,1.9962260723114014,-0.8502823710441589,21.82077407836914,63.45133972167969, 6.451512813568115
470,138248248,0.5913453,-0.25042325,0.7082563,0.2932116,-9.637274742126465,1.7572036981582642,-1.4303231239318848,17.961456298828125,67.57100677490234, 5.805545806884766
471,138264915,0.58395684,-0.25160885,0.715369,0.28971702,-9.577902793884277,0.7594608664512634,-2.1107754707336426,13.724069595336914,70.7257080078125, 7.207425594329834
472,138281582,0.5759091,-0.25242227,0.72321224,0.28561693,-9.475319862365723,0.7281851172447205,-2.7420520782470703,18.51197624206543,77.21847534179688, 9.187090873718262
473,138298249,0.567123,-0.25320783,0.7314822,0.2814109,-10.162920951843262,1.3326916694641113,-2.3334646224975586,18.707300186157227,82.7166976928711, 11.099594116210938
474,138314916,0.55791277,-0.25329044,0.74046975,0.2761941,-11.068035125732422,1.3840086460113525,-1.9412449598312378,27.184478759765625,88.06188201904297, 12.76412582397461
475,138331583,0.5479669,-0.25231177,0.75060403,0.26956594,-12.195480346679688,1.102604627609253,-1.5440505743026733,39.34563446044922,96.6685562133789, 16.15024185180664
476,138348250,0.5364552,-0.25060812,0.76224864,0.26151398,-14.117887496948242,0.8761165738105774,-1.3251757621765137,49.511268615722656,111.59524536132812, 20.05537223815918
477,138364917,0.5222448,-0.24954577,0.7753469,0.25263733,-16.79475975036621,0.4815830588340759,-0.5953192710876465,49.443817138671875,133.71102905273438, 21.020248413085938
478,138381584,0.5046778,-0.24981372,0.78947747,0.24417248,-19.071744918823242,-0.5161272883415222,-0.05966329574584961,38.50926971435547,156.9677276611328, 23.02137565612793
479,138398251,0.48376366,-0.25201836,0.8036019,0.23808517,-21.792757034301758,-1.0718802213668823,2.344820022583008,13.133326530456543,174.34617614746094, 26.389333724975586
480,138414918,0.46239293,-0.25583243,0.815089,0.23743145,-23.242324829101562,0.22860127687454224,3.4680190086364746,-27.341188430786133,161.39865112304688, 31.77445411682129
481,138431585,0.44039467,-0.25897765,0.82577527,0.2389132,-20.340147018432617,0.7703675627708435,3.1992828845977783,-39.57466125488281,157.6195526123047, 41.951995849609375
482,138448252,0.41783252,-0.25912377,0.83938855,0.23173043,-15.4070405960083,0.6950307488441467,1.9528372287750244,22.53028106689453,180.27932739257812, 38.90443801879883
483,138464919,0.39813006,-0.2566018,0.85305864,0.21895267,-11.158637046813965,4.5617499351501465,1.0410239696502686,67.68466186523438,169.72142028808594, 33.78435134887695
484,138481586,0.383314,-0.25385672,0.86303335,0.20928866,-9.739581108093262,5.739612579345703,1.9183216094970703,53.115726470947266,125.14920043945312, 29.728572845458984
485,138498253,0.37436557,-0.2511911,0.8694117,0.20218347,-7.474352836608887,2.7849161624908447,5.499721527099609,42.82004165649414,76.54043579101562, 21.26081657409668
486,138514920,0.37582573,-0.2463108,0.8720015,0.1941666,-7.933532238006592,1.2190783023834229,7.513101577758789,66.70703887939453,3.117852210998535, 11.137253761291504
487,138531587,0.38368562,-0.24414623,0.86942595,0.19307387,-4.714355945587158,0.5618699193000793,6.33912467956543,22.142488479614258,-56.63637161254883, -4.540076732635498
488,138548254,0.39710978,-0.24314019,0.86306715,0.1957112,-5.7199931144714355,0.2422272115945816,4.722137928009033,1.122258186340332,-104.5635757446289, -15.360448837280273
489,138564921,0.41508502,-0.24352962,0.85279787,0.20281692,-6.541384696960449,1.7494850158691406,2.7564704418182373,-26.8477725982666,-147.81182861328125, -24.097949981689453
490,138581588,0.43676853,-0.2452482,0.8385927,0.21412587,-7.12374210357666,1.3385493755340576,1.3742294311523438,-54.56208038330078,-185.9585723876953, -31.664216995239258
491,138598255,0.46167693,-0.24811864,0.8206687,0.22758627,-7.845550060272217,0.5216357707977295,-0.1665351688861847,-70.4503173828125,-217.6522979736328, -42.85978317260742
492,138614922,0.48892,-0.25125015,0.8000783,0.24022192,-8.782598495483398,0.05506903678178787,-2.0839202404022217,-66.82528686523438,-237.47564697265625, -55.157772064208984
493,138631589,0.51739895,-0.2537022,0.7778334,0.2508187,-9.651832580566406,-0.966323733329773,-3.2091052532196045,-53.92393112182617,-247.44564819335938, -63.16944122314453
494,138648256,0.54727095,-0.2530505,0.7556354,0.25588343,-10.244662284851074,-1.1452821493148804,-4.279994964599609,-10.789227485656738,-250.44285583496094, -68.56574249267578
495,138664923,0.5779314,-0.2505884,0.73266584,0.25768733,-10.838072776794434,0.45652318000793457,-5.042298316955566,12.975968360900879,-254.97756958007812, -74.15679931640625
496,138681590,0.6084521,-0.24619465,0.70901614,0.2578203,-11.858328819274902,1.166690707206726,-5.046144008636475,27.609140396118164,-257.54962158203125, -72.000732421875
497,138698257,0.6381048,-0.23962376,0.6846098,0.2582894,-12.462568283081055,2.0958282947540283,-4.814755916595459,32.26274490356445,-260.946044921875, -59.73564529418945
498,138714924,0.66624206,-0.23215176,0.6589271,0.26085106,-12.578052520751953,2.511228561401367,-5.293015003204346,21.588886260986328,-264.4975280761719, -45.740745544433594
499,138731591,0.6919638,-0.22523475,0.63198996,0.26654333,-12.951118469238281,3.2795209884643555,-6.015432834625244,-1.257985234260559,-263.3458251953125, -31.601181030273438
500,138748258,0.7143264,-0.22044843,0.6040717,0.27611375,-13.01880931854248,3.484696865081787,-6.463521957397461,-35.26515579223633,-255.57029724121094, -17.79103660583496
501,138764925,0.73365927,-0.21772532,0.5759077,0.28752622,-13.270068168640137,2.988753080368042,-6.586910247802734,-58.12251281738281,-243.12435913085938, -11.953347206115723
502,138781592,0.7507839,-0.21452186,0.549252,0.2977034,-12.230565071105957,0.9141020774841309,-7.052683353424072,-51.15179443359375,-225.93296813964844, -9.673251152038574
503,138798259,0.7672919,-0.20773472,0.5260886,0.30222726,-11.389241218566895,-1.2387168407440186,-6.893285274505615,-5.0770263671875,-204.63490295410156, -18.90888214111328
504,138814926,0.7836741,-0.19415739,0.50870305,0.2989653,-11.057510375976562,-1.9590157270431519,-6.513751983642578,70.7341537475586,-176.75489807128906, -26.896121978759766
505,138831593,0.7988187,-0.17594849,0.49654514,0.29047376,-11.211771011352539,-0.4826306104660034,-6.799432754516602,123.06668853759766,-146.86460876464844, -29.326824188232422
506,138848260,0.81102455,-0.15434179,0.4902221,0.27946588,-10.617565155029297,1.7831518650054932,-8.592133522033691,158.41250610351562,-108.5948486328125, -18.59918212890625
507,138864927,0.8173232,-0.13504766,0.4900651,0.27126056,-8.95118522644043,4.361358642578125,-10.51308536529541,141.62322998046875,-52.90373611450195, 7.1407880783081055
508,138881594,0.81678283,-0.1265577,0.49402845,0.2697889,-7.45891809463501,3.8458805084228516,-10.828662872314453,59.51551818847656,7.108583450317383, 25.15174102783203
509,138898261,0.8112419,-0.12975965,0.50016433,0.27365234,-7.529262065887451,1.0446048974990845,-9.936824798583984,-24.615659713745117,53.259010314941406, 26.551490783691406
510,138914928,0.8023973,-0.14220643,0.5067514,0.28131822,-9.131810188293457,0.44490090012550354,-6.652574062347412,-91.38408660888672,81.0684814453125, 22.58148193359375
511,138931595,0.7904426,-0.16445883,0.51137286,0.29436824,-15.42677116394043,3.2974748611450195,7.713667869567871,-171.11549377441406,94.71363830566406, 22.195608139038086
512,138948262,0.7764757,-0.18745817,0.51655936,0.30840325,-14.639542579650879,-2.7816214561462402,3.408801794052124,-179.779541015625,105.28152465820312, 29.585729598999023
513,138964929,0.7635862,-0.20041521,0.52778083,0.31339815,-11.034462928771973,-6.218897342681885,-5.711419105529785,-79.85224914550781,124.02003479003906, 22.47890853881836
514,138981596,0.75180656,-0.20749047,0.5404433,0.31568426,-10.825855255126953,-0.43617209792137146,-1.3989392518997192,-34.50703048706055,118.56143188476562, 29.22796058654785
515,138998263,0.74316096,-0.20639013,0.55337846,0.31446496,-8.376442909240723,-4.8636345863342285,-3.341960906982422,25.83133316040039,95.55897521972656, 35.076133728027344
516,139014930,0.73724264,-0.19986762,0.5670372,0.3082146,-13.856104850769043,0.10526636987924576,-2.836862564086914,78.1105728149414,84.27143096923828, 25.17235565185547
517,139031597,0.73003155,-0.19779593,0.5779422,0.30645475,-12.638259887695312,3.4299399852752686,-1.1796098947525024,30.41139793395996,78.58150482177734, 29.550493240356445
518,139048264,0.7219666,-0.19928315,0.586542,0.3082533,-9.771452903747559,2.5552568435668945,-0.621379554271698,-7.623433589935303,73.04759216308594, 31.912935256958008
519,139064931,0.7137448,-0.20396802,0.59245676,0.31298828,-10.588621139526367,1.1625550985336304,-0.3831353187561035,-41.25376892089844,63.10132598876953, 30.22513771057129
520,139081598,0.706961,-0.20643847,0.5985171,0.3152267,-11.046903610229492,-1.179689884185791,0.19161416590213776,-17.894304275512695,56.692344665527344, 24.092084884643555
521,139098265,0.70156056,-0.20598991,0.6052433,0.31474224,-9.701919555664062,1.0084565877914429,0.3026510179042816,10.902009010314941,51.77494812011719, 20.827604293823242
522,139114932,0.69692314,-0.20583881,0.611122,0.31378296,-10.12190055847168,2.3758161067962646,0.283711314201355,10.688815116882324,45.83325958251953, 14.445755958557129
523,139131599,0.692351,-0.20707782,0.6160528,0.31344697,-10.219202041625977,2.395052671432495,0.3999781012535095,-0.5451956987380981,43.13803482055664, 10.09753704071045
524,139148266,0.68764716,-0.20961574,0.6202022,0.3139315,-9.970342636108398,1.5636649131774902,0.1699024736881256,-12.075895309448242,41.61164855957031, 7.659241676330566
525,139164933,0.6830297,-0.21258287,0.6238755,0.31473708,-9.877629280090332,0.701644241809845,-0.3155520558357239,-16.37784194946289,39.46116638183594, 6.4657697677612305
526,139181600,0.6788282,-0.21466827,0.6277537,0.31470042,-9.883256912231445,0.43906089663505554,-0.20090875029563904,-7.573230266571045,37.96406173706055, 5.690333843231201
527,139198267,0.6750178,-0.21580559,0.63184553,0.31392884,-9.545615196228027,0.9607056379318237,0.16513925790786743,1.062989592552185,36.309547424316406, 5.82352876663208
528,139214934,0.6713444,-0.21647441,0.6361954,0.31255722,-9.592774391174316,1.1461950540542603,-0.10885807871818542,6.60505485534668,36.7960205078125, 5.160363674163818
529,139231601,0.6675614,-0.21711981,0.64070797,0.31099078,-9.613027572631836,1.0531977415084839,-0.3030703365802765,7.75360107421875,38.27116775512695, 4.839526176452637
530,139248268,0.6635938,-0.21779531,0.6454078,0.30928683,-9.662616729736328,0.9674129486083984,-0.31461721658706665,8.347402572631836,40.21967697143555, 4.750204563140869
531,139264935,0.6595282,-0.2183291,0.65032285,0.30730492,-9.512120246887207,0.9467523694038391,-0.42655444145202637,10.540471076965332,41.760292053222656, 4.642492294311523
532,139281602,0.6553834,-0.21856654,0.6556074,0.30476433,-9.546564102172852,0.9249668717384338,-0.727191686630249,15.045968055725098,44.01129913330078, 4.157351016998291
533,139298269,0.6512037,-0.21856649,0.6610659,0.30191967,-9.629945755004883,1.0033577680587769,-0.6596888303756714,17.801748275756836,44.92095184326172, 4.1950297355651855
534,139314936,0.64694655,-0.21854706,0.66653425,0.29904965,-9.678893089294434,0.9179679751396179,-0.9035794734954834,17.912565231323242,45.32550811767578, 4.346915245056152
535,139331603,0.6424902,-0.21854237,0.67211825,0.29614854,-9.686450958251953,0.6046572327613831,-1.0338187217712402,17.92962074279785,46.84109878540039, 4.727141380310059
536,139348270,0.63772655,-0.21827579,0.67814857,0.2928762,-9.687207221984863,0.5457970499992371,-0.7613506317138672,21.25033187866211,50.26913833618164, 5.599117279052734
537,139364937,0.63276005,-0.21785349,0.6843213,0.28958628,-9.570795059204102,1.1467392444610596,-0.7148775458335876,22.003625869750977,51.56721115112305, 6.87568473815918
538,139381604,0.62744224,-0.21733096,0.69089776,0.28591123,-9.321989059448242,1.0335755348205566,-0.8656514883041382,24.53257179260254,55.36986541748047, 6.976997375488281
539,139398271,0.62167305,-0.21659708,0.6981617,0.2813888,-9.620223045349121,1.0573064088821411,-0.8329124450683594,30.151634216308594,61.346717834472656, 6.2423858642578125
540,139414938,0.61532795,-0.21595073,0.7058671,0.27656764,-9.945493698120117,1.1460851430892944,-1.049915075302124,31.213237762451172,66.63077545166016, 6.319343566894531
541,139431605,0.60807586,-0.21573585,0.7139292,0.27204448,-9.818700790405273,1.2212656736373901,-1.1244778633117676,27.27768325805664,72.93724822998047, 7.74190616607666
542,139448272,0.6002187,-0.21603893,0.72175705,0.268575,-9.701513290405273,1.162785291671753,-1.7696322202682495,18.611173629760742,74.35131072998047, 10.389375686645508
543,139464939,0.5908802,-0.21820568,0.72956705,0.26642078,-9.899333000183105,0.8031553030014038,-2.2857320308685303,23.986827850341797,80.98876190185547, 12.396193504333496
544,139481606,0.58056766,-0.22033837,0.7381727,0.26361826,-10.702872276306152,1.1686993837356567,-1.5034476518630981,28.70783233642578,89.83457946777344, 13.717813491821289
545,139498273,0.56955034,-0.22117828,0.74801224,0.25917456,-11.698746681213379,1.0723387002944946,-1.1530728340148926,34.02680587768555,99.40657806396484, 15.693619728088379
546,139514940,0.5578708,-0.2193988,0.7598434,0.25156224,-13.292383193969727,0.799049973487854,-1.0355242490768433,44.007511138916016,112.80010223388672, 16.95997428894043
547,139531607,0.54421663,-0.21818718,0.77264476,0.24340022,-16.70688819885254,1.291357159614563,0.33822718262672424,37.29017639160156,129.36563110351562, 14.889361381530762
548,139548274,0.52853894,-0.22017092,0.7839905,0.23985745,-19.02371597290039,-0.772169291973114,1.0446630716323853,6.878037929534912,131.8704833984375, 19.57054328918457
549,139564941,0.5099184,-0.22196245,0.7969689,0.23570661,-20.21795082092285,-2.3450419902801514,0.8650457859039307,9.096772193908691,154.34022521972656, 25.745546340942383
550,139581608,0.48896274,-0.22396673,0.8106512,0.23151685,-21.25017547607422,-2.110783338546753,1.8612639904022217,6.138236045837402,170.08360290527344, 29.33673095703125
551,139598275,0.46500912,-0.22590826,0.82565945,0.22587532,-19.421913146972656,-0.20462273061275482,1.164381504058838,11.93716049194336,193.47885131835938, 31.654651641845703
552,139614942,0.44072154,-0.22818714,0.8404525,0.21756816,-16.353759765625,1.0982526540756226,1.7483454942703247,25.13956069946289,199.43133544921875, 21.417818069458008
553,139631609,0.41853338,-0.22924006,0.85372865,0.20839238,-12.067716598510742,6.253258228302002,0.5856213569641113,34.90846252441406,182.30172729492188, 20.356918334960938
554,139648276,0.40023187,-0.23154972,0.8624385,0.20591298,-10.422063827514648,6.1157307624816895,1.5273295640945435,-8.403576850891113,137.63360595703125, 19.4572811126709
555,139664943,0.38742647,-0.23402782,0.8680175,0.2041533,-8.079398155212402,2.4327104091644287,3.824749708175659,-8.787209510803223,95.56723022460938, 7.648259162902832
556,139681610,0.38424978,-0.23465462,0.8701127,0.20048563,-8.074357986450195,1.8648430109024048,7.270106792449951,18.155441284179688,29.345932006835938, -5.508328914642334
557,139698277,0.38791987,-0.23730898,0.8673032,0.20245753,-5.0802226066589355,1.9410227537155151,6.926528453826904,-16.62897491455078,-30.80202293395996, -20.08623504638672
558,139714944,0.39780343,-0.24051146,0.8606876,0.20766458,-4.477395057678223,1.1963553428649902,5.299745082855225,-32.52250671386719,-82.466552734375, -29.587108612060547
559,139731611,0.41297987,-0.24488647,0.85048455,0.21483834,-6.1349287033081055,0.07279768586158752,4.037347316741943,-43.72616195678711,-125.14325714111328, -44.636653900146484
560,139748278,0.4336882,-0.24894471,0.83702505,0.22210628,-6.867595195770264,0.8016378879547119,1.7864457368850708,-38.86871337890625,-167.3333740234375, -56.163978576660156
561,139764945,0.4580615,-0.25289682,0.8205044,0.23020962,-8.059362411499023,1.6526248455047607,0.16463057696819305,-41.75895309448242,-199.13055419921875, -63.89780807495117
562,139781612,0.48468313,-0.25724274,0.80095804,0.23953211,-8.591979026794434,1.5629297494888306,-0.9714179039001465,-50.75601577758789,-222.83436584472656, -71.10453033447266
563,139798279,0.5128983,-0.26112458,0.77925205,0.24802488,-10.11622142791748,0.7395386695861816,-2.2434065341949463,-45.380794525146484,-238.1035919189453, -77.76422119140625
564,139814946,0.5424885,-0.26289338,0.7565292,0.25349143,-10.774124145507812,0.6978670954704285,-3.381957530975342,-20.980152130126953,-247.23146057128906, -81.2850570678711
565,139831613,0.57234937,-0.26263556,0.73298573,0.25723833,-11.012147903442383,1.5816056728363037,-4.172641277313232,-5.41672945022583,-252.13742065429688, -79.11429595947266
566,139848280,0.601926,-0.26052338,0.70845306,0.26059207,-11.915177345275879,2.440438747406006,-4.69542121887207,1.5926593542099,-257.1921691894531, -72.61064147949219
567,139864947,0.6301357,-0.25704965,0.6829608,0.26536816,-12.502741813659668,2.2842471599578857,-4.481668949127197,-3.8753116130828857,-259.5238952636719, -59.377376556396484
568,139881614,0.6573679,-0.25172424,0.65653914,0.27103508,-12.67528247833252,2.374021530151367,-4.887572765350342,-3.4632017612457275,-263.9507751464844, -46.69730758666992
569,139898281,0.68294466,-0.2455984,0.629009,0.27859762,-12.85124683380127,2.560539484024048,-5.366398334503174,-13.344630241394043,-266.3081359863281, -33.36515808105469
570,139914948,0.7065613,-0.23874255,0.6009304,0.28750086,-12.814657211303711,1.9005317687988281,-5.546080589294434,-20.082292556762695,-264.1223449707031, -21.10117530822754
571,139931615,0.7286547,-0.23040707,0.5731359,0.29578927,-12.89393424987793,1.5170354843139648,-6.026150703430176,-12.304768562316895,-258.4231872558594, -14.508774757385254
572,139948282,0.74962586,-0.21931921,0.54685116,0.3015213,-12.649035453796387,0.07276121526956558,-6.792809963226318,12.849369049072266,-248.0514678955078, -11.806865692138672
573,139964949,0.7701237,-0.20345108,0.52439594,0.3008773,-12.271245002746582,-2.1031150817871094,-7.323103427886963,68.67882537841797,-226.90586853027344, -19.938560485839844
574,139981616,0.7899195,-0.181909,0.50697404,0.2931125,-11.27530574798584,-2.12141752243042,-7.797670364379883,133.8375701904297,-199.58551025390625, -28.675186157226562
575,139998283,0.8075276,-0.15658948,0.49467567,0.280493,-11.491264343261719,-0.20133930444717407,-9.236467361450195,178.87094116210938,-165.76048278808594, -31.03298568725586
576,140014950,0.81995845,-0.13075565,0.48885304,0.26757234,-10.082601547241211,3.775221586227417,-11.335597038269043,189.65565490722656,-112.95387268066406, -13.976519584655762
577,140031617,0.82384264,-0.116697244,0.48878756,0.2622078,-7.767788410186768,5.38823938369751,-13.150872230529785,100.72724151611328,-36.99742889404297, 9.94297981262207
578,140048284,0.8203303,-0.11747796,0.49327356,0.26446047,-7.6962480545043945,1.539771318435669,-13.226920127868652,-6.691918849945068,34.166748046875, 20.183746337890625
579,140064951,0.81230336,-0.1262851,0.50186926,0.26896787,-8.783098220825195,-0.27002018690109253,-11.084085464477539,-55.80990219116211,85.31896209716797, 17.200361251831055
580,140081618,0.80173814,-0.1388856,0.5124078,0.2745287,-9.668506622314453,-1.5817272663116455,-4.963490962982178,-79.26200866699219,110.93151092529297, 16.37098503112793
581,140098285,0.7915485,-0.15229346,0.5206684,0.28135952,-15.928413391113281,0.205685093998909,14.324562072753906,-92.13371276855469,97.30438995361328, 17.63906478881836
582,140114952,0.7832252,-0.16470669,0.52479404,0.289866,-13.54413890838623,-2.808575391769409,7.8466596603393555,-98.75486755371094,64.50735473632812, 22.360212326049805
583,140131619,0.7735853,-0.17250317,0.5346066,0.29326653,-9.701711654663086,-2.6963143348693848,-7.545437812805176,-45.615997314453125,96.49171447753906, 20.59625244140625
584,140148286,0.7623384,-0.17995377,0.5470202,0.29534173,-12.658041000366211,1.0047982931137085,-3.704099416732788,-35.57424545288086,117.03327178955078, 21.15850067138672
585,140164953,0.75230694,-0.18165916,0.55969757,0.29626703,-8.916813850402832,-1.080823540687561,0.7831287384033203,0.8906101584434509,103.54785919189453, 34.58814239501953
586,140181620,0.74432474,-0.17993559,0.5712738,0.29538336,-9.25035285949707,2.8395464420318604,-1.9385278224945068,25.898170471191406,85.23851776123047, 32.888648986816406
587,140198287,0.7361925,-0.18162733,0.58095616,0.2958432,-13.356799125671387,0.16648785769939423,-2.3690929412841797,-0.9037160277366638,81.38590240478516, 24.293249130249023
588,140214954,0.72850317,-0.18134046,0.5911187,0.29492134,-11.448548316955566,1.8848134279251099,-1.1410335302352905,16.148880004882812,79.7140884399414, 24.907569885253906
589,140231621,0.7203364,-0.18442746,0.5990169,0.29712296,-9.976815223693848,0.932692289352417,-0.5919706225395203,-18.64296531677246,73.2422103881836, 24.97417640686035
590,140248288,0.71292615,-0.18640624,0.6065496,0.2984756,-10.640924453735352,-0.11543174088001251,0.08219996094703674,-9.453293800354004,67.12091827392578, 23.31768035888672
591,140264955,0.7064119,-0.18619952,0.6142664,0.2983117,-10.155976295471191,-0.6825292706489563,-0.5125212073326111,9.105886459350586,61.74179458618164, 23.40083885192871
592,140281622,0.7007277,-0.18413377,0.6222485,0.29645145,-10.463172912597656,0.9283723831176758,-0.3825455605983734,26.90099334716797,57.8801155090332, 21.665855407714844
593,140298289,0.6954411,-0.18293127,0.62907255,0.29524013,-10.321065902709961,1.4852145910263062,-0.2211567610502243,18.103965759277344,51.53452682495117, 18.82657241821289
594,140314956,0.690638,-0.18194032,0.6352836,0.29382467,-10.276339530944824,1.5626949071884155,-0.28267091512680054,17.333492279052734,47.1970100402832, 15.181925773620605
595,140331623,0.68631977,-0.18100421,0.6409734,0.29215926,-10.056747436523438,1.400729775428772,-0.8202711343765259,17.71399688720703,43.027427673339844, 12.122366905212402
596,140348290,0.6822275,-0.1804502,0.6462086,0.29054958,-10.044779777526855,1.4181740283966064,-0.8345215320587158,15.028568267822266,40.58111572265625, 9.68251895904541
597,140364957,0.678214,-0.18038912,0.65102,0.28923973,-9.918360710144043,1.1036293506622314,-0.4831292927265167,10.63342571258545,38.85218048095703, 8.214791297912598
598,140381624,0.67433095,-0.18028814,0.6557963,0.2875868,-9.748498916625977,1.1266690492630005,-0.34203383326530457,12.445777893066406,38.45193862915039, 6.49240255355835
599,140398291,0.67064136,-0.17978325,0.6607246,0.28524083,-9.624889373779297,1.3114817142486572,-0.47031649947166443,17.980850219726562,38.34801483154297, 4.908276081085205
600,140414958,0.66705316,-0.17922586,0.66557926,0.28270784,-9.63436222076416,1.4394266605377197,-0.6093370318412781,19.054258346557617,37.677677154541016, 3.996598958969116
601,140431625,0.663418,-0.17882934,0.670294,0.28036353,-9.574594497680664,1.1607375144958496,-0.6675814390182495,17.121931076049805,37.33259582519531, 4.044788360595703
602,140448292,0.6596676,-0.17851518,0.6750045,0.2781028,-9.524375915527344,1.2883563041687012,-0.7425069808959961,16.210224151611328,37.90243148803711, 4.265954971313477
603,140464959,0.65578604,-0.17845103,0.67962104,0.27607316,-9.490459442138672,1.511521339416504,-0.6769393682479858,13.662503242492676,38.280845642089844, 4.290530204772949
604,140481626,0.651921,-0.17832267,0.68423253,0.27391085,-9.462227821350098,1.2604548931121826,-0.9428369998931885,14.58261775970459,38.225685119628906, 3.954028606414795
605,140498293,0.64794433,-0.17811736,0.68901205,0.2714884,-9.504486083984375,1.3199008703231812,-0.9364640712738037,16.329029083251953,39.678524017333984, 3.567340612411499
606,140514960,0.64359945,-0.1784188,0.69382226,0.26936623,-9.29504680633545,1.5131880044937134,-0.9893941879272461,12.255496978759766,42.14004898071289, 3.229789972305298
607,140531627,0.6390015,-0.17897515,0.6986776,0.2673873,-9.461437225341797,1.4125229120254517,-1.2247895002365112,10.2172269821167,43.84637451171875, 3.1698691844940186
608,140548294,0.63402593,-0.17988303,0.70370716,0.2654253,-9.542437553405762,1.3239960670471191,-1.1906349658966064,8.44563102722168,47.05123519897461, 2.4625205993652344
609,140564961,0.62856984,-0.1808961,0.70917606,0.263148,-9.615901947021484,1.147104024887085,-0.9478778839111328,9.7207612991333,51.87517166137695, 1.9989564418792725
610,140581628,0.6225795,-0.1818888,0.7151882,0.26041895,-9.6265287399292,1.2259830236434937,-0.9512604475021362,12.3297758102417,57.35969543457031, 1.789318323135376
611,140598295,0.61607844,-0.18275423,0.7217603,0.25712195,-9.79139518737793,1.3655672073364258,-1.3232312202453613,16.032207489013672,62.75753402709961, 1.5994408130645752
612,140614962,0.6089896,-0.18364342,0.72880983,0.25346455,-9.847954750061035,1.1788493394851685,-1.8415192365646362,17.825908660888672,68.19631958007812, 1.5940150022506714
613,140631629,0.60115,-0.18474375,0.73627394,0.24978049,-9.793294906616211,0.9379125833511353,-2.284900665283203,16.848384857177734,74.09860229492188, 2.258273124694824
614,140648296,0.59266436,-0.18574113,0.7441737,0.24587768,-9.928648948669434,1.1021054983139038,-2.297600746154785,18.306163787841797,79.26968383789062, 3.5410192012786865
615,140664963,0.5838642,-0.18603955,0.7525831,0.24106374,-10.320250511169434,1.2002769708633423,-2.649348020553589,26.27471351623535,82.9397201538086, 4.59001350402832
616,140681630,0.5742609,-0.18593037,0.7616354,0.23572652,-11.143338203430176,1.2092180252075195,-1.952405571937561,30.655118942260742,89.670654296875, 6.755455017089844
617,140698297,0.5635267,-0.18566033,0.771558,0.2294937,-12.539291381835938,0.8983026742935181,-1.9467430114746094,35.945011138916016,99.9285888671875, 7.013799667358398
618,140714964,0.5507074,-0.18640885,0.782454,0.22302495,-14.755725860595703,1.1753675937652588,-1.4362949132919312,32.1224365234375,116.69169616699219, 5.237523078918457
619,140731631,0.53546685,-0.18781647,0.7944264,0.21653679,-16.5970458984375,-0.10950180143117905,-0.9163815975189209,28.28239631652832,134.8686981201172, 6.720423221588135
620,140748298,0.51725084,-0.1900666,0.8073922,0.21082054,-18.962785720825195,-0.8180058002471924,0.7812595367431641,18.601709365844727,155.0942840576172, 10.695898056030273
621,140764965,0.49821296,-0.19449808,0.8183912,0.21021779,-21.5362606048584,-1.383013129234314,2.5501415729522705,-21.47020149230957,149.22982788085938, 15.422686576843262
622,140781632,0.47766623,-0.19953525,0.8289759,0.21170887,-21.130908966064453,-0.04757033288478851,2.942490577697754,-37.94308853149414,154.50453186035156, 20.852392196655273
623,140798299,0.4556154,-0.203433,0.8407339,0.21023168,-18.147371292114258,0.16175498068332672,1.5230059623718262,-17.62911033630371,169.48489379882812, 21.42657470703125
624,140814966,0.433461,-0.20597255,0.8536106,0.20257603,-15.589813232421875,1.1019341945648193,1.1772241592407227,23.823801040649414,180.38714599609375, 11.664923667907715
625,140831633,0.41392055,-0.20683306,0.8652599,0.19291535,-11.933624267578125,5.312170028686523,0.07795724272727966,42.59722900390625,161.99354553222656, 10.179401397705078
626,140848300,0.39805043,-0.20823279,0.8732181,0.18890794,-10.418400764465332,4.778468132019043,0.26242339611053467,7.78679895401001,122.40311431884766, 12.914633750915527
627,140864967,0.38834184,-0.20922542,0.87815845,0.18507965,-8.629895210266113,0.8987594842910767,4.91601037979126,12.766144752502441,76.43770599365234, 3.504729986190796
628,140881634,0.3880483,-0.20835322,0.87946975,0.18039195,-7.288989543914795,0.9102030992507935,8.07848072052002,31.882869720458984,8.875544548034668, -4.7193756103515625
629,140898301,0.39451998,-0.20975861,0.8760721,0.18125744,-4.344940662384033,0.4635056257247925,6.511713981628418,-3.886369228363037,-49.5966796875, -18.797935485839844
630,140914968,0.4069105,-0.21226911,0.86910236,0.18446665,-5.375270843505859,0.16341960430145264,4.608008861541748,-16.89150619506836,-96.85118865966797, -31.6141357421875
631,140931635,0.42452168,-0.21549274,0.85844886,0.19081625,-6.402490615844727,0.9290575385093689,4.001961708068848,-34.686527252197266,-141.95809936523438, -39.071266174316406
632,140948302,0.4468044,-0.21937019,0.84400904,0.19973044,-6.859237194061279,1.2818272113800049,2.3722591400146484,-49.75611877441406,-183.4557342529297, -47.17326736450195
633,140964969,0.47271174,-0.22437921,0.8258915,0.21000464,-7.725453853607178,0.5338920950889587,0.6042340397834778,-60.68454360961914,-216.2353057861328, -60.07785415649414
634,140981636,0.5011726,-0.2297309,0.80477476,0.21997441,-8.980838775634766,0.4662375748157501,-0.5454410314559937,-60.45229721069336,-239.48440551757812, -71.31438446044922
635,140998303,0.5312837,-0.23420954,0.78155005,0.2281757,-9.896503448486328,-0.1488552987575531,-2.153902053833008,-48.23139190673828,-254.37815856933594, -78.39036560058594
636,141014970,0.56282145,-0.23578872,0.7575437,0.23187162,-10.886124610900879,0.29274359345436096,-3.709516763687134,-12.342225074768066,-262.1822509765625, -82.7470474243164
637,141031637,0.5948594,-0.2352672,0.73239106,0.23323019,-11.822052955627441,1.57721745967865,-4.403867244720459,6.945268154144287,-268.794189453125, -83.50505828857422
638,141048304,0.62633115,-0.23306741,0.7060454,0.23428603,-13.050867080688477,2.137815237045288,-4.5324201583862305,12.511321067810059,-273.0489807128906, -77.33052825927734
639,141064971,0.656578,-0.22887357,0.67880857,0.23609765,-13.831944465637207,2.809417963027954,-5.0293121337890625,14.03433895111084,-275.4007263183594, -63.87604522705078
640,141081638,0.6848952,-0.2236886,0.6504323,0.24045968,-13.872693061828613,3.6965763568878174,-5.611632823944092,1.7214542627334595,-277.2177429199219, -46.432804107666016
641,141098305,0.7106909,-0.2182268,0.6211681,0.2478845,-13.885404586791992,3.3851749897003174,-6.068804740905762,-16.030197143554688,-275.3705139160156, -28.01445198059082
642,141114972,0.733967,-0.21252114,0.5915926,0.25718963,-13.846461296081543,2.9723730087280273,-6.513493537902832,-27.18575668334961,-269.4687194824219, -14.000814437866211
643,141131639,0.7549454,-0.20608787,0.5624545,0.26689178,-13.707260131835938,2.4164211750030518,-6.793917655944824,-27.729354858398438,-259.9026184082031, -4.373179912567139
644,141148306,0.7743246,-0.19777595,0.5348485,0.27430716,-13.082016944885254,0.4270573854446411,-7.541345119476318,-8.605093955993652,-246.10623168945312, -3.903172254562378
645,141164973,0.7924441,-0.18606006,0.51085013,0.2764911,-12.331356048583984,-2.4366703033447266,-8.790729522705078,33.8338508605957,-221.72494506835938, -11.959696769714355
646,141181640,0.8092614,-0.16811472,0.49374175,0.27028462,-10.813541412353516,-2.6599745750427246,-9.872079849243164,108.68769073486328,-180.89654541015625, -24.46937370300293
647,141198307,0.82266843,-0.14885463,0.48327798,0.25981218,-9.774532318115234,0.875984787940979,-10.929573059082031,138.89373779296875,-130.04525756835938, -29.670621871948242
648,141214974,0.83046204,-0.1324649,0.4794363,0.25085422,-8.755876541137695,3.694150686264038,-12.709036827087402,123.67937469482422,-70.5538558959961, -13.81159496307373
649,141231641,0.83141077,-0.12124281,0.48304784,0.2464189,-7.462369918823242,3.341475009918213,-12.944514274597168,85.8315200805664,-0.8604046702384949, 13.564802169799805
650,141248308,0.82684946,-0.11944402,0.4909887,0.24694984,-7.17443323135376,2.7109339237213135,-11.03306770324707,18.15634536743164,53.79344177246094, 23.588436126708984
651,141264975,0.8188134,-0.12638867,0.5001357,0.25186524,-7.743111610412598,1.5600757598876953,-8.628946304321289,-47.213645935058594,83.43104553222656, 25.86195945739746
652,141281642,0.8090108,-0.13930571,0.50883216,0.25920328,-10.105575561523438,-0.45225751399993896,1.8404134511947632,-91.528564453125,95.04058074951172, 21.59055519104004
653,141298309,0.800782,-0.15236342,0.51354414,0.26796892,-18.297048568725586,-2.217456817626953,17.54777717590332,-102.91233825683594,66.20930480957031, 22.386381149291992
654,141314976,0.7926228,-0.16136755,0.5204079,0.27365345,-11.173966407775879,-5.636610507965088,-3.4742965698242188,-65.6501693725586,73.69757843017578, 21.85855484008789
655,141331643,0.7828101,-0.16172984,0.5362772,0.2710341,-14.411978721618652,0.16493810713291168,-8.062858581542969,26.274063110351562,121.52903747558594, 20.70124626159668
656,141348310,0.7717092,-0.16393626,0.55053407,0.27295232,-11.768978118896484,-2.3272500038146973,-0.04295480251312256,-4.870152473449707,115.78897094726562, 38.94218444824219
657,141364977,0.7637582,-0.15769656,0.5649224,0.26957226,-7.912946701049805,-0.169636070728302,-2.0271055698394775,63.77866744995117,94.62542724609375, 37.0859260559082
658,141381644,0.7558011,-0.15529431,0.5764862,0.2689112,-12.463382720947266,4.452825546264648,-1.8484916687011719,27.79135513305664,83.9162826538086, 33.43269348144531
659,141398311,0.7475953,-0.1578428,0.5850022,0.27195704,-12.187768936157227,1.6599119901657104,-2.0149142742156982,-18.579435348510742,74.17848205566406, 30.22235870361328
660,141414978,0.7394705,-0.16189586,0.5922278,0.27611706,-10.108312606811523,1.9624029397964478,-0.21463650465011597,-33.15576171875,68.74456024169922, 28.314956665039062
661,141431645,0.73227125,-0.1666083,0.59781516,0.2804259,-10.109247207641602,0.7495596408843994,0.075103759765625,-39.22221374511719,57.693214416503906, 22.762224197387695
662,141448312,0.72597474,-0.16895059,0.6038188,0.28252482,-10.686639785766602,-0.6126018166542053,-0.10545256733894348,-16.388418197631836,54.0098762512207, 20.09415626525879
663,141464979,0.7204181,-0.16900462,0.61003053,0.2833713,-10.016610145568848,0.065907783806324,0.2599318325519562,1.4806917905807495,48.954158782958984, 22.162107467651367
664,141481646,0.71525687,-0.16878583,0.61580306,0.2840893,-10.39227294921875,0.5220491290092468,0.2608755826950073,2.9584529399871826,44.715614318847656, 21.398632049560547
665,141498313,0.71032554,-0.16824438,0.6215689,0.28422645,-10.283589363098145,1.1656126976013184,0.052825555205345154,7.238842964172363,43.733192443847656, 19.458147048950195
666,141514980,0.70573044,-0.16793092,0.62688535,0.2841825,-9.996994972229004,1.7066086530685425,-0.04882204160094261,6.394055366516113,40.733787536621094, 16.41976547241211
667,141531647,0.70135754,-0.1684628,0.63155395,0.28435677,-9.949902534484863,1.6632925271987915,-0.321892648935318,0.3271592855453491,38.011260986328125, 12.640316009521484
668,141548314,0.69715345,-0.16968381,0.6356219,0.28490418,-9.925625801086426,1.2026312351226807,-0.05991370230913162,-5.609874725341797,35.27370834350586, 10.406381607055664
669,141564981,0.69330245,-0.17041174,0.63966143,0.28482637,-9.749539375305176,1.0948773622512817,0.24435150623321533,-0.1686987429857254,33.3399543762207, 8.83328628540039
670,141581648,0.68964875,-0.17080893,0.6436782,0.2844087,-9.470135688781738,1.393947720527649,0.12036212533712387,3.0809319019317627,32.10432052612305, 8.252540588378906
671,141598315,0.6860734,-0.17111804,0.6476782,0.28378874,-9.496746063232422,1.5978540182113647,-0.026678776368498802,4.445824146270752,31.732942581176758, 7.504491806030273
672,141614982,0.6824312,-0.171655,0.6516388,0.28317913,-9.446666717529297,1.5556918382644653,-0.11862742900848389,3.160907506942749,32.265830993652344, 6.613999366760254
673,141631649,0.6786814,-0.1724067,0.655638,0.2825024,-9.565764427185059,1.30925714969635,-0.14190860092639923,2.395148992538452,33.41468811035156, 5.583008289337158
674,141648316,0.67483145,-0.17299442,0.65981925,0.2816294,-9.523710250854492,1.1394944190979004,-0.29928165674209595,4.273183822631836,34.62126541137695, 5.8127312660217285
675,141664983,0.6709332,-0.17313284,0.6642835,0.28036115,-9.473759651184082,1.148634433746338,-0.4789682626724243,8.634882926940918,35.742088317871094, 6.447432994842529
676,141681650,0.6669405,-0.17292897,0.66903025,0.27872106,-9.481867790222168,1.164513349533081,-0.5175598859786987,12.33686637878418,37.24864196777344, 6.8173627853393555
677,141698317,0.6627647,-0.17252026,0.67408085,0.27675954,-9.612894058227539,1.2533644437789917,-0.4899637699127197,15.112225532531738,39.46208190917969, 7.00161600112915
678,141714984,0.65828806,-0.17222959,0.67932594,0.27479303,-9.483050346374512,1.3592700958251953,-0.6692938208580017,14.604216575622559,41.96658706665039, 7.239167213439941
679,141731651,0.65350986,-0.17190173,0.68492055,0.27250636,-9.541826248168945,1.343101978302002,-0.8474191427230835,16.563827514648438,45.25872802734375, 6.949366092681885
680,141748318,0.64837384,-0.17144227,0.6910395,0.2696008,-9.457429885864258,1.2847570180892944,-0.8765212893486023,20.62078285217285,49.77550506591797, 6.082559585571289
681,141764985,0.6429046,-0.17066453,0.6977428,0.2659012,-9.414400100708008,1.4022878408432007,-0.9030434489250183,26.498262405395508,54.30257797241211, 5.368792533874512
682,141781652,0.6370733,-0.1697574,0.70479757,0.26188108,-9.312315940856934,1.7751035690307617,-0.8521170616149902,28.818727493286133,57.72968673706055, 5.654054641723633
683,141798319,0.6308613,-0.16905351,0.71210647,0.25756618,-9.49510383605957,1.5162138938903809,-1.6193146705627441,29.367624282836914,61.39750671386719, 4.360781192779541
684,141814986,0.6240262,-0.16866323,0.71990806,0.25274017,-9.860410690307617,1.3672685623168945,-1.6366692781448364,30.652090072631836,67.72368621826172, 2.289647102355957
685,141831653,0.61653924,-0.16861235,0.7279986,0.24792823,-9.959688186645508,1.0421243906021118,-1.6354175806045532,28.86731719970703,72.75712585449219, 2.1453466415405273
686,141848320,0.6084718,-0.16877778,0.7363118,0.24315044,-9.813063621520996,0.7858209013938904,-2.02072811126709,27.482784271240234,76.93433380126953, 2.467719793319702
687,141864987,0.59987587,-0.16892831,0.74496454,0.23799396,-9.740131378173828,1.1031373739242554,-2.420719861984253,29.40599250793457,81.44112396240234, 2.252075433731079
688,141881654,0.59103274,-0.16896807,0.75372475,0.2324443,-9.921154022216797,1.4210658073425293,-2.406859874725342,31.759851455688477,83.41783142089844, 1.7367116212844849
689,141898321,0.5819728,-0.16852802,0.7627734,0.2260175,-10.442602157592773,1.5361981391906738,-2.189788818359375,38.459617614746094,85.96471405029297, 1.3473659753799438
690,141914988,0.5723018,-0.1679036,0.7722324,0.21894567,-11.571145057678223,1.302498698234558,-1.9403373003005981,42.510154724121094,91.28443145751953, 1.167807936668396
691,141931655,0.56124103,-0.16805679,0.782287,0.21164532,-13.034524917602539,1.2343769073486328,-1.6455161571502686,39.95671463012695,102.47004699707031, -1.065495252609253
692,141948322,0.54806525,-0.16944884,0.79297197,0.20520273,-14.780380249023438,0.792385458946228,-1.1477487087249756,29.041841506958008,117.1408462524414, -0.5984970331192017
