PacketCounter,SampleTimeFine,Quat_W,Quat_X,Quat_Y,Quat_Z,Acc_X,Acc_Y,Acc_Z,Gyr_X,Gyr_Y,Gyr_Z 
1,366431808,0.99781924,-0.015491469,-0.054882467,0.0332375,-0.5893749594688416,-0.518151044845581,0.6512283086776733,0.3849267065525055,-0.10420790314674377, 0.023255713284015656
2,366448475,0.9978187,-0.015524807,-0.05492933,0.03316143,1.065178394317627,-0.34285876154899597,9.76096248626709,-0.9474010467529297,0.31077811121940613, -0.06932076811790466
3,366465142,0.9978204,-0.01565195,-0.054917693,0.03306992,1.0761281251907349,-0.3421907424926758,9.73464584350586,-0.9849619269371033,0.2718595862388611, -0.05543869361281395
4,366481809,0.9978152,-0.015793987,-0.054950774,0.03310333,1.0700653791427612,-0.3384491801261902,9.731830596923828,-1.0254043340682983,0.2936047613620758, -0.09790454059839249
5,366498476,0.99781215,-0.015928524,-0.054963097,0.033110965,1.0743870735168457,-0.3438587188720703,9.730941772460938,-1.064771056175232,0.31770631670951843, -0.07624900341033936
6,366515143,0.9978136,-0.01607265,-0.05498042,0.032968957,1.0833160877227783,-0.3399827182292938,9.743227005004883,-1.0558195114135742,0.2640221118927002, -0.12315867841243744
7,366531810,0.9978101,-0.016189458,-0.054991536,0.03299738,1.071329116821289,-0.33935657143592834,9.73786449432373,-0.9988183975219727,0.38379988074302673, -0.0791432335972786
8,366548477,0.9978069,-0.016301937,-0.054998394,0.033026755,1.0733801126480103,-0.324802428483963,9.736026763916016,-1.0168241262435913,0.29987987875938416, -0.06611917912960052
9,366565144,0.9978033,-0.016393524,-0.055002257,0.033086453,1.0713071823120117,-0.3405511975288391,9.760103225708008,-1.0309110879898071,0.27000266313552856, -0.10643356293439865
10,366581811,0.997805,-0.016495548,-0.05498613,0.03301212,1.0901939868927002,-0.33358249068260193,9.741093635559082,-1.018347978591919,0.3246088922023773, -0.04387454688549042
11,366598478,0.99780315,-0.016582945,-0.05499377,0.03301101,1.0759310722351074,-0.3397151231765747,9.74126148223877,-0.974166214466095,0.23346613347530365, -0.09542010724544525
12,366615145,0.9978009,-0.016673956,-0.055001616,0.033016667,1.073377013206482,-0.3530009090900421,9.761678695678711,-0.9861913919448853,0.20439572632312775, -0.11343863606452942
13,366631812,0.99779946,-0.016786125,-0.05499627,0.033016868,1.0682181119918823,-0.3395295739173889,9.73432731628418,-1.0619920492172241,0.25573641061782837, -0.04501431807875633
14,366648479,0.9978004,-0.01689947,-0.054976024,0.032962196,1.0843061208724976,-0.34255409240722656,9.748268127441406,-1.0503767728805542,0.31607988476753235, -0.07033247500658035
15,366665146,0.9978008,-0.017004587,-0.054961596,0.03291761,1.0771526098251343,-0.3543298840522766,9.733537673950195,-0.9907760620117188,0.2869710624217987, -0.044412415474653244
16,366681813,0.9978002,-0.017105753,-0.05495631,0.03289807,1.0833172798156738,-0.340726763010025,9.740713119506836,-0.9511916041374207,0.2230033576488495, -0.11073650419712067
17,366698480,0.9977983,-0.017214522,-0.05495178,0.032906055,1.075661063194275,-0.33204153180122375,9.724125862121582,-1.0203074216842651,0.22763927280902863, -0.09632936120033264
18,366715147,0.9977992,-0.017314306,-0.054931417,0.03285903,1.0771865844726562,-0.3332413136959076,9.729034423828125,-0.9494500160217285,0.3171941339969635, -0.057654187083244324
19,366731814,0.9978014,-0.017425781,-0.05491112,0.032762323,1.0703468322753906,-0.34023216366767883,9.730134963989258,-1.0144933462142944,0.3035680949687958, 0.03375113382935524
20,366748481,0.9977995,-0.017521642,-0.054898337,0.03279379,1.062251091003418,-0.34527841210365295,9.748968124389648,-0.9668152928352356,0.2542765140533447, -0.0679376870393753
21,366765148,0.99779904,-0.017614689,-0.05487595,0.032794263,1.0657728910446167,-0.3387639820575714,9.752333641052246,-0.9329680800437927,0.29282358288764954, -0.11690916121006012
22,366781815,0.9977992,-0.017716557,-0.054855824,0.032768294,1.0749839544296265,-0.3467208743095398,9.748775482177734,-0.9805053472518921,0.2578622102737427, -0.053697023540735245
23,366798482,0.99779713,-0.017821623,-0.054842964,0.032798592,1.078810214996338,-0.3270319998264313,9.769620895385742,-1.0209349393844604,0.21487131714820862, -0.07093437016010284
24,366815149,0.9977974,-0.017929291,-0.05481201,0.032778382,1.0845849514007568,-0.34274613857269287,9.757375717163086,-1.0425264835357666,0.337133526802063, -0.17989079654216766
25,366831816,0.9977964,-0.018029893,-0.054782465,0.03280699,1.0667823553085327,-0.3451935946941376,9.759429931640625,-0.9951174855232239,0.33306118845939636, -0.04332388564944267
26,366848483,0.9977993,-0.018135319,-0.054746024,0.032721754,1.0801504850387573,-0.3183346390724182,9.769524574279785,-0.9758053421974182,0.35442209243774414, -0.003035104600712657
27,366865150,0.9977983,-0.018230727,-0.054729305,0.03272621,1.0802338123321533,-0.34037283062934875,9.747856140136719,-0.9667513966560364,0.23172451555728912, -0.04817749187350273
28,366881817,0.99780244,-0.018353818,-0.054700956,0.03257724,1.0701494216918945,-0.336776465177536,9.719537734985352,-1.1032541990280151,0.3021594285964966, -0.11591026932001114
29,366898484,0.9978018,-0.018460095,-0.05468138,0.032573,1.0645806789398193,-0.3392394185066223,9.740325927734375,-1.0334980487823486,0.2519073188304901, -0.024639414623379707
30,366915151,0.99780184,-0.01855521,-0.054659702,0.03255427,1.0688332319259644,-0.3456614911556244,9.718850135803223,-0.9514990448951721,0.25591570138931274, -0.04411787539720535
31,366931818,0.9978014,-0.018652393,-0.05463088,0.03255731,1.0624407529830933,-0.3427535891532898,9.727906227111816,-0.9559043049812317,0.3021850287914276, 0.069007009267807
32,366948485,0.9978032,-0.018749747,-0.054603335,0.032494448,1.0724189281463623,-0.35228297114372253,9.76114559173584,-0.945402979850769,0.2843970060348511, -0.06965372711420059
33,366965152,0.9978043,-0.018849382,-0.054575328,0.032445885,1.067198395729065,-0.34314653277397156,9.740397453308105,-0.9629606604576111,0.28958356380462646, -0.09143733233213425
34,366981819,0.9978063,-0.018959086,-0.054541834,0.032380115,1.0808351039886475,-0.32751357555389404,9.750235557556152,-1.017080307006836,0.32221415638923645, -0.02840448170900345
35,366998486,0.9978066,-0.019064073,-0.054519203,0.032345884,1.0820872783660889,-0.33851760625839233,9.73819351196289,-1.0047733783721924,0.25399473309516907, -0.024178387597203255
36,367015153,0.9978063,-0.019155266,-0.05449998,0.03233591,1.0757585763931274,-0.3411983251571655,9.741987228393555,-0.9159358739852905,0.2335430085659027, 0.01069970615208149
37,367031820,0.9978053,-0.019262573,-0.054478634,0.032338798,1.076740026473999,-0.35314589738845825,9.758625030517578,-1.0406824350357056,0.2582080364227295, -0.07437928020954132
38,367048487,0.9978043,-0.019366931,-0.05445535,0.03234557,1.0687681436538696,-0.34682950377464294,9.780519485473633,-1.010036826133728,0.2690165936946869, -0.009399861097335815
39,367065154,0.99780446,-0.019466102,-0.05443145,0.03231951,1.0799155235290527,-0.3404797315597534,9.737590789794922,-0.9718226194381714,0.2685043513774872, -0.1074068546295166
40,367081821,0.9978044,-0.019561913,-0.0544057,0.032309644,1.0659902095794678,-0.3389579653739929,9.740655899047852,-0.957966148853302,0.28640758991241455, -0.13345496356487274
41,367098488,0.9978062,-0.019657131,-0.054369822,0.032255642,1.0743459463119507,-0.3331139087677002,9.750325202941895,-0.924964189529419,0.3425378203392029, -0.024396095424890518
42,367115155,0.99780875,-0.01976097,-0.054336127,0.032167546,1.0646156072616577,-0.34154197573661804,9.753545761108398,-0.9804028868675232,0.32669639587402344, -0.0680401399731636
43,367131822,0.99780947,-0.01986846,-0.05430857,0.03212546,1.0765184164047241,-0.3264993727207184,9.755064010620117,-1.0258013010025024,0.29007017612457275, -0.07767050713300705
44,367148489,0.9978109,-0.019978583,-0.054280814,0.03206078,1.0838849544525146,-0.32874807715415955,9.742509841918945,-1.040541410446167,0.2897244393825531, -0.07535255700349808
45,367165156,0.9978106,-0.020083675,-0.054254018,0.03205056,1.0785635709762573,-0.3312225937843323,9.734725952148438,-1.032370924949646,0.29434752464294434, -0.09734106063842773
46,367181823,0.99780846,-0.020185426,-0.054232433,0.032090727,1.0740376710891724,-0.3370368182659149,9.726395606994629,-1.0294384956359863,0.26610955595970154, -0.0721125677227974
47,367198490,0.9978071,-0.02028222,-0.054205913,0.03211718,1.0746304988861084,-0.3463824987411499,9.738187789916992,-0.9939647912979126,0.29935482144355774, -0.10507609695196152
48,367215157,0.99780697,-0.020381004,-0.054181255,0.032098964,1.0829174518585205,-0.33626264333724976,9.73995590209961,-0.9844881296157837,0.2780322730541229, -0.040865059942007065
49,367231824,0.9978057,-0.020479124,-0.054149,0.03213036,1.0680209398269653,-0.3319745361804962,9.755517959594727,-0.9993435740470886,0.34068092703819275, -0.04553937911987305
50,367248491,0.99780446,-0.020577945,-0.05413915,0.032123197,1.0765680074691772,-0.3382587134838104,9.74219036102295,-1.0065279006958008,0.18268899619579315, -0.12415756285190582
51,367265158,0.99780357,-0.020685269,-0.054116134,0.032120675,1.0761897563934326,-0.34806856513023376,9.744645118713379,-1.0517855882644653,0.2714754343032837, 0.00564119778573513
52,367281825,0.99780124,-0.02078349,-0.05409375,0.03216577,1.0764050483703613,-0.3565806448459625,9.725605964660645,-1.01975679397583,0.27886465191841125, -0.11528275161981583
53,367298492,0.9978,-0.020881575,-0.054073866,0.032175407,1.0831776857376099,-0.32844942808151245,9.73539924621582,-0.9981524348258972,0.2547502815723419, -0.05505449324846268
54,367315159,0.99780065,-0.020980474,-0.054039884,0.032146376,1.083099603652954,-0.34722957015037537,9.73908805847168,-0.996859073638916,0.3508363366127014, -0.11218361556529999
55,367331826,0.9978016,-0.021082565,-0.05400916,0.03210374,1.0801565647125244,-0.33268454670906067,9.740155220031738,-1.011919379234314,0.32742634415626526, -0.0789511427283287
56,367348493,0.99780387,-0.021189407,-0.053981416,0.03200975,1.0704792737960815,-0.32664257287979126,9.742134094238281,-1.031512975692749,0.30201855301856995, -0.09367845207452774
57,367365160,0.99780387,-0.02128653,-0.05396992,0.031963702,1.062245488166809,-0.33954906463623047,9.753779411315918,-0.9894313812255859,0.19490621984004974, -0.08595621585845947
58,367381827,0.99780244,-0.021390036,-0.053952873,0.031968486,1.071054458618164,-0.33869823813438416,9.74710750579834,-1.0524897575378418,0.2407785803079605, -0.07581358402967453
59,367398494,0.9978033,-0.02148721,-0.05392757,0.03191755,1.0643692016601562,-0.3407530188560486,9.7400484085083,-0.9951558113098145,0.28998053073883057, -0.13154681026935577
60,367415161,0.9978023,-0.021592835,-0.053916022,0.031895924,1.0686691999435425,-0.3372659385204315,9.744197845458984,-1.0691509246826172,0.20089960098266602, -0.12600165605545044
61,367431828,0.99780244,-0.021688914,-0.053889208,0.031874135,1.0799074172973633,-0.3370453417301178,9.733068466186523,-0.9944387078285217,0.29990553855895996, -0.04400261864066124
62,367448495,0.99780273,-0.021787053,-0.053862784,0.0318404,1.0860908031463623,-0.33058834075927734,9.755066871643066,-1.0094605684280396,0.2983175218105316, -0.061368029564619064
63,367465162,0.9978027,-0.021885814,-0.053843144,0.031808946,1.0769476890563965,-0.33412688970565796,9.746590614318848,-1.0242773294448853,0.25612056255340576, -0.0968928337097168
64,367481829,0.99780226,-0.02197475,-0.053817935,0.03180343,1.0833168029785156,-0.33866405487060547,9.738472938537598,-0.9684673547744751,0.2975875437259674, -0.09453646838665009
65,367498496,0.9978019,-0.022075668,-0.053796053,0.031783313,1.0629395246505737,-0.33774277567863464,9.742803573608398,-1.0438839197158813,0.2743056118488312, -0.03803485631942749
66,367515163,0.99780214,-0.022170637,-0.053773917,0.03174873,1.0741589069366455,-0.3567151129245758,9.7670316696167,-1.0036592483520508,0.2727816700935364, -0.06286637485027313
67,367531830,0.99780124,-0.022265283,-0.053749263,0.031750757,1.068711280822754,-0.3357216715812683,9.727190971374512,-1.0168753862380981,0.29742103815078735, -0.0736365094780922
68,367548497,0.9978013,-0.022353489,-0.053724907,0.031728137,1.078619122505188,-0.33715906739234924,9.72735595703125,-0.9696200489997864,0.2910691201686859, -0.09252587705850601
69,367565164,0.9978008,-0.022439154,-0.053698704,0.031728413,1.0764659643173218,-0.342785120010376,9.751884460449219,-0.9549694061279297,0.3047334849834442, -0.006723333150148392
70,367581831,0.99779934,-0.022538539,-0.053676393,0.031739183,1.0678097009658813,-0.3259049355983734,9.758397102355957,-1.0636569261550903,0.28681740164756775, -0.06115031614899635
71,367598498,0.9977994,-0.022629455,-0.053657953,0.031707507,1.078028678894043,-0.33573535084724426,9.734688758850098,-0.9954887628555298,0.25062665343284607, -0.0539531484246254
72,367615165,0.9977996,-0.02272911,-0.053638328,0.031663526,1.0678476095199585,-0.33563557267189026,9.773089408874512,-1.0586496591567993,0.2617681920528412, -0.08269059658050537
73,367631832,0.9977999,-0.02282323,-0.05360721,0.031633485,1.07394540309906,-0.3347277343273163,9.750455856323242,-1.0243287086486816,0.34048885107040405, -0.04907393455505371
74,367648499,0.9978003,-0.022912497,-0.05358391,0.031595785,1.0710450410842896,-0.34725266695022583,9.743285179138184,-0.9957064986228943,0.2859209477901459, -0.059754423797130585
75,367665166,0.9978021,-0.023001553,-0.053545985,0.03154085,1.0740387439727783,-0.3330574929714203,9.758079528808594,-0.9943873882293701,0.38720637559890747, -0.11498820781707764
76,367681833,0.9978028,-0.023093713,-0.053525887,0.03148547,1.0877488851547241,-0.3390347361564636,9.73696231842041,-1.021485686302185,0.2646495997905731, -0.08421454578638077
77,367698500,0.99780214,-0.023201425,-0.053500973,0.031469643,1.076784372329712,-0.33321988582611084,9.769413948059082,-1.139829158782959,0.3076533377170563, -0.016725093126296997
78,367715167,0.9978034,-0.023293449,-0.053476553,0.031404205,1.062181830406189,-0.3392902910709381,9.747464179992676,-1.0246615409851074,0.2959355413913727, -0.06877009570598602
79,367731834,0.9978032,-0.023376888,-0.05345771,0.031377655,1.0747581720352173,-0.3389732539653778,9.740544319152832,-0.983092188835144,0.2612559497356415, -0.04356720298528671
80,367748501,0.997802,-0.023469098,-0.053438317,0.03137851,1.0620697736740112,-0.3353261351585388,9.741416931152344,-1.0616719722747803,0.2749203145503998, -0.07288093864917755
81,367765168,0.99780214,-0.023557091,-0.053415705,0.031351108,1.0760258436203003,-0.33657991886138916,9.735157012939453,-1.0305142402648926,0.29315659403800964, -0.104653500020504
82,367781835,0.9978011,-0.023632962,-0.05339106,0.03136938,1.0823067426681519,-0.32743582129478455,9.764885902404785,-0.9623076319694519,0.3112647533416748, -0.045526571571826935
83,367798502,0.99780077,-0.023728479,-0.053368267,0.031343635,1.0786447525024414,-0.33988845348358154,9.738462448120117,-1.0929707288742065,0.29904747009277344, -0.08157645165920258
84,367815169,0.99780047,-0.023814213,-0.053351,0.031318415,1.0641686916351318,-0.33803197741508484,9.74864673614502,-1.030808687210083,0.26038509607315063, -0.0693591833114624
85,367831836,0.9978012,-0.023901759,-0.05333087,0.031263705,1.0712504386901855,-0.3370373249053955,9.737720489501953,-1.037852168083191,0.27579113841056824, -0.06947443634271622
86,367848503,0.9978011,-0.023980044,-0.053313192,0.031235306,1.0742509365081787,-0.3501069247722626,9.754172325134277,-0.9814273118972778,0.25896358489990234, 0.010302708484232426
87,367865170,0.997801,-0.024065863,-0.053292356,0.03120895,1.0766159296035767,-0.3298441469669342,9.741555213928223,-1.0455102920532227,0.2878931760787964, -0.05630951374769211
88,367881837,0.99780184,-0.024146227,-0.05326836,0.031162454,1.0809721946716309,-0.3442477881908417,9.748645782470703,-1.0089483261108398,0.30762773752212524, -0.07694055885076523
89,367898504,0.99780184,-0.024223214,-0.053254906,0.031124378,1.0815623998641968,-0.34247565269470215,9.740213394165039,-0.9997020363807678,0.239651620388031, -0.10692021250724792
90,367915171,0.9978017,-0.024308752,-0.05322878,0.031107336,1.0857243537902832,-0.33534860610961914,9.752518653869629,-1.0636953115463257,0.33219027519226074, -0.05038017779588699
91,367931838,0.9978013,-0.02437784,-0.053205162,0.031106148,1.0755841732025146,-0.3300848603248596,9.753949165344238,-0.9631271362304688,0.3168482780456543, -0.05068753659725189
92,367948505,0.99780154,-0.024459844,-0.053185683,0.03106923,1.0675132274627686,-0.33417922258377075,9.755661964416504,-1.0505048036575317,0.2880851924419403, -0.07969390600919724
93,367965172,0.9978017,-0.024532735,-0.05316257,0.031041285,1.0772377252578735,-0.3463239073753357,9.75953197479248,-0.9985750317573547,0.31455597281455994, -0.09389615058898926
94,367981839,0.9978015,-0.024608657,-0.05315091,0.031013351,1.0695135593414307,-0.3427692949771881,9.742830276489258,-1.0232017040252686,0.23601460456848145, -0.04909954592585564
95,367998506,0.99780184,-0.024679743,-0.053131424,0.030976474,1.084182858467102,-0.34648263454437256,9.76230239868164,-0.9904814958572388,0.2880852520465851, -0.040621738880872726
96,368015173,0.99780184,-0.024751473,-0.053114727,0.03094724,1.0678449869155884,-0.3510429561138153,9.752144813537598,-1.0072065591812134,0.27445927262306213, -0.0658886656165123
97,368031840,0.99780124,-0.024816211,-0.053109836,0.030924466,1.068233847618103,-0.350422739982605,9.755197525024414,-0.9693382382392883,0.1939585655927658, -0.06299442797899246
98,368048507,0.99780184,-0.024879878,-0.053087495,0.030893428,1.0612717866897583,-0.35514965653419495,9.758535385131836,-0.9645870923995972,0.31528592109680176, -0.09214168787002563
99,368065174,0.997802,-0.024955451,-0.053066876,0.030861972,1.0841628313064575,-0.35769423842430115,9.739392280578613,-1.049544334411621,0.3051304817199707, -0.06113750487565994
100,368081841,0.99780214,-0.025025258,-0.053053502,0.030821586,1.0713213682174683,-0.328090637922287,9.752314567565918,-1.0168755054473877,0.256671279668808, -0.0913989245891571
101,368098508,0.9978019,-0.025083212,-0.05304282,0.030798398,1.0652761459350586,-0.3494355082511902,9.744752883911133,-0.9488992094993591,0.23997175693511963, -0.08066719770431519
102,368115175,0.9978017,-0.025145926,-0.05303902,0.030764053,1.0856378078460693,-0.3433874249458313,9.766717910766602,-0.9862682223320007,0.19329263269901276, -0.08708316832780838
103,368131842,0.9978017,-0.025213687,-0.05302344,0.030733641,1.0594561100006104,-0.347945898771286,9.754759788513184,-1.0285035371780396,0.27947935461997986, -0.09758437424898148
104,368148509,0.99780107,-0.025279835,-0.053017646,0.030712664,1.0772719383239746,-0.3324379324913025,9.746350288391113,-1.0284011363983154,0.21366752684116364, -0.08645565807819366
105,368165176,0.9978008,-0.025338368,-0.053004626,0.030695232,1.0733784437179565,-0.3356483578681946,9.757039070129395,-0.9792887568473816,0.2625109851360321, -0.044028230011463165
106,368181843,0.9978011,-0.025397219,-0.052987013,0.030667853,1.0743528604507446,-0.32435575127601624,9.73508358001709,-0.9939777255058289,0.29898345470428467, -0.13053514063358307
107,368198510,0.9978011,-0.025456859,-0.05297237,0.030641373,1.066880702972412,-0.3291136622428894,9.743598937988281,-0.9991002082824707,0.27580398321151733, -0.034397855401039124
108,368215177,0.9978007,-0.025518548,-0.05295401,0.030636372,1.0779865980148315,-0.34318673610687256,9.753445625305176,-1.0296690464019775,0.30824247002601624, -0.044335585087537766
109,368231844,0.9978009,-0.025576686,-0.052941788,0.0306032,1.0751068592071533,-0.34109261631965637,9.750998497009277,-1.008628010749817,0.2645471692085266, -0.09034879505634308
110,368248511,0.9978008,-0.025628371,-0.052943137,0.030559234,1.075697898864746,-0.3386960029602051,9.74414348602295,-0.9658420085906982,0.1672189086675644, -0.04503992572426796
111,368265178,0.9978006,-0.025686411,-0.05292548,0.030549685,1.0734399557113647,-0.3374437689781189,9.754378318786621,-1.0215497016906738,0.30609095096588135, -0.0004482222138904035
112,368281845,0.9978013,-0.025739498,-0.0529115,0.030506903,1.084954023361206,-0.33919161558151245,9.733880996704102,-0.9884580373764038,0.2774815559387207, -0.04118521884083748
113,368298512,0.9978014,-0.025789483,-0.052895445,0.030488148,1.0817193984985352,-0.3385482132434845,9.742918014526367,-0.9822725653648376,0.29843276739120483, -0.03275864198803902
114,368315179,0.9978015,-0.02583627,-0.052875586,0.03047625,1.0737929344177246,-0.3269931674003601,9.756884574890137,-0.9642285108566284,0.32486510276794434, 0.02217419445514679
115,368331846,0.9978023,-0.025883047,-0.052859362,0.030440902,1.0894874334335327,-0.33817747235298157,9.745936393737793,-0.9769835472106934,0.30356812477111816, -0.08823574334383011
116,368348513,0.9978025,-0.025934812,-0.052844416,0.03041368,1.082950234413147,-0.34254610538482666,9.740080833435059,-1.017233967781067,0.29781803488731384, -0.03574252128601074
117,368365180,0.99780333,-0.025977427,-0.05282356,0.030390505,1.0812703371047974,-0.3548559844493866,9.753249168395996,-0.9637930393218994,0.34109067916870117, -0.05180167779326439
118,368381847,0.99780405,-0.026020808,-0.05280451,0.030360239,1.0935500860214233,-0.33575639128685,9.743873596191406,-0.9754980802536011,0.3308712840080261, -0.06693880259990692
119,368398514,0.99784774,-0.015483211,-0.055395648,0.03148828,1.0825207233428955,-0.3458585739135742,9.750535011291504,-0.9488096833229065,0.20177043974399567, -0.08184538036584854
120,368415181,0.99784786,-0.015481534,-0.05540161,0.031476554,1.0737528800964355,-0.3598240911960602,9.737689971923828,-0.9940416216850281,0.2422000914812088, -0.09917237609624863
121,368431848,0.99784803,-0.0154755395,-0.055398908,0.03147557,1.0684447288513184,-0.335463285446167,9.755339622497559,-0.9693126082420349,0.3031070828437805, -0.1300356686115265
122,368448515,0.99784726,-0.015483055,-0.05539927,0.03149769,1.0579383373260498,-0.34161850810050964,9.743925094604492,-1.0567927360534668,0.2829114496707916, 0.008561044000089169
123,368465182,0.99784714,-0.015488971,-0.055395197,0.031505067,1.0894185304641724,-0.3479470908641815,9.722663879394531,-1.0473417043685913,0.3133009374141693, -0.06592708826065063
124,368481849,0.9978468,-0.015492488,-0.055393398,0.031516068,1.0639728307724,-0.3364579677581787,9.735225677490234,-1.0337671041488647,0.2983943819999695, -0.07836206257343292
125,368498516,0.99784654,-0.015483038,-0.055394765,0.031526815,1.0719780921936035,-0.3363998830318451,9.745925903320312,-0.9431621432304382,0.2728969156742096, -0.06281515210866928
126,368515183,0.9978462,-0.015482555,-0.05539675,0.031534716,1.0646651983261108,-0.3482967019081116,9.756053924560547,-1.0014564990997314,0.2693111002445221, -0.037164028733968735
127,368531850,0.99784625,-0.015475223,-0.055395346,0.031539697,1.0793170928955078,-0.3431524634361267,9.737857818603516,-0.9532407522201538,0.29080018401145935, -0.04757558926939964
128,368548517,0.99784476,-0.01547424,-0.055405784,0.03156954,1.0853450298309326,-0.3343718647956848,9.737366676330566,-1.0037744045257568,0.21216918528079987, -0.0004738348943646997
129,368565184,0.99784476,-0.015470021,-0.055407736,0.031567004,1.0650579929351807,-0.34362372756004333,9.748026847839355,-0.9796858429908752,0.27011793851852417, -0.11113350838422775
130,368581851,0.9978442,-0.015464582,-0.055411506,0.03158153,1.0742878913879395,-0.33613431453704834,9.739240646362305,-0.9697736501693726,0.2564791738986969, -0.03663896769285202
131,368598518,0.99784434,-0.01546176,-0.055414546,0.031575207,1.0829682350158691,-0.33688467741012573,9.7682523727417,-0.985397458076477,0.2613711953163147, -0.08687827736139297
132,368615185,0.99784374,-0.0154621685,-0.055419058,0.031586543,1.0850341320037842,-0.3413380980491638,9.743996620178223,-1.0119705200195312,0.25327757000923157, -0.0607917383313179
133,368631852,0.99784315,-0.015452826,-0.055423275,0.031599328,1.0807491540908813,-0.3325236737728119,9.74864673614502,-0.9440327882766724,0.25314950942993164, -0.05082840099930763
134,368648519,0.99784285,-0.0154491905,-0.055425383,0.031606223,1.0800648927688599,-0.3301650881767273,9.756823539733887,-0.9828488826751709,0.26899099349975586, -0.06861642003059387
135,368665186,0.9978433,-0.015451014,-0.055411525,0.031614706,1.0735419988632202,-0.32817840576171875,9.752422332763672,-1.016503930091858,0.37994515895843506, -0.055553942918777466
136,368681853,0.9978422,-0.015458688,-0.055425122,0.031623583,1.0819882154464722,-0.3319858908653259,9.759493827819824,-1.0575865507125854,0.1904752403497696, -0.005173764657229185
137,368698520,0.9978415,-0.015452662,-0.055426758,0.031645242,1.0680345296859741,-0.33223825693130493,9.762917518615723,-0.9725397825241089,0.27355000376701355, -0.06900060921907425
138,368715187,0.9978414,-0.01545298,-0.055424504,0.03165204,1.0717014074325562,-0.3373846709728241,9.749951362609863,-1.0063741207122803,0.2986248731613159, -0.037010349333286285
139,368731854,0.9978412,-0.015457373,-0.055420443,0.031665113,1.0755506753921509,-0.3319884240627289,9.737778663635254,-1.0360336303710938,0.3124428987503052, -0.03181097283959389
140,368748521,0.9978411,-0.015449863,-0.055422507,0.03166735,1.0803465843200684,-0.3355743885040283,9.760369300842285,-0.9587217569351196,0.2686963975429535, -0.09976145625114441
141,368765188,0.99784106,-0.015449886,-0.055427223,0.03166173,1.0834345817565918,-0.3516554534435272,9.738999366760254,-1.0065022706985474,0.25069066882133484, -0.08284427225589752
142,368781855,0.9978408,-0.015444616,-0.055426944,0.031671062,1.075582504272461,-0.32937365770339966,9.732063293457031,-0.969504714012146,0.2843457758426666, -0.03968686982989311
143,368798522,0.9978404,-0.015453224,-0.055434033,0.031669173,1.0887432098388672,-0.3317522406578064,9.738568305969238,-1.068484902381897,0.23715439438819885, -0.09157820045948029
144,368815189,0.9978403,-0.015455188,-0.055434495,0.031673342,1.0759488344192505,-0.3365281820297241,9.752230644226074,-1.0174133777618408,0.280337393283844, -0.03462837263941765
145,368831856,0.99784064,-0.0154557265,-0.05543203,0.031662323,1.0812538862228394,-0.33766838908195496,9.735372543334961,-1.0062077045440674,0.2998542785644531, -0.07942497730255127
146,368848523,0.9978405,-0.015455971,-0.055432875,0.031664003,1.0802817344665527,-0.33945009112358093,9.73974609375,-1.0078468322753906,0.2780706584453583, -0.06389087438583374
147,368865190,0.99784,-0.015466689,-0.055436227,0.03167082,1.0779966115951538,-0.3354589343070984,9.735661506652832,-1.0852484703063965,0.26470082998275757, -0.08646846562623978
148,368881857,0.99783915,-0.015461595,-0.055443484,0.03168482,1.0847272872924805,-0.3325005769729614,9.747428894042969,-0.9763175845146179,0.23409366607666016, -0.05654003471136093
149,368898524,0.9978384,-0.015463321,-0.05544953,0.031699497,1.0639766454696655,-0.329954594373703,9.756962776184082,-1.0216009616851807,0.2436472326517105, -0.03975091502070427
150,368915191,0.9978386,-0.015460397,-0.055442322,0.031708032,1.0638692378997803,-0.3359374701976776,9.754911422729492,-0.9857687950134277,0.3331764042377472, -0.05077717453241348
151,368931858,0.9978384,-0.015464213,-0.05544064,0.031716768,1.0845891237258911,-0.33472490310668945,9.758761405944824,-1.0345096588134766,0.29674234986305237, -0.059101302176713943
152,368948525,0.9978382,-0.015465164,-0.055440865,0.031721916,1.084998369216919,-0.3439156115055084,9.757316589355469,-1.0132126808166504,0.282412052154541, -0.05327441170811653
153,368965192,0.9978374,-0.015481368,-0.055442903,0.031735457,1.0841140747070312,-0.3489314615726471,9.746366500854492,-1.11917245388031,0.27366524934768677, -0.027533650398254395
154,368981859,0.9978371,-0.015484766,-0.055443253,0.031738114,1.0749554634094238,-0.3316512703895569,9.743091583251953,-1.0323710441589355,0.2831163704395294, -0.08458593487739563
155,368998526,0.9978377,-0.015479274,-0.055437677,0.031730868,1.0686371326446533,-0.3451802134513855,9.730632781982422,-0.9711565375328064,0.32231661677360535, -0.13067598640918732
156,369015193,0.99783754,-0.015473941,-0.055440012,0.031738494,1.0792808532714844,-0.3313845992088318,9.729934692382812,-0.9734875559806824,0.2676975727081299, -0.07690213620662689
157,369031860,0.99783736,-0.015473726,-0.05543711,0.031748228,1.0723545551300049,-0.3378569483757019,9.748113632202148,-1.0052087306976318,0.30415719747543335, -0.045577798038721085
158,369048527,0.9978367,-0.015476431,-0.055440813,0.031762373,1.0804762840270996,-0.32461902499198914,9.750344276428223,-1.0216906070709229,0.25765734910964966, 0.015847856178879738
159,369065194,0.9978369,-0.01547127,-0.055438418,0.031763837,1.0806806087493896,-0.33492419123649597,9.75661849975586,-0.9764969944953918,0.30113494396209717, -0.12095598131418228
160,369081861,0.9978368,-0.01547152,-0.05543896,0.03176208,1.0731853246688843,-0.3451925814151764,9.776026725769043,-1.0095628499984741,0.2805422842502594, -0.08641723543405533
161,369098528,0.9978366,-0.0154734505,-0.05544118,0.031762894,1.0738939046859741,-0.341235488653183,9.750475883483887,-1.0221259593963623,0.26956725120544434, -0.08372791856527328
162,369115195,0.9978362,-0.015471784,-0.055439163,0.03178069,1.0626531839370728,-0.33927714824676514,9.753067016601562,-0.9922230839729309,0.2964734137058258, 0.012402948923408985
163,369131862,0.9978356,-0.015471063,-0.055444144,0.03179132,1.0602526664733887,-0.33948075771331787,9.774529457092285,-1.0053880214691162,0.249935120344162, -0.05902446061372757
164,369148529,0.997835,-0.015476679,-0.055442642,0.031812645,1.0620312690734863,-0.3314130902290344,9.74608039855957,-1.045408010482788,0.2950263023376465, -0.0017032446339726448
165,369165196,0.9978344,-0.015474371,-0.0554442,0.031831577,1.0716946125030518,-0.343453049659729,9.74128246307373,-0.9911346435546875,0.2717827558517456, -0.006518431939184666
166,369181863,0.99783474,-0.015472437,-0.055440035,0.031827472,1.0611317157745361,-0.3382405936717987,9.746122360229492,-0.9973326921463013,0.3127630650997162, -0.1304454803466797
167,369198530,0.9978341,-0.015481905,-0.05544191,0.031839818,1.067055344581604,-0.34214797616004944,9.741586685180664,-1.0747472047805786,0.2727048099040985, -0.05036737024784088
168,369215197,0.99783367,-0.015480883,-0.05543845,0.031857897,1.0795488357543945,-0.33147111535072327,9.732810020446777,-0.9956552386283875,0.3052329421043396, 0.0191262848675251
169,369231864,0.9978333,-0.0154778315,-0.05543443,0.031878192,1.0852832794189453,-0.32796409726142883,9.748676300048828,-0.9863321781158447,0.3102402091026306, -0.016456156969070435
170,369248531,0.9978332,-0.01548293,-0.055436727,0.03187646,1.0887306928634644,-0.3335799276828766,9.747464179992676,-1.0412715673446655,0.26780641078948975, -0.06656741350889206
171,369265198,0.997833,-0.015483003,-0.055432767,0.03188653,1.0764265060424805,-0.3570310175418854,9.748990058898926,-1.0065662860870361,0.3102530241012573, -0.03708719089627266
172,369281865,0.997833,-0.0154824825,-0.055435456,0.031881988,1.0686579942703247,-0.3450343608856201,9.737260818481445,-1.0072065591812134,0.2655332386493683, -0.11958568543195724
173,369298532,0.99783283,-0.01548124,-0.055437088,0.03188322,1.0713294744491577,-0.3271676301956177,9.767402648925781,-0.9972943663597107,0.2711295783519745, -0.058307304978370667
174,369315199,0.9978324,-0.015487105,-0.055439144,0.031895224,1.0864830017089844,-0.33671751618385315,9.749505996704102,-1.0533349514007568,0.2719748318195343, -0.08330530673265457
175,369331866,0.9978318,-0.015482377,-0.055442058,0.03190888,1.0683679580688477,-0.33722591400146484,9.741057395935059,-0.9799675941467285,0.2635098695755005, -0.07294497638940811
176,369348533,0.9978318,-0.015486204,-0.05543735,0.03191725,1.085123062133789,-0.3412737548351288,9.75153923034668,-1.0369045734405518,0.31771916151046753, -0.08623796701431274
177,369365200,0.99783117,-0.0154879335,-0.055440724,0.03192933,1.0794786214828491,-0.3314654231071472,9.754838943481445,-1.024405598640442,0.2617681920528412, -0.07633864879608154
178,369381867,0.99783045,-0.015485481,-0.055441994,0.03195116,1.075143814086914,-0.32998543977737427,9.741676330566406,-0.9895594120025635,0.27356278896331787, 0.008471399545669556
179,369398534,0.9978298,-0.015479273,-0.055450108,0.03195959,1.0835607051849365,-0.337456613779068,9.737092018127441,-0.9672507643699646,0.22623056173324585, -0.056258294731378555
180,369415201,0.9978302,-0.015484681,-0.05544274,0.031957593,1.0749852657318115,-0.3406376838684082,9.757957458496094,-1.0442297458648682,0.33559679985046387, -0.09294848144054413
181,369431868,0.9978301,-0.015486881,-0.055442218,0.031961277,1.0725994110107422,-0.33840468525886536,9.762395858764648,-1.025660514831543,0.2884054183959961, -0.09205204248428345
182,369448535,0.99783003,-0.015486931,-0.05544267,0.031963747,1.079888105392456,-0.34699222445487976,9.735496520996094,-1.0111767053604126,0.28122106194496155, -0.09913396090269089
183,369465202,0.99782974,-0.01548084,-0.055444594,0.03196728,1.071783423423767,-0.3392704725265503,9.760602951049805,-0.9676861763000488,0.26919588446617126, -0.08270339667797089
184,369481869,0.9978296,-0.015482371,-0.055442177,0.031979214,1.073412537574768,-0.34083980321884155,9.751927375793457,-1.0203074216842651,0.3011733293533325, -0.06250779330730438
185,369498536,0.9978292,-0.015479406,-0.05544507,0.031989183,1.0826092958450317,-0.33338236808776855,9.764668464660645,-0.9925304651260376,0.26417574286460876, -0.0886327400803566
186,369515203,0.9978289,-0.015474912,-0.05544757,0.031992894,1.084816813468933,-0.3271765112876892,9.750752449035645,-0.973461925983429,0.26388123631477356, -0.033309318125247955
187,369531870,0.9978291,-0.015466741,-0.05544444,0.031996768,1.0706254243850708,-0.3417317271232605,9.75775146484375,-0.9551615118980408,0.30454137921333313, -0.1060749962925911
188,369548537,0.9978289,-0.015468759,-0.055444203,0.032000642,1.088046908378601,-0.32185178995132446,9.737719535827637,-1.0215240716934204,0.2854471206665039, -0.06551728397607803
189,369565204,0.9978292,-0.015469083,-0.05543752,0.032006815,1.075363278388977,-0.32947519421577454,9.751968383789062,-1.002173662185669,0.3275544345378876, 0.000966879480984062
190,369581871,0.9978283,-0.015475431,-0.055448834,0.032012317,1.0837305784225464,-0.33918726444244385,9.753385543823242,-1.0573947429656982,0.20799434185028076, -0.08991338312625885
191,369598538,0.9978277,-0.015469809,-0.05545186,0.032026242,1.0798298120498657,-0.3368843197822571,9.763967514038086,-0.9734874367713928,0.2626006007194519, -0.06483854353427887
192,369615205,0.997827,-0.015468498,-0.05546387,0.032028243,1.0816500186920166,-0.3339642584323883,9.73762321472168,-1.0060667991638184,0.20196251571178436, -0.11346425116062164
193,369631872,0.9978264,-0.015471032,-0.05546347,0.032047227,1.0871131420135498,-0.33592480421066284,9.73715877532959,-1.0249048471450806,0.28680458664894104, -0.009323022328317165
194,369648539,0.99782646,-0.015480584,-0.05545509,0.032055438,1.069874882698059,-0.3432910740375519,9.743476867675781,-1.0719810724258423,0.34353673458099365, -0.0484464205801487
195,369665206,0.99782664,-0.0154814655,-0.055452026,0.032056585,1.080198049545288,-0.33827561140060425,9.729639053344727,-1.013481616973877,0.30497682094573975, -0.07606972008943558
196,369681873,0.99782646,-0.015477496,-0.05545497,0.032058585,1.0636042356491089,-0.34554487466812134,9.745443344116211,-0.9816195368766785,0.2626774311065674, -0.07695335894823074
197,369698540,0.99782616,-0.015489247,-0.0554555,0.03206171,1.079906702041626,-0.3520511984825134,9.731016159057617,-1.0911905765533447,0.2832700312137604, -0.08724966645240784
198,369715207,0.99782634,-0.015488437,-0.05545199,0.03206084,1.0674630403518677,-0.34360453486442566,9.766730308532715,-1.0026859045028687,0.3079990744590759, -0.09412665665149689
199,369731874,0.99782664,-0.01549235,-0.05544676,0.03205743,1.0727800130844116,-0.34515875577926636,9.754107475280762,-1.0300915241241455,0.3193071186542511, -0.059805650264024734
200,369748541,0.99782664,-0.015492327,-0.05544424,0.032060284,1.0825495719909668,-0.3337847590446472,9.73413372039795,-1.006604790687561,0.30069950222969055, -0.06716930121183395
201,369765208,0.997827,-0.015493891,-0.055441637,0.032057106,1.0699948072433472,-0.34758561849594116,9.776496887207031,-1.0168498754501343,0.30153191089630127, -0.08178134262561798
202,369781875,0.99782646,-0.015492324,-0.055449493,0.03205776,1.073881983757019,-0.3357170820236206,9.768271446228027,-0.998933732509613,0.22908641397953033, -0.08166609704494476
203,369798542,0.9978266,-0.015491993,-0.055448633,0.032056686,1.086226224899292,-0.34327858686447144,9.769373893737793,-1.006207823753357,0.28957080841064453, -0.0924106165766716
204,369815209,0.9978262,-0.015496668,-0.055450473,0.032062452,1.0904896259307861,-0.32703155279159546,9.753264427185059,-1.0378010272979736,0.2710784375667572, -0.036907900124788284
205,369831876,0.99782544,-0.015489658,-0.055456933,0.032079272,1.0848841667175293,-0.3441128730773926,9.759493827819824,-0.9599894881248474,0.2372824251651764, -0.015201136469841003
206,369848543,0.9978251,-0.015488887,-0.05545862,0.032088105,1.0719984769821167,-0.3420930802822113,9.757226943969727,-1.0028908252716064,0.27192363142967224, -0.05155836418271065
207,369865210,0.9978243,-0.01548624,-0.055460818,0.032109562,1.0751240253448486,-0.3382834196090698,9.749258041381836,-0.9885989427566528,0.26744139194488525, 0.00493684783577919
208,369881877,0.99782443,-0.015484901,-0.05546768,0.032094713,1.0877947807312012,-0.3366954028606415,9.751096725463867,-1.0000478029251099,0.2360786348581314, -0.13305796682834625
209,369898544,0.99782467,-0.015481573,-0.055460487,0.0321012,1.0668624639511108,-0.33687376976013184,9.733325004577637,-0.9828488826751709,0.3323439657688141, -0.05542587861418724
210,369915211,0.9978244,-0.015482523,-0.055457428,0.03211694,1.0818531513214111,-0.3316205143928528,9.740365028381348,-1.0148006677627563,0.30528414249420166, -0.0368182547390461
211,369931878,0.9978243,-0.015478798,-0.05546223,0.03211216,1.0749648809432983,-0.33906495571136475,9.749353408813477,-0.9859864711761475,0.2506394684314728, -0.12272325158119202
212,369948545,0.9978245,-0.015478101,-0.05545591,0.032116756,1.0656874179840088,-0.34390580654144287,9.729985237121582,-1.0020712614059448,0.32711896300315857, -0.06806574761867523
213,369965212,0.9978243,-0.015479559,-0.055456236,0.032122668,1.0758891105651855,-0.34426218271255493,9.734015464782715,-1.0145061016082764,0.28059351444244385, -0.029851598665118217
214,369981879,0.99782443,-0.015480813,-0.05544359,0.032136895,1.0917140245437622,-0.3446837067604065,9.74205207824707,-1.0062717199325562,0.3685603141784668, 0.03512141481041908
215,369998546,0.9978244,-0.0154794045,-0.05544461,0.032137044,1.089156985282898,-0.35136985778808594,9.74193000793457,-0.9978963136672974,0.2762777507305145, -0.07791382819414139
216,370015213,0.9978241,-0.0154833775,-0.055448946,0.032139357,1.0664937496185303,-0.33147871494293213,9.738429069519043,-1.0368916988372803,0.2552241384983063, -0.08212711662054062
217,370031880,0.99782383,-0.015487119,-0.055451427,0.032141812,1.0684270858764648,-0.3398691713809967,9.753375053405762,-1.0340360403060913,0.2675182521343231, -0.07367493957281113
218,370048547,0.9978229,-0.015492026,-0.055460043,0.03215369,1.0623337030410767,-0.33038464188575745,9.749466896057129,-1.0421936511993408,0.22511641681194305, -0.03003089129924774
219,370065214,0.9978225,-0.015493069,-0.05546292,0.03216087,1.0780445337295532,-0.327790230512619,9.760108947753906,-1.0152488946914673,0.26388123631477356, -0.053453702479600906
220,370081881,0.99782246,-0.015488548,-0.05546267,0.032160316,1.077860713005066,-0.34149450063705444,9.736791610717773,-0.9733465909957886,0.2831932306289673, -0.05402998998761177
221,370098548,0.9978222,-0.01549241,-0.055464294,0.032164324,1.065428376197815,-0.33139708638191223,9.742715835571289,-1.0344327688217163,0.2732042670249939, -0.06455680727958679
222,370115215,0.99782145,-0.015495373,-0.055468652,0.032180484,1.0742623805999756,-0.3290811777114868,9.735107421875,-1.0259935855865479,0.2531367242336273, 0.0027469622436910868
223,370131882,0.9978208,-0.015484908,-0.055469114,0.03220345,1.0800080299377441,-0.34798309206962585,9.73891830444336,-0.9378730058670044,0.278544545173645, -0.021719569340348244
224,370148549,0.9978207,-0.015487272,-0.05546946,0.032206554,1.0710422992706299,-0.3292415142059326,9.753133773803711,-1.0180920362472534,0.27968430519104004, -0.01506026927381754
225,370165216,0.9978208,-0.0154921925,-0.055467993,0.0322045,1.0632190704345703,-0.35242488980293274,9.737410545349121,-1.0445243120193481,0.2956409752368927, -0.11529555916786194
226,370181883,0.997821,-0.015485019,-0.055462584,0.03220889,1.0809201002120972,-0.3344517648220062,9.750616073608398,-0.9557634592056274,0.3184747099876404, -0.05372263491153717
227,370198550,0.9978204,-0.015486809,-0.055469375,0.032215245,1.073416829109192,-0.3396480083465576,9.729523658752441,-1.0238163471221924,0.23773066699504852, -0.07898956537246704
228,370215217,0.9978203,-0.015486256,-0.055465575,0.032223985,1.0677268505096436,-0.3353641927242279,9.759812355041504,-1.0048757791519165,0.309920072555542, -0.06620882451534271
229,370231884,0.9978198,-0.015473217,-0.05547282,0.03223265,1.0784891843795776,-0.34534960985183716,9.746959686279297,-0.9173955917358398,0.22981633245944977, -0.0343722403049469
230,370248551,0.99781877,-0.0154690035,-0.055483915,0.032246523,1.068241000175476,-0.3458506464958191,9.763723373413086,-0.976010262966156,0.20435731112957, 0.012415754608809948
231,370265218,0.9978192,-0.015472671,-0.0554759,0.03225033,1.0769203901290894,-0.3370392322540283,9.749917984008789,-1.0308983325958252,0.33913135528564453, -0.06449278444051743
232,370281885,0.9978188,-0.015466147,-0.055485558,0.0322458,1.0728352069854736,-0.34518980979919434,9.742422103881836,-0.967481255531311,0.21610073745250702, -0.12113525718450546
233,370298552,0.9978192,-0.015463725,-0.05547706,0.032250103,1.0777904987335205,-0.344661146402359,9.743077278137207,-0.9894058704376221,0.3412187993526459, -0.06919271498918533
234,370315219,0.9978193,-0.01545907,-0.055475976,0.032250468,1.0917879343032837,-0.3348039388656616,9.733283042907715,-0.9726166129112244,0.28875115513801575, -0.05692422389984131
235,370331886,0.9978193,-0.01545456,-0.055475138,0.03225343,1.081559419631958,-0.3300975561141968,9.738693237304688,-0.9763175845146179,0.2880851924419403, -0.07226622849702835
236,370348553,0.9978193,-0.015450632,-0.055474762,0.03225495,1.0736507177352905,-0.3409072756767273,9.741998672485352,-0.9781233072280884,0.2843201458454132, -0.05437576025724411
237,370365220,0.997819,-0.015449538,-0.055480186,0.032255325,1.074511170387268,-0.3417619466781616,9.743858337402344,-0.9985623359680176,0.24491505324840546, -0.056604065001010895
238,370381887,0.9978188,-0.015443274,-0.05547661,0.032270603,1.077034831047058,-0.3422684967517853,9.743913650512695,-0.970362663269043,0.30862662196159363, -0.09000302106142044
239,370398554,0.9978246,-0.015428358,-0.05541707,0.032203387,1.070798397064209,-0.3333257734775543,9.741412162780762,-0.9436743259429932,0.2702588140964508, -0.07635145634412766
240,370415221,0.9978247,-0.015425957,-0.055415682,0.032202717,1.0646995306015015,-0.34421589970588684,9.757204055786133,-0.9914675951004028,0.29059529304504395, -0.08701913803815842
241,370431888,0.9978246,-0.015420866,-0.05541407,0.03221075,1.0744199752807617,-0.33781740069389343,9.760125160217285,-0.9707725644111633,0.29082581400871277, -0.039225850254297256
242,370448555,0.9978253,-0.015408896,-0.055405483,0.03220924,1.0730150938034058,-0.34586265683174133,9.74648380279541,-0.9243111610412598,0.3380427956581116, -0.09407544136047363
243,370465222,0.9978251,-0.015398477,-0.055410083,0.032215763,1.0739907026290894,-0.332578182220459,9.744572639465332,-0.9344280362129211,0.2464902102947235, -0.03628038987517357
244,370481889,0.9978248,-0.015402196,-0.055412292,0.03221959,1.0721007585525513,-0.34601646661758423,9.760001182556152,-1.0347145795822144,0.26721087098121643, -0.0750708132982254
245,370498556,0.99782425,-0.015400874,-0.055418022,0.03222614,1.0728986263275146,-0.33906257152557373,9.750563621520996,-1.0006496906280518,0.24181587994098663, -0.06495380401611328
246,370515223,0.997824,-0.015392195,-0.055419605,0.03223477,1.0842760801315308,-0.345319926738739,9.717623710632324,-0.946069061756134,0.2676847279071808, -0.03087610751390457
247,370531890,0.9978233,-0.015395696,-0.05542686,0.0322414,1.0707411766052246,-0.34690558910369873,9.736454963684082,-1.0300787687301636,0.23113541305065155, -0.027239108458161354
248,370548557,0.99782294,-0.0153892785,-0.05543143,0.032245934,1.0619087219238281,-0.3408971428871155,9.748414039611816,-0.9685954451560974,0.24967895448207855, -0.10423087328672409
249,370565224,0.99782276,-0.015385251,-0.055431873,0.032254685,1.0710917711257935,-0.32808181643486023,9.736565589904785,-0.9768937826156616,0.2762649655342102, -0.022628819569945335
250,370581891,0.9978222,-0.015384985,-0.055437416,0.032261875,1.070953369140625,-0.33102157711982727,9.743230819702148,-1.004888653755188,0.24232815206050873, -0.03727927803993225
251,370598558,0.9978218,-0.01538512,-0.055435758,0.03227766,1.0657323598861694,-0.32999300956726074,9.762754440307617,-1.0060155391693115,0.29182469844818115, -0.004904831759631634
252,370615225,0.99782115,-0.015380178,-0.05543476,0.0323033,1.0745347738265991,-0.3313373029232025,9.743657112121582,-0.9707981944084167,0.28601062297821045, 0.03005010075867176
253,370631892,0.99782103,-0.015380815,-0.055439573,0.0322994,1.0727921724319458,-0.33061787486076355,9.752153396606445,-1.0135198831558228,0.24815502762794495, -0.09654706716537476
254,370648559,0.9978204,-0.015379381,-0.05544557,0.0323047,1.0822855234146118,-0.3409172296524048,9.754218101501465,-0.9966669678688049,0.2385246753692627, -0.03925146162509918
255,370665226,0.9978204,-0.015381066,-0.055451706,0.032295074,1.0888020992279053,-0.33487212657928467,9.753511428833008,-1.019474983215332,0.2388191968202591, -0.10273253917694092
256,370681893,0.99781996,-0.015372807,-0.055462826,0.032294374,1.066566824913025,-0.33689841628074646,9.767610549926758,-0.9522032737731934,0.2023082971572876, -0.07306022197008133
257,370698560,0.99781996,-0.015362471,-0.055463973,0.03229878,1.077595829963684,-0.3437046706676483,9.743367195129395,-0.9359392523765564,0.2705405354499817, -0.058460984379053116
258,370715227,0.9978189,-0.015366366,-0.055472936,0.032314483,1.0809072256088257,-0.34481537342071533,9.757429122924805,-1.0422959327697754,0.2219916582107544, -0.07673564553260803
259,370731894,0.9978189,-0.0153613975,-0.05546988,0.032321952,1.0717737674713135,-0.31692492961883545,9.747199058532715,-0.9713103175163269,0.30050739645957947, -0.041620634496212006
260,370748561,0.9978191,-0.015361464,-0.055462632,0.032327924,1.0778073072433472,-0.3472834825515747,9.74637508392334,-1.0014822483062744,0.32928329706192017, -0.012473385781049728
261,370765228,0.99781907,-0.015360863,-0.05545919,0.032331962,1.0678857564926147,-0.3368024528026581,9.76757526397705,-1.002583384513855,0.30443891882896423, -0.06350668519735336
262,370781895,0.99781835,-0.015361538,-0.055467952,0.032343283,1.069172739982605,-0.3518388867378235,9.748343467712402,-1.0137889385223389,0.220672607421875, -0.03703596070408821
263,370798562,0.99781805,-0.015356639,-0.05546823,0.0323502,1.0662668943405151,-0.3387164771556854,9.751769065856934,-0.9730648398399353,0.2775583863258362, -0.048587288707494736
264,370815229,0.9978178,-0.015358865,-0.05547123,0.032349434,1.0756165981292725,-0.33822259306907654,9.738626480102539,-1.0221004486083984,0.26018020510673523, -0.06842432171106339
265,370831896,0.9978182,-0.015359261,-0.055463467,0.03235556,1.0699273347854614,-0.3470767140388489,9.73984432220459,-1.0086408853530884,0.33446982502937317, -0.060113001614809036
266,370848563,0.9978178,-0.015358458,-0.05546534,0.03236169,1.078128695487976,-0.3355568051338196,9.75967788696289,-0.9974737167358398,0.2661735713481903, -0.015021847561001778
267,370865230,0.9978178,-0.015358022,-0.055462472,0.032366868,1.0751179456710815,-0.3316802382469177,9.756217956542969,-1.0041587352752686,0.3005202114582062, -0.06463364511728287
268,370881897,0.99781775,-0.015352002,-0.055463485,0.03236825,1.0764440298080444,-0.346762090921402,9.770659446716309,-0.9653170704841614,0.27214133739471436, -0.06791207939386368
269,370898564,0.99781847,-0.0153383175,-0.055455502,0.032368913,1.0639111995697021,-0.35205891728401184,9.736895561218262,-0.9155771732330322,0.3339831829071045, -0.1167810931801796
270,370915231,0.9978185,-0.015345483,-0.055460405,0.032354895,1.0889716148376465,-0.33464398980140686,9.732417106628418,-1.061044454574585,0.24956375360488892, -0.15522578358650208
271,370931898,0.99781865,-0.015346839,-0.055458814,0.032355085,1.0809866189956665,-0.3399854898452759,9.747052192687988,-1.0174901485443115,0.292375385761261, -0.08767227828502655
272,370948565,0.9978183,-0.015342245,-0.055462327,0.032362882,1.079598069190979,-0.33114802837371826,9.727986335754395,-0.9738332033157349,0.25469905138015747, -0.02836606279015541
273,370965232,0.9978182,-0.015340957,-0.055463403,0.032365344,1.0737553834915161,-0.33552461862564087,9.748175621032715,-0.9989720582962036,0.27317866683006287, -0.0738414078950882
274,370981899,0.99781823,-0.01533024,-0.05546358,0.032369617,1.0708884000778198,-0.34438201785087585,9.737506866455078,-0.9353373050689697,0.2776864767074585, -0.08183258026838303
275,370998566,0.9978181,-0.015331841,-0.055466834,0.032363467,1.0679181814193726,-0.3340846002101898,9.739456176757812,-1.0215753316879272,0.25937339663505554, -0.1223902776837349
276,371015233,0.9978181,-0.01533128,-0.055468913,0.03235986,1.0825421810150146,-0.33068928122520447,9.745922088623047,-0.9992409944534302,0.26477769017219543, -0.04790855199098587
277,371031900,0.9978177,-0.0153289335,-0.05547598,0.032364294,1.091052532196045,-0.32424989342689514,9.770033836364746,-0.9916467666625977,0.23122504353523254, -0.05391472950577736
278,371048567,0.9978175,-0.015324322,-0.055478632,0.03236419,1.0697568655014038,-0.3382823169231415,9.749714851379395,-0.9804669618606567,0.26276707649230957, -0.11844592541456223
279,371065234,0.99781704,-0.015324378,-0.055487905,0.032363467,1.0762518644332886,-0.33782002329826355,9.737931251525879,-1.00747549533844,0.2161903977394104, -0.059575144201517105
280,371081901,0.9978165,-0.015324463,-0.055496555,0.032365207,1.0755647420883179,-0.345670223236084,9.759398460388184,-1.0110740661621094,0.22160746157169342, -0.08482925593852997
281,371098568,0.9978166,-0.015320727,-0.05549627,0.032364026,1.0810116529464722,-0.3402031362056732,9.757113456726074,-0.9822085499763489,0.2820662558078766, -0.0891450047492981
282,371115235,0.9978168,-0.015327193,-0.055493016,0.032360308,1.0697107315063477,-0.3434675335884094,9.762785911560059,-1.0502487421035767,0.3043108582496643, -0.0822167620062828
283,371131902,0.9978168,-0.015330031,-0.055490807,0.032365367,1.0764695405960083,-0.3310081958770752,9.742490768432617,-1.0245976448059082,0.2961276173591614, -0.04530886933207512
284,371148569,0.9978171,-0.015320383,-0.055485126,0.032368857,1.0641659498214722,-0.3412970006465912,9.750089645385742,-0.9403958320617676,0.31789839267730713, -0.07519888132810593
285,371165236,0.9978173,-0.015306486,-0.055487994,0.03236591,1.0754319429397583,-0.33831551671028137,9.741148948669434,-0.911133348941803,0.2574268579483032, -0.08024459332227707
286,371181903,0.9978173,-0.015302915,-0.055488277,0.0323693,1.0825327634811401,-0.3293713927268982,9.748027801513672,-0.9828488826751709,0.27792978286743164, -0.06866764277219772
287,371198570,0.997818,-0.015296501,-0.055478256,0.032365516,1.0770193338394165,-0.34763720631599426,9.742698669433594,-0.961244523525238,0.3482750952243805, -0.09520240128040314
288,371215237,0.99781764,-0.015296485,-0.055482294,0.032370377,1.0674951076507568,-0.324165403842926,9.742883682250977,-1.009024977684021,0.25316232442855835, -0.0712929517030716
289,371231904,0.9978179,-0.015303735,-0.055481892,0.032360688,1.0700643062591553,-0.32762688398361206,9.745307922363281,-1.0598663091659546,0.28581851720809937, -0.13558082282543182
290,371248571,0.9978177,-0.01529053,-0.055483144,0.032369472,1.0797128677368164,-0.33759352564811707,9.730770111083984,-0.9156156778335571,0.26869645714759827, -0.04055771231651306
291,371265238,0.99781764,-0.015282615,-0.055483222,0.032375865,1.0754518508911133,-0.3525911569595337,9.75985050201416,-0.9514989256858826,0.2778785526752472, -0.04491186514496803
292,371281905,0.99781847,-0.015279927,-0.05547012,0.032371026,1.0738811492919922,-0.3418491780757904,9.755996704101562,-0.9862040877342224,0.37023794651031494, -0.09991513937711716
293,371298572,0.9978182,-0.0152700385,-0.055472102,0.032383036,1.0795879364013672,-0.3475412428379059,9.754006385803223,-0.9369765520095825,0.263906866312027, -0.014829752035439014
294,371315239,0.9978179,-0.015267196,-0.05547516,0.0323875,1.0758384466171265,-0.3368235230445862,9.743906021118164,-0.9858713150024414,0.2581440210342407, -0.04203043878078461
295,371331906,0.99781734,-0.0152733065,-0.055478144,0.032392967,1.0760358572006226,-0.32919740676879883,9.752832412719727,-1.0495444536209106,0.2612943649291992, -0.05563078820705414
296,371348573,0.99781704,-0.015272408,-0.055481836,0.032399315,1.0784931182861328,-0.33033400774002075,9.749470710754395,-1.002903699874878,0.25539064407348633, -0.06788646429777145
297,371365240,0.9978172,-0.015263487,-0.05548311,0.032395355,1.0766665935516357,-0.345095157623291,9.764734268188477,-0.9467350840568542,0.27001550793647766, -0.10058107227087021
298,371381907,0.99781656,-0.015263137,-0.055488545,0.03240625,1.0847973823547363,-0.33056557178497314,9.739287376403809,-1.0031086206436157,0.2421872764825821, -0.014945009723305702
299,371398574,0.9978168,-0.015259222,-0.055483732,0.032407477,1.0842676162719727,-0.3346377909183502,9.750167846679688,-0.9781746864318848,0.312494158744812, -0.06468488276004791
300,371415241,0.997817,-0.015256308,-0.055483747,0.032407414,1.079471468925476,-0.3308144509792328,9.761970520019531,-0.9861657619476318,0.2796458601951599, -0.07111366093158722
301,371431908,0.99781686,-0.015257123,-0.055480156,0.03241356,1.0815597772598267,-0.33388325572013855,9.762375831604004,-1.0109587907791138,0.30516886711120605, -0.04787013307213783
302,371448575,0.9978166,-0.015249585,-0.055484887,0.032417014,1.076770305633545,-0.3462923467159271,9.75206470489502,-0.9538297653198242,0.24560655653476715, -0.04566744342446327
303,371465242,0.997816,-0.015245196,-0.05548953,0.032431025,1.0720058679580688,-0.34690383076667786,9.767597198486328,-0.9779696464538574,0.24773243069648743, -0.031926229596138
304,371481909,0.9978154,-0.015250717,-0.055496056,0.0324358,1.0799452066421509,-0.3404373228549957,9.738288879394531,-1.0466500520706177,0.23698790371418, -0.06218763068318367
305,371498576,0.9978148,-0.015252045,-0.055500068,0.03244613,1.070191740989685,-0.34930163621902466,9.743547439575195,-1.019667148590088,0.25407156348228455, -0.0664009153842926
306,371515243,0.99781483,-0.015246025,-0.055504307,0.032441698,1.0789682865142822,-0.34721505641937256,9.736858367919922,-0.9687492251396179,0.2508699893951416, -0.11687075346708298
307,371531910,0.9978145,-0.015242969,-0.05550863,0.032447785,1.0796602964401245,-0.33638036251068115,9.761048316955566,-0.9853718876838684,0.2497430443763733, -0.04441242292523384
308,371548577,0.9978139,-0.015249109,-0.05551093,0.032458436,1.076121211051941,-0.3277493715286255,9.747049331665039,-1.0471111536026,0.2653411328792572, -0.016097581014037132
309,371565244,0.9978131,-0.015241362,-0.055515356,0.032476295,1.0759865045547485,-0.3518266975879669,9.727023124694824,-0.9583247303962708,0.24955090880393982, -0.0522242896258831
310,371581911,0.9978132,-0.015236003,-0.055509627,0.03248707,1.0668343305587769,-0.33323779702186584,9.753512382507324,-0.9681729078292847,0.3187052607536316, -0.03717683255672455
311,371598578,0.99781317,-0.015227119,-0.055514276,0.03248506,1.0697827339172363,-0.33550146222114563,9.735050201416016,-0.9462868571281433,0.24642620980739594, -0.08238324522972107
312,371615245,0.99781257,-0.015221623,-0.055522844,0.03249015,1.0778008699417114,-0.3291676938533783,9.75306224822998,-0.9669305682182312,0.21908462047576904, -0.02490834891796112
313,371631912,0.9978126,-0.015217623,-0.055524036,0.03248864,1.082559585571289,-0.34564009308815,9.751153945922852,-0.9792503118515015,0.2712576985359192, -0.07954023778438568
314,371648579,0.997812,-0.015216721,-0.055531494,0.03249657,1.0819249153137207,-0.34249240159988403,9.754019737243652,-1.002314567565918,0.22897112369537354, -0.05022650212049484
315,371665246,0.99781156,-0.015216911,-0.055530205,0.032511454,1.0763051509857178,-0.3333660066127777,9.735199928283691,-1.0048757791519165,0.2885846793651581, -0.0004866412782575935
316,371681913,0.9978118,-0.015218462,-0.05552201,0.03251978,1.0723923444747925,-0.3431723415851593,9.739036560058594,-1.0151336193084717,0.337159126996994, -0.04424593597650528
317,371698580,0.997812,-0.015215535,-0.055511836,0.03253289,1.066343903541565,-0.3474222421646118,9.736784934997559,-0.9806462526321411,0.34872329235076904, 0.0038867269176989794
318,371715247,0.99781173,-0.015220481,-0.055505093,0.032546546,1.076674461364746,-0.3410276174545288,9.755861282348633,-1.0355085134506226,0.32681164145469666, 0.004552657715976238
319,371731914,0.99781173,-0.015218973,-0.0555086,0.03254099,1.072990894317627,-0.32063907384872437,9.750052452087402,-0.9972559809684753,0.25609496235847473, -0.09928762167692184
320,371748581,0.9978119,-0.015219624,-0.055506244,0.032540668,1.0777440071105957,-0.34202349185943604,9.741040229797363,-1.0110869407653809,0.2969599962234497, -0.0818069577217102
321,371765248,0.9978124,-0.01521155,-0.05550152,0.032537974,1.0768020153045654,-0.3323463499546051,9.735342025756836,-0.9519855976104736,0.31181541085243225, -0.10734282433986664
322,371781915,0.9978121,-0.015218249,-0.055500306,0.032548036,1.0828754901885986,-0.3385065495967865,9.756741523742676,-1.0559604167938232,0.2913637161254883, -0.07143382728099823
323,371798582,0.99781257,-0.015214525,-0.055493396,0.032543026,1.0621395111083984,-0.3360191583633423,9.745716094970703,-0.9775726795196533,0.3265427052974701, -0.07687651365995407
324,371815249,0.9978127,-0.015212069,-0.055492844,0.032544054,1.0702636241912842,-0.3353712558746338,9.754454612731934,-0.9893032908439636,0.2835389971733093, -0.07115208357572556
325,371831916,0.99781275,-0.015213115,-0.055487517,0.032552045,1.0764769315719604,-0.3451819121837616,9.73701000213623,-1.0096269845962524,0.31637445092201233, -0.02145063504576683
326,371848583,0.9978127,-0.015214876,-0.055485718,0.03255493,1.080429196357727,-0.3328227400779724,9.759208679199219,-1.0185272693634033,0.2931949496269226, -0.07081910967826843
327,371865250,0.99781233,-0.015215651,-0.055484984,0.032567058,1.0867900848388672,-0.3456359803676605,9.729110717773438,-1.008448839187622,0.28457632660865784, -0.003944355994462967
328,371881917,0.9978124,-0.015218492,-0.05548682,0.032560036,1.069242000579834,-0.3480357229709625,9.77679443359375,-1.0201281309127808,0.266506552696228, -0.043426331132650375
329,371898584,0.997812,-0.015216473,-0.05549407,0.03255884,1.0770076513290405,-0.3423229157924652,9.75647258758545,-0.9925560355186462,0.2295473963022232, -0.0670156255364418
330,371915251,0.9978117,-0.015210377,-0.055491775,0.032575946,1.0689588785171509,-0.3440001904964447,9.753419876098633,-0.9587217569351196,0.2932334244251251, 0.028654204681515694
331,371931918,0.99781144,-0.015211136,-0.055494573,0.032577507,1.0754307508468628,-0.33941954374313354,9.745400428771973,-1.0118424892425537,0.26111507415771484, -0.06718210875988007
332,371948585,0.9978115,-0.015212753,-0.0554955,0.032577496,1.0761266946792603,-0.3431147038936615,9.748449325561523,-1.0171186923980713,0.2742031514644623, -0.07063982635736465
333,371965252,0.9978107,-0.015210071,-0.055503283,0.03258646,1.0639103651046753,-0.3338470160961151,9.747007369995117,-0.9904688000679016,0.22637146711349487, -0.053197577595710754
334,371981919,0.99781007,-0.015207743,-0.055510696,0.03259358,1.0812848806381226,-0.3375123143196106,9.729930877685547,-0.9944515228271484,0.22948339581489563, -0.07345722615718842
335,371998586,0.9978097,-0.015209005,-0.05551901,0.032590445,1.0885335206985474,-0.3395826816558838,9.724048614501953,-1.015748381614685,0.2230289727449417, -0.07633864879608154
336,372015253,0.99781,-0.015209699,-0.05551413,0.032590464,1.0826845169067383,-0.3293309211730957,9.735661506652832,-1.010318636894226,0.31418460607528687, -0.07774735987186432
337,372031920,0.9978097,-0.015209632,-0.05551458,0.032598577,1.071331262588501,-0.3338741958141327,9.755803108215332,-1.003607988357544,0.27652108669281006, -0.026073727756738663
338,372048587,0.99780947,-0.015210351,-0.05551567,0.032604467,1.0709552764892578,-0.3375431299209595,9.7521333694458,-1.0099215507507324,0.2724871039390564, -0.03945636376738548
339,372065254,0.9978087,-0.015212963,-0.055521373,0.032616086,1.073449730873108,-0.3323763906955719,9.761651992797852,-1.0232017040252686,0.24093225598335266, -0.013971726410090923
340,372081921,0.99780893,-0.015208961,-0.0555155,0.032620583,1.0761040449142456,-0.34085148572921753,9.748897552490234,-0.9747297167778015,0.31893572211265564, -0.036113906651735306
341,372098588,0.99780875,-0.015204635,-0.05551123,0.032633744,1.071558952331543,-0.33241671323776245,9.748697280883789,-0.9769324064254761,0.3091517388820648, -0.042734790593385696
342,372115255,0.9978092,-0.015197841,-0.05550801,0.03263059,1.0788286924362183,-0.32640114426612854,9.758355140686035,-0.9590291380882263,0.3009428083896637, -0.08902974426746368
343,372131922,0.99780905,-0.015193439,-0.055513356,0.03262865,1.0689475536346436,-0.3350215554237366,9.760297775268555,-0.978725254535675,0.24294283986091614, -0.09577867388725281
344,372148589,0.997809,-0.01519686,-0.055512257,0.03263018,1.0719506740570068,-0.349383682012558,9.755413055419922,-1.0281449556350708,0.2880852222442627, -0.055707622319459915
345,372165256,0.99780905,-0.015198211,-0.055507205,0.0326369,1.0846633911132812,-0.3258703947067261,9.733216285705566,-1.0133535861968994,0.31497853994369507, -0.04149257391691208
346,372181923,0.9978089,-0.015196597,-0.055508163,0.032641537,1.075966477394104,-0.327332079410553,9.760305404663086,-0.995360791683197,0.2732170820236206, -0.05767980217933655
347,372198590,0.99780923,-0.015198541,-0.055497855,0.032647163,1.077982783317566,-0.34362468123435974,9.744802474975586,-1.0192700624465942,0.35220661759376526, -0.07227903604507446
348,372215257,0.99780923,-0.015202349,-0.055496097,0.032648955,1.0758273601531982,-0.33473363518714905,9.76395034790039,-1.031935691833496,0.29316937923431396, -0.06637531518936157
349,372231924,0.9978093,-0.015188256,-0.055496372,0.03265288,1.0851331949234009,-0.34052741527557373,9.750992774963379,-0.9100192785263062,0.2753813564777374, -0.07225342839956284
350,372248591,0.9978085,-0.015190172,-0.05550483,0.032660194,1.0905953645706177,-0.3462769091129303,9.747880935668945,-1.0220746994018555,0.22268320620059967, -0.056347932666540146
351,372265258,0.99780816,-0.01518061,-0.055513747,0.032659307,1.0778096914291382,-0.33968257904052734,9.728202819824219,-0.9426882266998291,0.2168819159269333, -0.08289550244808197
352,372281925,0.9978083,-0.015176472,-0.055516083,0.032654937,1.0753347873687744,-0.32878902554512024,9.758020401000977,-0.9762665033340454,0.2627030611038208, -0.07270164787769318
353,372298592,0.997808,-0.015177878,-0.055522826,0.03265223,1.0802276134490967,-0.3383793532848358,9.73857593536377,-1.020192265510559,0.23502855002880096, -0.10966078191995621
354,372315259,0.9978078,-0.015178782,-0.055523243,0.032658428,1.0777006149291992,-0.3361176550388336,9.749341011047363,-1.010894775390625,0.27712300419807434, -0.037612248212099075
355,372331926,0.9978081,-0.015177372,-0.055520456,0.032654453,1.0816487073898315,-0.3375515043735504,9.752450942993164,-0.9974992871284485,0.29966217279434204, -0.10216904431581497
356,372348593,0.9978077,-0.015174849,-0.05552625,0.03265824,1.0712783336639404,-0.3277127146720886,9.7617769241333,-0.9895337820053101,0.23962600529193878, -0.05648880824446678
357,372365260,0.9978075,-0.015170737,-0.055527605,0.032663796,1.0743428468704224,-0.34189102053642273,9.768280029296875,-0.978904664516449,0.27028441429138184, -0.06213641166687012
358,372381927,0.9978064,-0.015173013,-0.05553894,0.03267253,1.0731322765350342,-0.33291319012641907,9.754830360412598,-1.0225870609283447,0.20216742157936096, -0.026944557204842567
359,372398594,0.9978061,-0.015467264,-0.055480983,0.03264453,1.0694209337234497,-0.34912148118019104,9.758895874023438,-1.0394401550292969,0.2894042730331421, -0.0952664315700531
360,372415261,0.9978057,-0.01546982,-0.05547912,0.032656983,1.0770601034164429,-0.3452969491481781,9.739397048950195,-1.0195133686065674,0.2929900586605072, -0.04780610278248787
361,372431928,0.99780625,-0.015464518,-0.0554739,0.0326513,1.062865972518921,-0.33584532141685486,9.746421813964844,-0.964702308177948,0.3142229914665222, -0.11471927165985107
362,372448595,0.9978059,-0.015470035,-0.055474486,0.032657985,1.0752745866775513,-0.333636999130249,9.740235328674316,-1.037941813468933,0.2759704291820526, -0.04890744760632515
363,372465262,0.99780613,-0.015467396,-0.05547397,0.0326572,1.0729517936706543,-0.3461408019065857,9.75346565246582,-0.9832969903945923,0.282296746969223, -0.08901693671941757
364,372481929,0.9978065,-0.015473145,-0.055462852,0.032660153,1.0780444145202637,-0.33947986364364624,9.758917808532715,-1.0355726480484009,0.3561253845691681, -0.04912515729665756
365,372498596,0.9978064,-0.015468623,-0.055467803,0.032657046,1.0726603269577026,-0.32994595170021057,9.761378288269043,-0.9660853147506714,0.2424049973487854, -0.047882936894893646
366,372515263,0.99780554,-0.015466496,-0.055481825,0.03265934,1.0659496784210205,-0.3305138051509857,9.766188621520996,-0.9917492270469666,0.1827273964881897, -0.0952664315700531
367,372531930,0.997805,-0.015473399,-0.05548784,0.032663014,1.0731068849563599,-0.3263241648674011,9.750697135925293,-1.0502614974975586,0.23929300904273987, -0.0718051940202713
368,372548597,0.9978053,-0.015476638,-0.055480156,0.032664176,1.0703482627868652,-0.332233190536499,9.737278938293457,-1.0210118293762207,0.3324848413467407, -0.07220220565795898
369,372565264,0.99780554,-0.01548175,-0.05547572,0.032665968,1.0735539197921753,-0.3416263461112976,9.738506317138672,-1.0350347757339478,0.3106500208377838, -0.07218940556049347
370,372581931,0.99780524,-0.015470332,-0.055479843,0.03267119,1.063307762145996,-0.34444019198417664,9.753856658935547,-0.9228896498680115,0.2478092908859253, -0.06167538836598396
371,372598598,0.99780494,-0.015463777,-0.055485073,0.03267538,1.0793746709823608,-0.3392527401447296,9.752561569213867,-0.9559427499771118,0.24109874665737152, -0.059357427060604095
372,372615265,0.9978049,-0.0154575715,-0.055487644,0.032674905,1.0835938453674316,-0.3483688235282898,9.754464149475098,-0.9594005346298218,0.2599624991416931, -0.08836381137371063
373,372631932,0.99780446,-0.015457408,-0.05549116,0.03268202,1.082948923110962,-0.3459489345550537,9.77412223815918,-0.9973968267440796,0.25367456674575806, -0.028878316283226013
374,372648599,0.99780405,-0.015455223,-0.055493828,0.03269123,1.0748270750045776,-0.32524073123931885,9.747710227966309,-0.9831306338310242,0.25909164547920227, -0.02100241370499134
375,372665266,0.99780416,-0.015453378,-0.055493023,0.032689486,1.0872538089752197,-0.32753607630729675,9.748830795288086,-0.985615074634552,0.2833084762096405, -0.06491539627313614
376,372681933,0.99780387,-0.015455313,-0.055492636,0.03269819,1.082948923110962,-0.3310893177986145,9.762984275817871,-1.0134304761886597,0.28183576464653015, -0.04246585816144943
377,372698600,0.99780375,-0.015447282,-0.055486828,0.03271518,1.0754902362823486,-0.3314655125141144,9.748579978942871,-0.9414972066879272,0.31627199053764343, 0.0037202443927526474
378,372715267,0.99780315,-0.015447118,-0.055496607,0.032717332,1.0880802869796753,-0.34122979640960693,9.76477336883545,-1.0000478029251099,0.21101661026477814, -0.056053388863801956
379,372731934,0.997803,-0.015445136,-0.055492803,0.032730266,1.0707708597183228,-0.34326812624931335,9.768729209899902,-0.9818883538246155,0.3032991588115692, 0.004642301704734564
380,372748601,0.9978026,-0.0154472245,-0.05549471,0.032736264,1.0688031911849976,-0.3502536118030548,9.762482643127441,-1.0146598815917969,0.2659430503845215, -0.04931725189089775
381,372765268,0.99780184,-0.015445323,-0.055500273,0.032753225,1.084121823310852,-0.33485713601112366,9.75194263458252,-0.9836941957473755,0.23856309056282043, 0.02689974009990692
382,372781935,0.9978017,-0.0154530965,-0.05549592,0.032759428,1.0744825601577759,-0.3434200584888458,9.762472152709961,-1.0502487421035767,0.30967676639556885, -0.029454607516527176
383,372798602,0.9978018,-0.015459346,-0.055487253,0.0327671,1.0770217180252075,-0.33359494805336,9.736218452453613,-1.038838267326355,0.33902886509895325, -0.024767478927969933
384,372815269,0.99780214,-0.015460038,-0.05548371,0.032763004,1.0774855613708496,-0.3369932472705841,9.736578941345215,-1.0021225214004517,0.3026588559150696, -0.06943602114915848
385,372831936,0.99780244,-0.015457877,-0.05547854,0.032763083,1.0753977298736572,-0.3295894265174866,9.745617866516113,-0.9861913919448853,0.3144919276237488, -0.09152697771787643
386,372848603,0.99780256,-0.015451924,-0.055477634,0.03276539,1.0842998027801514,-0.3437883257865906,9.72723388671875,-0.9576588869094849,0.28324443101882935, -0.055156953632831573
387,372865270,0.99780154,-0.0154535165,-0.055487346,0.032778487,1.0821083784103394,-0.33549627661705017,9.743169784545898,-1.0110357999801636,0.21158011257648468, -0.008874800056219101
388,372881937,0.99780107,-0.015447549,-0.055490453,0.032789927,1.0830039978027344,-0.34476929903030396,9.764183044433594,-0.9575051069259644,0.255262553691864, -0.015367618761956692
389,372898604,0.99780023,-0.015452448,-0.055500608,0.032794837,1.0742603540420532,-0.33881068229675293,9.767379760742188,-1.0387358665466309,0.210773304104805, -0.07954023033380508
390,372915271,0.9977999,-0.015450576,-0.05550645,0.03279945,1.0789214372634888,-0.3497354984283447,9.770574569702148,-0.9876512289047241,0.23793557286262512, -0.053197577595710754
391,372931938,0.9977992,-0.015454045,-0.055511184,0.032811042,1.072248101234436,-0.33385369181632996,9.743598937988281,-1.0237650871276855,0.24646461009979248, -0.02028525434434414
392,372948605,0.99779797,-0.015455822,-0.055528153,0.03281863,1.0770055055618286,-0.32813042402267456,9.721506118774414,-1.0195902585983276,0.1634410321712494, -0.080577552318573
393,372965272,0.99779797,-0.0154524725,-0.05553059,0.03281872,1.08677077293396,-0.345053493976593,9.764262199401855,-0.9770091772079468,0.2609741985797882, -0.06857800483703613
394,372981939,0.9977977,-0.015456164,-0.05553254,0.032816067,1.068652629852295,-0.3417699337005615,9.737457275390625,-1.0277351140975952,0.26672422885894775, -0.10027371346950531
395,372998606,0.99779713,-0.015443822,-0.055534728,0.03283674,1.0722373723983765,-0.34513741731643677,9.742483139038086,-0.9120810627937317,0.2598344683647156, 0.023659734055399895
396,373015273,0.99779713,-0.015447972,-0.055534054,0.03283932,1.0653797388076782,-0.3369271457195282,9.741069793701172,-1.0274021625518799,0.28405120968818665, -0.053389668464660645
397,373031940,0.99779624,-0.015453142,-0.05554527,0.03284206,1.0768502950668335,-0.3369312882423401,9.752822875976562,-1.037839412689209,0.20248758792877197, -0.06018984317779541
398,373048607,0.997796,-0.0154593075,-0.055545572,0.03284569,1.0730681419372559,-0.33524206280708313,9.755599021911621,-1.0442297458648682,0.2785061001777649, -0.07553185522556305
399,373065274,0.997796,-0.01545178,-0.05554886,0.03284512,1.0756456851959229,-0.3342705965042114,9.76087760925293,-0.9513196349143982,0.2551344931125641, -0.09910833090543747
400,373081941,0.9977952,-0.0154518,-0.055559292,0.032850362,1.0704491138458252,-0.33804774284362793,9.7507963180542,-1.002750039100647,0.20699544250965118, -0.0614064484834671
401,373098608,0.9977946,-0.015447251,-0.055565108,0.03286125,1.060172200202942,-0.33201783895492554,9.738191604614258,-0.9652786254882812,0.2359890192747116, 0.005730841308832169
402,373115275,0.9977944,-0.015447462,-0.055563215,0.03287118,1.0770924091339111,-0.3396866023540497,9.732951164245605,-0.9996892213821411,0.2912484109401703, -0.028929542750120163
403,373131942,0.99779403,-0.015449794,-0.055563036,0.032880213,1.0696769952774048,-0.33597907423973083,9.739983558654785,-1.0165551900863647,0.28058069944381714, -0.04785732924938202
404,373148609,0.99779433,-0.015446357,-0.055556256,0.032884628,1.0830026865005493,-0.3343893587589264,9.753924369812012,-0.9778543710708618,0.3254029452800751, -0.08666056394577026
405,373165276,0.9977942,-0.015433222,-0.055561095,0.032885812,1.0735290050506592,-0.3285236060619354,9.750941276550293,-0.9098014831542969,0.24194395542144775, -0.062469370663166046
406,373181943,0.997794,-0.015426813,-0.055569217,0.03288289,1.0855563879013062,-0.3479463756084442,9.77075481414795,-0.9636906385421753,0.22314423322677612, -0.1400374174118042
407,373198610,0.997794,-0.015431694,-0.0555644,0.03289022,1.0686614513397217,-0.3300623297691345,9.755236625671387,-1.0313721895217896,0.31243008375167847, -0.035755328834056854
408,373215277,0.9977932,-0.015439378,-0.055565912,0.032906994,1.0666707754135132,-0.32936087250709534,9.734917640686035,-1.0478795766830444,0.2682354152202606, 0.033174850046634674
409,373231944,0.9977926,-0.015444222,-0.055565342,0.03292359,1.0689406394958496,-0.3309851884841919,9.761269569396973,-1.0307445526123047,0.2827833890914917, 0.007856694981455803
410,373248611,0.9977922,-0.015450258,-0.055567075,0.03293045,1.070983648300171,-0.34145790338516235,9.751239776611328,-1.041860580444336,0.26795366406440735, -0.04794696718454361
411,373265278,0.9977919,-0.015448875,-0.055566553,0.03294059,1.0801222324371338,-0.35194769501686096,9.746478080749512,-0.9916597008705139,0.2821815013885498, -0.05132785066962242
412,373281945,0.9977918,-0.015450272,-0.05556772,0.03293776,1.0689306259155273,-0.3326141834259033,9.730193138122559,-1.0108051300048828,0.2711296081542969, -0.09161662310361862
413,373298612,0.9977924,-0.015447282,-0.055564303,0.032930695,1.0860223770141602,-0.34301602840423584,9.76414966583252,-0.9792887568473816,0.30162152647972107, -0.10528099536895752
414,373315279,0.9977919,-0.015449262,-0.05557076,0.032934833,1.0615638494491577,-0.3286762535572052,9.740625381469727,-1.0148135423660278,0.2344522476196289, -0.056642480194568634
415,373331946,0.9977914,-0.015455658,-0.05557694,0.03293377,1.0740915536880493,-0.32789739966392517,9.73968505859375,-1.0429874658584595,0.23665493726730347, -0.054657500237226486
416,373348613,0.99779123,-0.015464873,-0.055575803,0.032937378,1.0763890743255615,-0.3418405055999756,9.741476058959961,-1.061633586883545,0.2879059910774231, -0.047088947147130966
417,373365280,0.9977912,-0.015462717,-0.05557857,0.032935716,1.0854190587997437,-0.3318716287612915,9.752854347229004,-0.9880610704421997,0.2596167325973511, -0.10141348093748093
418,373381947,0.9977908,-0.015466527,-0.055577017,0.032945734,1.0763493776321411,-0.33445626497268677,9.736839294433594,-1.021677851676941,0.2887383699417114, -0.000806800031568855
419,373398614,0.9977908,-0.01546036,-0.05558138,0.03294309,1.0844017267227173,-0.3375203013420105,9.731405258178711,-0.9580045938491821,0.24690000712871552, -0.07846450060606003
420,373415281,0.9977914,-0.015461037,-0.05556862,0.032944955,1.076490879058838,-0.34409815073013306,9.743316650390625,-0.998997688293457,0.365627646446228, -0.04208166152238846
421,373431948,0.997791,-0.015470545,-0.055565145,0.032958873,1.079924464225769,-0.33290019631385803,9.736857414245605,-1.0675244331359863,0.3055402636528015, -0.05048263072967529
422,373448615,0.99779123,-0.015468088,-0.055562582,0.032957472,1.0726206302642822,-0.3337417244911194,9.730039596557617,-0.9818627834320068,0.29537203907966614, -0.07281690090894699
423,373465282,0.99779075,-0.015472252,-0.055568,0.032960836,1.0675386190414429,-0.3378148674964905,9.753613471984863,-1.0294127464294434,0.24207201600074768, -0.05759015306830406
424,373481949,0.9977907,-0.015467105,-0.055569027,0.032963414,1.0736702680587769,-0.3330429494380951,9.731768608093262,-0.9671483039855957,0.2709631323814392, -0.08640442788600922
425,373498616,0.9977899,-0.015468191,-0.0555816,0.032965627,1.0825693607330322,-0.33811888098716736,9.753439903259277,-1.0076931715011597,0.19132046401500702, -0.0432470366358757
426,373515283,0.9977899,-0.015472974,-0.0555846,0.032960325,1.072357416152954,-0.34015434980392456,9.755595207214355,-1.0355854034423828,0.2595398724079132, -0.10795752704143524
427,373531950,0.99779,-0.015474685,-0.05558703,0.032954186,1.09043550491333,-0.34059810638427734,9.739143371582031,-1.0100239515304565,0.2613711655139923, -0.07361089438199997
428,373548617,0.99778926,-0.015474097,-0.055589147,0.0329721,1.0766290426254272,-0.32461580634117126,9.742593765258789,-0.9953479170799255,0.26347145438194275, -0.002100241370499134
429,373565284,0.99779004,-0.015470613,-0.055580415,0.032964423,1.072263240814209,-0.32579827308654785,9.752782821655273,-0.9764456748962402,0.3386062979698181, -0.12373495101928711
430,373581951,0.99778956,-0.015480302,-0.05558518,0.032965932,1.074786901473999,-0.3336936831474304,9.743128776550293,-1.067460298538208,0.24775804579257965, -0.06300723552703857
431,373598618,0.997789,-0.015477137,-0.05558764,0.03298141,1.078747034072876,-0.33217522501945496,9.758167266845703,-0.9763688445091248,0.26000088453292847, 0.001056523877196014
432,373615285,0.99778825,-0.015472376,-0.05559783,0.03298621,1.0850692987442017,-0.34126022458076477,9.750757217407227,-0.9685570001602173,0.2068929672241211, -0.0491635762155056
433,373631952,0.9977872,-0.015469625,-0.055610284,0.032997828,1.0786490440368652,-0.3404201865196228,9.748390197753906,-0.9843728542327881,0.1923193633556366, -0.03940513730049133
434,373648619,0.99778676,-0.015472287,-0.05561672,0.033000764,1.0772285461425781,-0.33667856454849243,9.771029472351074,-1.0209863185882568,0.2351694256067276, -0.0736493244767189
435,373665286,0.99778664,-0.015479359,-0.05561674,0.03300047,1.0805383920669556,-0.3341735005378723,9.77061653137207,-1.0503511428833008,0.28050386905670166, -0.08900412172079086
436,373681953,0.9977865,-0.015488138,-0.05561925,0.032996826,1.06658136844635,-0.3441285192966461,9.754073143005371,-1.0627477169036865,0.2637147605419159, -0.09991514682769775
437,373698620,0.99778646,-0.015490995,-0.055615306,0.033004705,1.067989706993103,-0.3357580900192261,9.738218307495117,-1.017374873161316,0.3058348298072815, -0.03370630741119385
438,373715287,0.997786,-0.015490614,-0.055617254,0.033015773,1.0717962980270386,-0.34906521439552307,9.771105766296387,-1.0010467767715454,0.2659686505794525, -0.06471048295497894
439,373731954,0.9977861,-0.015484025,-0.05561729,0.033016328,1.0633130073547363,-0.3397142291069031,9.750656127929688,-0.9526259303092957,0.27608564496040344, -0.05561797320842743
440,373748621,0.99778587,-0.015479488,-0.055624146,0.03301237,1.0716699361801147,-0.3573307693004608,9.75279426574707,-0.9725781679153442,0.23081523180007935, -0.10895641893148422
441,373765288,0.997785,-0.015481201,-0.055635378,0.033020046,1.0708844661712646,-0.33365771174430847,9.749855041503906,-1.0148262977600098,0.2016039341688156, -0.05153274908661842
442,373781955,0.99778503,-0.015474388,-0.055631373,0.033028934,1.0954214334487915,-0.342293381690979,9.75507640838623,-0.9543803334236145,0.3050408363342285, -0.0650690570473671
443,373798622,0.9977852,-0.015467891,-0.055623006,0.0330421,1.0827773809432983,-0.3424682915210724,9.73801326751709,-0.9525106549263,0.33422648906707764, -0.02179640531539917
444,373815289,0.99778455,-0.015471874,-0.0556331,0.03304162,1.067934513092041,-0.34732261300086975,9.740334510803223,-1.0302963256835938,0.21001772582530975, -0.08224238455295563
445,373831956,0.99778444,-0.015466956,-0.055634327,0.033044096,1.0616129636764526,-0.34041208028793335,9.761932373046875,-0.9661237597465515,0.26877322793006897, -0.06627286225557327
446,373848623,0.9977848,-0.015461156,-0.05562703,0.033050418,1.069028377532959,-0.3497788608074188,9.738249778747559,-0.9573898911476135,0.32699087262153625, -0.04484783485531807
447,373865290,0.9977849,-0.015462324,-0.055622328,0.03305491,1.0761897563934326,-0.34583547711372375,9.752124786376953,-1.0077189207077026,0.3112519681453705, -0.06622163951396942
448,373881957,0.9977843,-0.015462803,-0.055633653,0.033050478,1.0735019445419312,-0.3265112340450287,9.767594337463379,-1.006335735321045,0.20060506463050842, -0.093934565782547
449,373898624,0.99778366,-0.015469722,-0.05563833,0.03305761,1.081220269203186,-0.3308638334274292,9.757525444030762,-1.0464708805084229,0.24701528251171112, -0.0296338964253664
450,373915291,0.99778384,-0.015470546,-0.055626694,0.033071216,1.0815820693969727,-0.34067302942276,9.76329517364502,-1.0018408298492432,0.3582640588283539, -0.017314186319708824
451,373931958,0.9977833,-0.015463392,-0.055632975,0.033084255,1.0805580615997314,-0.3471861481666565,9.74559211730957,-0.9518063068389893,0.2334021031856537, -0.027085429057478905
452,373948625,0.9977827,-0.015453135,-0.055643078,0.033089094,1.0784986019134521,-0.34047895669937134,9.763762474060059,-0.9342359304428101,0.20726436376571655, -0.08397123217582703
453,373965292,0.9977817,-0.015459275,-0.055651102,0.033103123,1.0638949871063232,-0.33983752131462097,9.76228141784668,-1.0403751134872437,0.2233363538980484, 0.007997565902769566
454,373981959,0.99778074,-0.01545544,-0.055660333,0.033118162,1.0658185482025146,-0.33287540078163147,9.748113632202148,-0.9702346920967102,0.21223321557044983, 0.024517755955457687
455,373998626,0.99778,-0.015449377,-0.05567026,0.03312505,1.071890115737915,-0.331010103225708,9.757780075073242,-0.959246814250946,0.20818640291690826, -0.04147976636886597
456,374015293,0.9977792,-0.015450926,-0.055680193,0.033132754,1.0787307024002075,-0.34171944856643677,9.772177696228027,-1.0123803615570068,0.21014578640460968, -0.045219216495752335
457,374031960,0.9977787,-0.015453325,-0.05568839,0.03313134,1.07662034034729,-0.33549249172210693,9.738947868347168,-1.0183992385864258,0.2224142700433731, -0.08015494048595428
458,374048627,0.99777895,-0.015445096,-0.05568494,0.03313305,1.0715112686157227,-0.35219985246658325,9.759096145629883,-0.941561222076416,0.2998030483722687, -0.062110792845487595
459,374065294,0.99777865,-0.015449596,-0.055684213,0.033141717,1.0716317892074585,-0.34715816378593445,9.741621017456055,-1.0269924402236938,0.28312915563583374, -0.011679391376674175
460,374081961,0.9977787,-0.015442908,-0.05568163,0.03314853,1.08441960811615,-0.3275687098503113,9.756696701049805,-0.9525746703147888,0.2942194640636444, -0.04655107483267784
461,374098628,0.9977788,-0.015446714,-0.055680968,0.033145614,1.0723472833633423,-0.34212806820869446,9.751529693603516,-1.0250457525253296,0.2833084464073181, -0.07480189204216003
462,374115295,0.9977786,-0.015444523,-0.05568309,0.033147577,1.087249517440796,-0.3447176218032837,9.741910934448242,-0.9860377311706543,0.2634074091911316, -0.07585200667381287
463,374131962,0.9977781,-0.015441353,-0.055692133,0.033148665,1.0823516845703125,-0.3338005542755127,9.731084823608398,-0.9819653034210205,0.21581900119781494, -0.08732650429010391
464,374148629,0.9977772,-0.015444269,-0.05569722,0.03316396,1.0658386945724487,-0.34246915578842163,9.73957347869873,-1.01777184009552,0.24282757937908173, 0.00884278491139412
465,374165296,0.99777687,-0.015441292,-0.055702932,0.03316539,1.0788439512252808,-0.33634477853775024,9.768135070800781,-0.9771372079849243,0.23711596429347992, -0.03930268436670303
466,374181963,0.99777687,-0.015439761,-0.055705734,0.033163264,1.0692440271377563,-0.325076162815094,9.743134498596191,-0.9917108416557312,0.2591429054737091, -0.09664952009916306
467,374198630,0.9977769,-0.015443709,-0.055705752,0.03315956,1.084267258644104,-0.32563287019729614,9.749028205871582,-1.0231504440307617,0.277763307094574, -0.0521218404173851
468,374215297,0.9977765,-0.015442671,-0.05571279,0.033162557,1.0725736618041992,-0.3499017655849457,9.758645057678223,-0.9939007759094238,0.22941933572292328, -0.0613039955496788
469,374231964,0.9977765,-0.015444258,-0.05571072,0.033164624,1.0708383321762085,-0.338127076625824,9.751973152160645,-1.0106898546218872,0.29284918308258057, -0.06868045032024384
470,374248631,0.9977765,-0.015448176,-0.05571183,0.03316114,1.076841950416565,-0.32750579714775085,9.75680160522461,-1.0293103456497192,0.27205169200897217, -0.105063296854496
471,374265298,0.99777603,-0.0154517675,-0.05571406,0.033168342,1.076762318611145,-0.3344886600971222,9.748941421508789,-1.0218058824539185,0.2625750005245209, -0.0176983755081892
472,374281965,0.9977765,-0.0154456105,-0.05570579,0.033172783,1.0813097953796387,-0.34021449089050293,9.741732597351074,-0.9576588869094849,0.3343546390533447, -0.07814434915781021
473,374298632,0.99777603,-0.015453843,-0.05570285,0.033187475,1.0753551721572876,-0.3333674669265747,9.742171287536621,-1.0512090921401978,0.29882973432540894, 0.01981782540678978
474,374315299,0.9977757,-0.015452991,-0.055704113,0.033197608,1.0785253047943115,-0.3393417298793793,9.739623069763184,-0.9920821189880371,0.26856833696365356, -0.0198882594704628
475,374331966,0.9977761,-0.015450605,-0.055693652,0.033203904,1.0841004848480225,-0.3323518931865692,9.746297836303711,-0.9791991114616394,0.34905627369880676, -0.037561021745204926
476,374348633,0.997776,-0.015448354,-0.055693824,0.033207197,1.0915093421936035,-0.34550991654396057,9.76805305480957,-0.9853973984718323,0.27680283784866333, -0.07243271172046661
477,374365300,0.99777555,-0.015451436,-0.0556977,0.033211,1.0714607238769531,-0.3353552520275116,9.740368843078613,-1.021101474761963,0.25194570422172546, -0.052493225783109665
478,374381967,0.9977753,-0.015443947,-0.055706415,0.03320824,1.0768622159957886,-0.3321782350540161,9.748169898986816,-0.9544955492019653,0.21776556968688965, -0.12378617376089096
479,374398634,0.99778414,-0.015423319,-0.05557674,0.033169467,1.0721607208251953,-0.3432256877422333,9.756994247436523,-1.0082310438156128,0.2458626925945282, -0.023179491981863976
480,374415301,0.9977839,-0.015419353,-0.055577308,0.033175696,1.0876528024673462,-0.332916259765625,9.749265670776367,-0.9704523682594299,0.2703612446784973, -0.028238000348210335
481,374431968,0.99778384,-0.015421274,-0.055578005,0.03317622,1.0890942811965942,-0.33487173914909363,9.73667049407959,-1.015044093132019,0.27203884720802307, -0.08407368510961533
482,374448635,0.9977837,-0.015418837,-0.055577278,0.033183683,1.0744202136993408,-0.33554938435554504,9.747079849243164,-0.9786868095397949,0.27905675768852234, -0.007017879281193018
483,374465302,0.9977839,-0.015408228,-0.055576812,0.033184346,1.0711427927017212,-0.32014355063438416,9.760581970214844,-0.9274102449417114,0.27682849764823914, -0.07554466277360916
484,374481969,0.9977834,-0.015406811,-0.055579778,0.033193838,1.0874453783035278,-0.33749112486839294,9.739715576171875,-0.9877025485038757,0.25418683886528015, -0.010052984580397606
485,374498636,0.9977833,-0.0154028535,-0.055586364,0.03318946,1.0872037410736084,-0.3264046311378479,9.757742881774902,-0.9781617522239685,0.2308664470911026, -0.1217883825302124
486,374515303,0.99778354,-0.015406867,-0.05557439,0.033198863,1.091988444328308,-0.34033727645874023,9.770577430725098,-1.0220108032226562,0.3583665192127228, -0.011845874600112438
487,374531970,0.99778324,-0.015402589,-0.0555743,0.03321022,1.0770618915557861,-0.33859309554100037,9.757240295410156,-0.9675197005271912,0.2746385335922241, -0.005468311253935099
488,374548637,0.9977827,-0.015402576,-0.055578195,0.03321912,1.0809521675109863,-0.34829849004745483,9.75511646270752,-0.9981396198272705,0.2483087033033371, -0.01618722453713417
489,374565304,0.9977823,-0.015406202,-0.05558304,0.033221964,1.0736956596374512,-0.3361583650112152,9.76462173461914,-1.0289901494979858,0.2443259209394455, -0.08634041249752045
490,374581971,0.997782,-0.015417158,-0.055585716,0.03322068,1.0843991041183472,-0.34009066224098206,9.769370079040527,-1.0763864517211914,0.2601289749145508, -0.07647951692342758
491,374598638,0.9977815,-0.015420787,-0.055592276,0.03322159,1.0827573537826538,-0.333158940076828,9.767457008361816,-1.0298609733581543,0.2327105700969696, -0.10029932856559753
492,374615305,0.99778146,-0.015422725,-0.055593956,0.03322001,1.06832754611969,-0.33767303824424744,9.748579978942871,-1.0129822492599487,0.2645471394062042, -0.06910306215286255
493,374631972,0.9977813,-0.015420093,-0.055599473,0.03321846,1.0798693895339966,-0.3548356294631958,9.754477500915527,-0.9827207922935486,0.2371928095817566, -0.07308582961559296
494,374648639,0.9977808,-0.015414999,-0.05559889,0.03323444,1.072413444519043,-0.3371097445487976,9.732002258300781,-0.9627429246902466,0.2781986892223358, 0.0009540729806758463
495,374665306,0.9977812,-0.015417332,-0.05559161,0.033232916,1.0836318731307983,-0.3465960621833801,9.751538276672363,-1.0181560516357422,0.32772085070610046, -0.10941745340824127
496,374681973,0.997781,-0.015412875,-0.05559429,0.033239834,1.069678544998169,-0.33780673146247864,9.755990982055664,-0.9671483039855957,0.255582720041275, -0.02360210008919239
497,374698640,0.99778056,-0.015402141,-0.05560272,0.03324329,1.0795339345932007,-0.333543986082077,9.760102272033691,-0.9268340468406677,0.2150634527206421, -0.05017527937889099
498,374715307,0.9977801,-0.015397087,-0.055608016,0.033250563,1.077317714691162,-0.3452503979206085,9.743912696838379,-0.9660597443580627,0.23816606402397156, -0.04450206086039543
499,374731974,0.99777997,-0.015394293,-0.055608537,0.03325396,1.0836344957351685,-0.33827975392341614,9.739950180053711,-0.9783795475959778,0.27089911699295044, -0.03777873516082764
500,374748641,0.99777985,-0.015397426,-0.055610064,0.033253398,1.066473364830017,-0.3372928500175476,9.753612518310547,-1.021780252456665,0.2660711109638214, -0.07285533100366592
501,374765308,0.9977796,-0.015394376,-0.055610586,0.03326219,1.0656050443649292,-0.3381009101867676,9.76341724395752,-0.9787509441375732,0.27142420411109924, -0.037906792014837265
502,374781975,0.99777967,-0.015394238,-0.055606004,0.033267234,1.0708072185516357,-0.34121641516685486,9.756989479064941,-0.9944514632225037,0.3062574565410614, -0.0227440744638443
503,374798642,0.9977798,-0.015401487,-0.05560007,0.033270095,1.0752114057540894,-0.3400495946407318,9.744097709655762,-1.0471879243850708,0.31789839267730713, -0.04908673092722893
504,374815309,0.99777985,-0.015400457,-0.055595722,0.033276115,1.0673919916152954,-0.33332645893096924,9.749255180358887,-0.9908657073974609,0.30518168210983276, -0.04176150634884834
505,374831976,0.99777997,-0.015391988,-0.055592727,0.033281963,1.0678880214691162,-0.33854004740715027,9.744704246520996,-0.9403445720672607,0.29427066445350647, -0.04754997417330742
506,374848643,0.9977801,-0.015385396,-0.055593118,0.03328155,1.0677664279937744,-0.31950628757476807,9.737312316894531,-0.953944981098175,0.2713344991207123, -0.06878290325403214
507,374865310,0.9977797,-0.0153882485,-0.055598386,0.033280108,1.0742120742797852,-0.3360830247402191,9.755669593811035,-1.022202730178833,0.24063770473003387, -0.08890166878700256
508,374881977,0.9977802,-0.015383815,-0.055590976,0.033280928,1.0676686763763428,-0.333797425031662,9.749722480773926,-0.9680448770523071,0.3258383572101593, -0.07335477322340012
509,374898644,0.9977801,-0.015370421,-0.05559364,0.033284426,1.0675138235092163,-0.33987295627593994,9.757719039916992,-0.9086232781410217,0.2544301450252533, -0.06608076393604279
510,374915311,0.9977798,-0.015369288,-0.0555981,0.03329016,1.0696154832839966,-0.3418594002723694,9.738765716552734,-0.9914419651031494,0.24430032074451447, -0.037010349333286285
511,374931978,0.99777937,-0.015370644,-0.055601336,0.033296656,1.0696011781692505,-0.33638080954551697,9.744709968566895,-1.0088841915130615,0.25332877039909363, -0.037855565547943115
512,374948645,0.9977793,-0.015362799,-0.055601142,0.033301074,1.0782943964004517,-0.3333735466003418,9.747396469116211,-0.9452750086784363,0.2750227451324463, -0.052237097173929214
513,374965312,0.9977786,-0.015366085,-0.055608567,0.033308312,1.071968674659729,-0.3400669991970062,9.745922088623047,-1.0287468433380127,0.22669801115989685, -0.0858793780207634
514,374981979,0.9977785,-0.015370029,-0.05560273,0.033320483,1.065140962600708,-0.32273775339126587,9.771353721618652,-1.0236115455627441,0.3161182999610901, -0.008810768835246563
515,374998646,0.99777824,-0.015373551,-0.055600375,0.033329602,1.0836408138275146,-0.32717040181159973,9.745909690856934,-1.0245592594146729,0.2929004728794098, -0.04701211303472519
516,375015313,0.99777836,-0.015377381,-0.05559885,0.033327345,1.0763002634048462,-0.3305482268333435,9.744297981262207,-1.0269795656204224,0.2873808741569519, -0.08941392600536346
517,375031980,0.99777806,-0.015375436,-0.055597827,0.033339012,1.0742833614349365,-0.32928556203842163,9.753887176513672,-0.9819396138191223,0.28077277541160583, 0.01200595311820507
518,375048647,0.9977777,-0.01538144,-0.05560008,0.0333428,1.0825707912445068,-0.33877289295196533,9.74178409576416,-1.0415403842926025,0.2614608108997345, -0.05702666938304901
519,375065314,0.9977769,-0.015386382,-0.05560552,0.03335597,1.072554349899292,-0.3324350118637085,9.752761840820312,-1.030770182609558,0.23794837296009064, 0.015476473607122898
520,375081981,0.9977771,-0.015391378,-0.05560053,0.033357926,1.0836626291275024,-0.3342362940311432,9.732624053955078,-1.0344840288162231,0.3114440143108368, -0.07335476577281952
521,375098648,0.9977767,-0.0153952595,-0.055602346,0.03336392,1.0786582231521606,-0.3318080008029938,9.750852584838867,-1.0234066247940063,0.2629079520702362, -0.016251258552074432
522,375115315,0.9977763,-0.015398944,-0.055604376,0.03336795,1.0810248851776123,-0.33884477615356445,9.738625526428223,-1.0251737833023071,0.26233166456222534, -0.05172484368085861
523,375131982,0.9977757,-0.015399137,-0.055617403,0.033367664,1.075143814086914,-0.34252578020095825,9.757299423217773,-1.0037745237350464,0.18586497008800507, -0.06837309896945953
524,375148649,0.99777526,-0.015400134,-0.055623554,0.033369415,1.0847831964492798,-0.34012213349342346,9.736740112304688,-1.0065534114837646,0.23299232125282288, -0.049791086465120316
525,375165316,0.9977754,-0.015393986,-0.055616774,0.0333803,1.0752872228622437,-0.3412916660308838,9.755002975463867,-0.9527667760848999,0.3198193609714508, -0.004033999517560005
526,375181983,0.99777526,-0.015392354,-0.055617947,0.033382125,1.0787421464920044,-0.3315165340900421,9.759645462036133,-0.9887526035308838,0.26712125539779663, -0.06132960319519043
527,375198650,0.997775,-0.015392267,-0.055621874,0.033382785,1.0786322355270386,-0.32603272795677185,9.756633758544922,-0.9989208579063416,0.24815502762794495, -0.0569114163517952
528,375215317,0.99777466,-0.015394779,-0.05562559,0.03338704,1.0644320249557495,-0.3388373851776123,9.732193946838379,-1.0194237232208252,0.2511388957500458, -0.06883412599563599
529,375231984,0.9977745,-0.015386616,-0.055625368,0.03339721,1.080681324005127,-0.3333319425582886,9.76091480255127,-0.9406007528305054,0.2743056118488312, -0.010590851306915283
530,375248651,0.9977743,-0.015382472,-0.055623226,0.033407383,1.0783658027648926,-0.34026268124580383,9.765661239624023,-0.9678911566734314,0.28846943378448486, -0.010565239936113358
531,375265318,0.9977743,-0.015377968,-0.055624574,0.033407073,1.079598307609558,-0.34663262963294983,9.754631042480469,-0.9698249697685242,0.2654436230659485, -0.07615936547517776
532,375281985,0.99777436,-0.015376716,-0.055623636,0.033406723,1.069313645362854,-0.3303571343421936,9.746657371520996,-0.9886245131492615,0.2810289263725281, -0.05116136744618416
533,375298652,0.99777335,-0.015377737,-0.05563226,0.03342265,1.064157247543335,-0.3441731631755829,9.732991218566895,-1.0087049007415771,0.2163952887058258, -0.012780736200511456
534,375315319,0.9977736,-0.015378829,-0.05562887,0.0334217,1.0727392435073853,-0.3347611725330353,9.730306625366211,-1.0062077045440674,0.29902184009552, -0.07072946429252625
535,375331986,0.99777305,-0.015371945,-0.055625863,0.033445332,1.072097897529602,-0.35243678092956543,9.74102783203125,-0.9425729513168335,0.29179906845092773, 0.09240420907735825
536,375348653,0.99777275,-0.015374486,-0.055623338,0.033455797,1.0849545001983643,-0.3318495452404022,9.769437789916992,-1.0113303661346436,0.2918119430541992, 0.01586066745221615
537,375365320,0.9977734,-0.015379125,-0.055615544,0.033449307,1.0644768476486206,-0.324717253446579,9.758077621459961,-1.0326015949249268,0.33110174536705017, -0.1168835461139679
538,375381987,0.99777305,-0.015380269,-0.055616975,0.033458,1.0706431865692139,-0.3309415578842163,9.745217323303223,-1.0056569576263428,0.26521310210227966, -0.019708970561623573
539,375398654,0.99777323,-0.015376665,-0.055616572,0.033451177,1.0702601671218872,-0.3330066502094269,9.745800018310547,-0.9785587787628174,0.2784932851791382, -0.12753842771053314
540,375415321,0.99777323,-0.015370789,-0.055619482,0.033447903,1.0702322721481323,-0.33702343702316284,9.74101734161377,-0.9615904092788696,0.2545326054096222, -0.09625253081321716
541,375431988,0.997773,-0.015372746,-0.055619147,0.033453856,1.064626693725586,-0.33797457814216614,9.747079849243164,-1.0095502138137817,0.27704617381095886, -0.016020745038986206
542,375448655,0.99777335,-0.015373889,-0.055616237,0.033450495,1.0750681161880493,-0.3268658220767975,9.73976993560791,-1.0077828168869019,0.29607638716697693, -0.08932428061962128
543,375465322,0.997773,-0.015374756,-0.055622812,0.03345015,1.0729793310165405,-0.33324986696243286,9.728805541992188,-1.0080004930496216,0.23062312602996826, -0.07633864879608154
544,375481989,0.99777263,-0.01536644,-0.05562786,0.03345561,1.0739177465438843,-0.3452634811401367,9.767630577087402,-0.9430723786354065,0.23857587575912476, -0.045270442962646484
545,375498656,0.9977728,-0.015364097,-0.055626675,0.033451103,1.0770474672317505,-0.3429969549179077,9.74488353729248,-0.9878945350646973,0.2844226062297821, -0.12675723433494568
546,375515323,0.99777186,-0.015358932,-0.05564387,0.033456653,1.0798124074935913,-0.3368743658065796,9.768455505371094,-0.9678142070770264,0.15593650937080383, -0.05182730033993721
547,375531990,0.9977719,-0.015362118,-0.055642065,0.033456083,1.083060383796692,-0.3419663906097412,9.75953483581543,-1.0215368270874023,0.2886230945587158, -0.07213816046714783
548,375548657,0.99777186,-0.015349426,-0.055641145,0.03346408,1.078072428703308,-0.3407531976699829,9.738275527954102,-0.9113254547119141,0.2785957455635071, -0.03853430226445198
549,375565324,0.9977717,-0.0153476475,-0.05564098,0.033469424,1.0830515623092651,-0.33996787667274475,9.730652809143066,-0.9856919050216675,0.27558624744415283, -0.036318812519311905
550,375581991,0.9977715,-0.015348685,-0.055634897,0.033484958,1.0676318407058716,-0.32963839173316956,9.747346878051758,-1.000982642173767,0.3161183297634125, 0.02438969351351261
551,375598658,0.9977707,-0.015351218,-0.05563915,0.033499826,1.0729856491088867,-0.3430377244949341,9.749504089355469,-1.0129438638687134,0.2450687438249588, 0.029499424621462822
552,375615325,0.9977711,-0.015350888,-0.055638447,0.033491287,1.0711809396743774,-0.3449564576148987,9.755767822265625,-1.0018664598464966,0.28163087368011475, -0.14184314012527466
553,375631992,0.997771,-0.015345762,-0.055633787,0.033502143,1.0782591104507446,-0.34071242809295654,9.740459442138672,-0.959810197353363,0.3051561117172241, -0.0012550222454592586
554,375648659,0.9977706,-0.015351621,-0.05563684,0.033504162,1.0641981363296509,-0.33896467089653015,9.736434936523438,-1.040976881980896,0.25582605600357056, -0.06319933384656906
555,375665326,0.9977701,-0.0153576825,-0.055642735,0.03351087,1.0635154247283936,-0.34065818786621094,9.745797157287598,-1.0422831773757935,0.23611705005168915, -0.03904655948281288
556,375681993,0.99776983,-0.015356288,-0.05564383,0.03351615,1.0752159357070923,-0.3515951633453369,9.753893852233887,-0.989982008934021,0.2673773765563965, -0.04874096438288689
557,375698660,0.9977695,-0.015359335,-0.055648576,0.033520706,1.0767525434494019,-0.33999308943748474,9.745635986328125,-1.0210374593734741,0.2431989461183548, -0.0469224639236927
558,375715327,0.997769,-0.015358301,-0.055653743,0.033526644,1.0744075775146484,-0.3398689031600952,9.73093032836914,-0.9930428266525269,0.23938271403312683, -0.04317020624876022
559,375731994,0.99776864,-0.015358838,-0.055654615,0.033531524,1.0826032161712646,-0.34126585721969604,9.751775741577148,-1.000841736793518,0.2685939371585846, -0.028122739866375923
560,375748661,0.9977692,-0.015351868,-0.05565335,0.033525255,1.0741159915924072,-0.3369690477848053,9.748069763183594,-0.9554560780525208,0.28379514813423157, -0.1300612837076187
561,375765328,0.99776846,-0.01535041,-0.055661436,0.033529095,1.0767607688903809,-0.33732515573501587,9.72652816772461,-0.9920694231987,0.21948161721229553, -0.06220043823122978
562,375781995,0.9977684,-0.015346416,-0.05565851,0.033538245,1.076271414756775,-0.33056962490081787,9.744426727294922,-0.9687876105308533,0.2937200665473938, -0.014432757161557674
563,375798662,0.9977683,-0.015354961,-0.05565924,0.033538856,1.074595332145691,-0.32431504130363464,9.760479927062988,-1.0574586391448975,0.271987646818161, -0.05583568289875984
564,375815329,0.9977682,-0.015360623,-0.055657733,0.03354169,1.0709443092346191,-0.33990412950515747,9.72999095916748,-1.0361745357513428,0.28643321990966797, -0.04035280644893646
565,375831996,0.99776894,-0.015365422,-0.05564377,0.03354055,1.0789389610290527,-0.3293583393096924,9.764298439025879,-1.029924988746643,0.37267112731933594, -0.0760953277349472
566,375848663,0.9977687,-0.015370208,-0.05564475,0.03354249,1.0697706937789917,-0.33403685688972473,9.741395950317383,-1.033370018005371,0.2698362171649933, -0.06460803747177124
567,375865330,0.9977681,-0.015364617,-0.05565057,0.03355219,1.0660258531570435,-0.3473685383796692,9.767486572265625,-0.9594517350196838,0.23304355144500732, -0.008324126712977886
568,375881997,0.99776804,-0.015366078,-0.055649057,0.033555444,1.0741240978240967,-0.3366529941558838,9.736998558044434,-1.0078340768814087,0.285639226436615, -0.045539382845163345
569,375898664,0.9977679,-0.01536765,-0.055648185,0.03356175,1.0688939094543457,-0.3362419009208679,9.754857063293457,-1.0086408853530884,0.2811698019504547, -0.03181097283959389
570,375915331,0.99776715,-0.0153712835,-0.055657275,0.033567578,1.0519952774047852,-0.3348882496356964,9.746357917785645,-1.0246232748031616,0.21284794807434082, -0.029544251039624214
571,375931998,0.997767,-0.015370548,-0.055657025,0.033572406,1.075417160987854,-0.33548012375831604,9.752266883850098,-0.9925304651260376,0.2761368751525879, -0.034756433218717575
572,375948665,0.9977665,-0.015374097,-0.05566274,0.03357627,1.080122470855713,-0.3385436236858368,9.77031421661377,-1.0268515348434448,0.2371928095817566, -0.06868045777082443
573,375965332,0.9977667,-0.015376487,-0.055655237,0.03358263,1.067525029182434,-0.31981974840164185,9.765497207641602,-1.0113558769226074,0.32651710510253906, -0.018466755747795105
574,375981999,0.997766,-0.015377442,-0.05566256,0.033588294,1.0837243795394897,-0.3459802567958832,9.76750373840332,-1.0055162906646729,0.22430963814258575, -0.029505830258131027
575,375998666,0.9977661,-0.015374764,-0.05566638,0.03358125,1.0870122909545898,-0.3526421785354614,9.766366958618164,-0.9843472242355347,0.2490258663892746, -0.11378441751003265
576,376015333,0.997766,-0.015369073,-0.055662762,0.033591967,1.081257700920105,-0.33037498593330383,9.75428581237793,-0.9545851945877075,0.29722896218299866, 0.011967534199357033
577,376032000,0.99776644,-0.015374268,-0.05565782,0.033586986,1.0820523500442505,-0.3344825208187103,9.740534782409668,-1.0364179611206055,0.311175137758255, -0.10417965799570084
578,376048667,0.9977665,-0.015377258,-0.055654243,0.03358712,1.0812426805496216,-0.34364140033721924,9.752571105957031,-1.0178102254867554,0.29999515414237976, -0.05240358039736748
579,376065334,0.9977667,-0.015381738,-0.055645242,0.03359461,1.0797017812728882,-0.333792120218277,9.778871536254883,-1.0237139463424683,0.3367493450641632, 0.0007235587108880281
580,376082001,0.9977662,-0.015378674,-0.05565238,0.033601575,1.0807926654815674,-0.33175960183143616,9.7322998046875,-0.9792887568473816,0.22521884739398956, -0.03944355994462967
581,376098668,0.9977661,-0.015377492,-0.055652548,0.033605028,1.062675952911377,-0.33333247900009155,9.738770484924316,-0.9905583262443542,0.27353721857070923, -0.0491635762155056
582,376115335,0.9977658,-0.015380857,-0.05565156,0.033613306,1.0880699157714844,-0.34137609601020813,9.75363540649414,-1.0194493532180786,0.2817588746547699, -0.011372038163244724
583,376132002,0.99776524,-0.015384641,-0.05565479,0.033622127,1.069062352180481,-0.3352310061454773,9.752937316894531,-1.0247385501861572,0.25332877039909363, -0.024985188618302345
584,376148669,0.99776465,-0.01538379,-0.055661075,0.033627845,1.0743905305862427,-0.33396944403648376,9.742945671081543,-0.9953479170799255,0.2318781465291977, -0.0525316447019577
585,376165336,0.99776477,-0.015386729,-0.05566051,0.03362684,1.083750605583191,-0.3370814919471741,9.745359420776367,-1.0209989547729492,0.28029894828796387, -0.08439382910728455
586,376182003,0.9977646,-0.01538764,-0.055664852,0.033625208,1.06598699092865,-0.33029720187187195,9.729948997497559,-1.0092811584472656,0.24623408913612366, -0.09527924656867981
587,376198670,0.9977645,-0.015394903,-0.055661883,0.033627078,1.0697498321533203,-0.33048486709594727,9.756156921386719,-1.0492498874664307,0.2974722683429718, -0.06427507102489471
588,376215337,0.9977639,-0.015391428,-0.055674225,0.03362789,1.068924069404602,-0.3543093502521515,9.733495712280273,-0.9795576930046082,0.18971964716911316, -0.07516045868396759
589,376232004,0.99776393,-0.015398706,-0.055675894,0.033619583,1.075581431388855,-0.3426198661327362,9.751157760620117,-1.0528355836868286,0.2662503719329834, -0.12118648737668991
590,376248671,0.99776393,-0.015387308,-0.055677768,0.033622097,1.0786361694335938,-0.33807244896888733,9.749603271484375,-0.921096682548523,0.2594374120235443, -0.05903726816177368
591,376265338,0.997764,-0.01538298,-0.05567503,0.033626426,1.0725651979446411,-0.3446423411369324,9.749173164367676,-0.9694150686264038,0.29311811923980713, -0.05673212558031082
592,376282005,0.99776375,-0.015389331,-0.05567414,0.03363094,1.0578142404556274,-0.3370954692363739,9.753338813781738,-1.0412201881408691,0.28221991658210754, -0.03523026779294014
593,376298672,0.99776363,-0.015384967,-0.055674683,0.033635158,1.071950078010559,-0.34353548288345337,9.751611709594727,-0.9685826301574707,0.2700154781341553, -0.045475345104932785
594,376315339,0.9977635,-0.015392532,-0.055671263,0.03364127,1.0749049186706543,-0.33647364377975464,9.741498947143555,-1.046458125114441,0.29906025528907776, -0.006608076859265566
595,376332006,0.9977626,-0.015390088,-0.05568733,0.033641506,1.074331521987915,-0.3294541537761688,9.75794506072998,-0.9858198761940002,0.1637611836194992, -0.06266146153211594
596,376348673,0.99776196,-0.015397776,-0.055693597,0.033649568,1.0938009023666382,-0.34412986040115356,9.74817180633545,-1.0510810613632202,0.23299232125282288, -0.014868170954287052
597,376365340,0.99776226,-0.015395102,-0.055689964,0.03364733,1.0712249279022217,-0.3407353460788727,9.733440399169922,-0.9797371029853821,0.2994316816329956, -0.07540379464626312
598,376382007,0.9977619,-0.015391884,-0.05568656,0.03366598,1.076666235923767,-0.331159770488739,9.752578735351562,-0.9699016809463501,0.29579463601112366, 0.05258927121758461
599,376398674,0.9977738,-0.015389769,-0.05553778,0.033559516,1.0748991966247559,-0.3414537012577057,9.737046241760254,-1.0120218992233276,0.32579994201660156, -0.01935039460659027
600,376415341,0.99777406,-0.015387039,-0.05553443,0.033559177,1.0699495077133179,-0.34201580286026,9.755951881408691,-0.9804925322532654,0.29580745100975037, -0.07450733333826065
601,376432008,0.99777395,-0.015387482,-0.055532806,0.03356704,1.0830045938491821,-0.34630751609802246,9.750669479370117,-1.0009058713912964,0.2840256094932556, -0.02866060845553875
602,376448675,0.9977735,-0.015383395,-0.05554133,0.033564966,1.0722393989562988,-0.3336823284626007,9.760337829589844,-0.9734235405921936,0.21362914144992828, -0.07631304115056992
603,376465342,0.99777365,-0.015382906,-0.05553791,0.03356592,1.0662009716033936,-0.34896788001060486,9.738211631774902,-0.9931835532188416,0.29598677158355713, -0.044988710433244705
604,376482009,0.99777395,-0.015376065,-0.055532735,0.03356969,1.0889358520507812,-0.34709081053733826,9.756070137023926,-0.9489248991012573,0.30653923749923706, -0.03503817319869995
605,376498676,0.9977743,-0.015370916,-0.055526894,0.033570316,1.0694540739059448,-0.32523325085639954,9.745216369628906,-0.9633960723876953,0.3124557435512543, -0.07103681564331055
606,376515343,0.9977739,-0.01537398,-0.055533294,0.033569425,1.0686734914779663,-0.3474438190460205,9.761641502380371,-1.022343635559082,0.2299700230360031, -0.0721125602722168
607,376532010,0.9977735,-0.015383849,-0.055535395,0.03357455,1.0668888092041016,-0.3416092097759247,9.747836112976074,-1.0659236907958984,0.2604363262653351, -0.027239104732871056
608,376548677,0.99777293,-0.015394276,-0.05554212,0.033575792,1.0697193145751953,-0.3429284989833832,9.749649047851562,-1.0703418254852295,0.22854851186275482, -0.037112802267074585
609,376565344,0.9977724,-0.015392177,-0.055550378,0.03357729,1.0660033226013184,-0.3365509510040283,9.746485710144043,-0.9856407046318054,0.21539638936519623, -0.05075155943632126
610,376582011,0.99777275,-0.015395263,-0.05554835,0.033570644,1.0783581733703613,-0.34330278635025024,9.750447273254395,-1.021203875541687,0.28822609782218933, -0.09623971581459045
611,376598678,0.9977719,-0.015400927,-0.05555675,0.033578344,1.0780231952667236,-0.33833473920822144,9.73261833190918,-1.0378010272979736,0.21584464609622955, -0.014624852687120438
612,376615345,0.9977723,-0.015398224,-0.05555409,0.033575304,1.0643161535263062,-0.3363562524318695,9.74994945526123,-0.981312096118927,0.29120996594429016, -0.08358703553676605
