PacketCounter,SampleTimeFine,Quat_W,Quat_X,Quat_Y,Quat_Z,Acc_X,Acc_Y,Acc_Z,Gyr_X,Gyr_Y,Gyr_Z 
1,1045735608,0.7106639,-0.21550077,-0.6404774,-0.19571629,0.032872967422008514,0.022193046286702156,-0.01872224546968937,-0.023705145344138145,-0.008748386055231094, -0.04884248599410057
2,1045752275,0.7105194,-0.2158558,-0.6405393,-0.19564757,9.836737632751465,-0.5325908660888672,0.8416998386383057,2.39081072807312,-0.18448826670646667, 3.383559226989746
3,1045768942,0.7104695,-0.21606606,-0.64059484,-0.19541495,9.871249198913574,-0.477848082780838,0.8419761657714844,2.382397413253784,-0.06628566980361938, 3.568828582763672
4,1045785609,0.7105849,-0.21562676,-0.640716,-0.19508295,9.98357105255127,-0.6154773831367493,0.8737676739692688,3.929839849472046,0.8803662061691284, 2.9723474979400635
5,1045802276,0.71134204,-0.21451437,-0.6404071,-0.19456364,9.992401123046875,-0.6196170449256897,0.9165514707565308,11.653188705444336,5.516703128814697, -0.2528358995914459
6,1045818943,0.7123783,-0.21301103,-0.64009386,-0.19345145,9.783299446105957,-0.5556103587150574,0.8951098918914795,12.251463890075684,5.845032215118408, -0.18439872562885284
7,1045835610,0.71308714,-0.21222442,-0.6397236,-0.19292822,9.710851669311523,-0.6349537372589111,0.9232177734375,10.883667945861816,4.322779178619385, 0.4840482473373413
8,1045852277,0.7136794,-0.2115521,-0.63954365,-0.19207151,9.748644828796387,-0.5111083984375,0.9127248525619507,8.944053649902344,2.2975046634674072, 1.241492748260498
9,1045868944,0.71404207,-0.21119912,-0.63945556,-0.19140397,9.764466285705566,-0.5131552815437317,0.8968056440353394,6.878502368927002,0.8523330688476562, 2.064889669418335
10,1045885611,0.71420044,-0.21126015,-0.63937354,-0.19101955,9.795721054077148,-0.4960055947303772,0.8936453461647034,5.582794189453125,-0.06316091865301132, 2.8416972160339355
11,1045902278,0.714608,-0.21098156,-0.63917595,-0.19046324,10.120710372924805,-0.5821467041969299,1.1178990602493286,5.566888332366943,2.1557505130767822, 2.7908430099487305
12,1045918945,0.7156824,-0.21064766,-0.6380232,-0.19066368,10.086800575256348,-0.5941281914710999,1.5074028968811035,4.140493392944336,10.15986442565918, 1.21143639087677
13,1045935612,0.7172406,-0.21178561,-0.635311,-0.19259496,10.069823265075684,-0.6804789900779724,1.8968323469161987,-13.511594772338867,18.90207290649414, 1.8328802585601807
14,1045952279,0.71929824,-0.21391997,-0.63124967,-0.19588818,9.74648380279541,-0.6904412508010864,1.1146687269210815,-26.202350616455078,26.380773544311523, 1.7045010328292847
15,1045968946,0.72126305,-0.21505456,-0.6279175,-0.1981176,9.507417678833008,-0.35461336374282837,0.4807654321193695,-15.274148941040039,23.021493911743164, 1.2335301637649536
16,1045985613,0.72252274,-0.21545526,-0.62598336,-0.19921067,9.511412620544434,-0.44420820474624634,0.7053398489952087,-5.932712554931641,14.578598022460938, 1.2745592594146729
17,1046002280,0.7231483,-0.21560605,-0.62514365,-0.19941448,9.583050727844238,-0.47178876399993896,0.883183479309082,-0.15972085297107697,6.632378578186035, 2.399916887283325
18,1046018947,0.7233383,-0.21550548,-0.62510824,-0.19894432,9.572863578796387,-0.7224413752555847,0.9665173292160034,4.3841962814331055,0.7169443964958191, 3.015838146209717
19,1046035614,0.7234085,-0.21465518,-0.6257799,-0.1974922,9.637731552124023,-0.7179168462753296,0.9681282043457031,13.361532211303711,-3.4421825408935547, 3.1979076862335205
20,1046052281,0.7235361,-0.21294409,-0.62691826,-0.19525377,9.692475318908691,-0.669273316860199,1.0486592054367065,21.66167640686035,-5.27494478225708, 2.5773398876190186
21,1046068948,0.7237406,-0.2106834,-0.6283098,-0.19245605,9.731693267822266,-0.6379360556602478,0.9748998284339905,27.039051055908203,-6.216053009033203, 2.607642650604248
22,1046085615,0.72374725,-0.20854259,-0.6299216,-0.18946955,9.767576217651367,-0.49890193343162537,1.017547845840454,26.472457885742188,-8.443852424621582, 3.354843854904175
23,1046102282,0.7235498,-0.206655,-0.63167596,-0.18642655,9.820503234863281,-0.49410831928253174,0.8896101117134094,25.887784957885742,-10.469707489013672, 4.448727130889893
24,1046118949,0.7231881,-0.20547207,-0.633215,-0.1838991,10.050848007202148,-0.22667357325553894,1.3961119651794434,21.63140869140625,-10.307211875915527, 5.371602535247803
25,1046135616,0.7236671,-0.20563832,-0.6326982,-0.18360783,10.449972152709961,-0.2909107804298401,2.1360580921173096,2.964062452316284,4.7112202644348145, 4.337761878967285
26,1046152283,0.72455126,-0.20707604,-0.6308591,-0.18482949,9.918009757995605,-0.2562963664531708,0.961087167263031,-10.344276428222656,12.677742958068848, 5.059852123260498
27,1046168950,0.72552574,-0.20781477,-0.62938184,-0.18521363,9.809319496154785,-0.39787572622299194,0.8203167915344238,-3.9392611980438232,11.194300651550293, 5.852601528167725
28,1046185617,0.72632605,-0.2083208,-0.6282924,-0.185207,9.823307037353516,-0.4794274866580963,0.8446312546730042,1.4050557613372803,8.314621925354004, 6.366762638092041
29,1046202284,0.72710073,-0.20824625,-0.6276472,-0.1844373,9.794554710388184,-0.5560358762741089,0.9833430051803589,6.220078945159912,5.952669143676758, 6.77385139465332
30,1046218951,0.7278494,-0.20864502,-0.62672573,-0.18416722,10.108851432800293,-0.5327296257019043,1.7582955360412598,2.425337791442871,7.335498809814453, 6.790882587432861
31,1046235618,0.728967,-0.20993894,-0.62470365,-0.18514395,9.902166366577148,-0.5610616207122803,1.4789531230926514,-9.328335762023926,14.831199645996094, 6.333689212799072
32,1046252285,0.7299412,-0.21133697,-0.6228016,-0.18611993,9.651611328125,-0.6662007570266724,1.0703282356262207,-9.444283485412598,13.308969497680664, 6.4850850105285645
33,1046268952,0.730628,-0.2125839,-0.62139803,-0.18669604,9.672224998474121,-0.7136209011077881,1.1174544095993042,-7.544429779052734,9.335930824279785, 6.58474063873291
34,1046285619,0.7310356,-0.21364805,-0.62050134,-0.18686867,9.665263175964355,-0.6828218698501587,1.0333549976348877,-5.327520370483398,5.360067367553711, 6.569909572601318
35,1046302286,0.7313173,-0.21451096,-0.61992085,-0.18670434,9.854649543762207,-0.6620151996612549,1.3583948612213135,-2.5206105709075928,3.085261583328247, 6.756830215454102
36,1046318953,0.73215985,-0.21523143,-0.6186529,-0.18677829,9.961628913879395,-0.6770402789115906,1.6161019802093506,-2.9785664081573486,9.443207740783691, 6.658581256866455
37,1046335620,0.73305655,-0.21590649,-0.61732,-0.18689208,9.656961441040039,-0.8293026685714722,1.2914835214614868,-2.7621779441833496,9.98845386505127, 6.448379039764404
38,1046352287,0.733703,-0.2164092,-0.61640614,-0.18678991,9.575998306274414,-0.812388002872467,1.1981713771820068,-0.7996799349784851,6.726044178009033, 5.79862117767334
39,1046368954,0.73403496,-0.21676068,-0.61597973,-0.18648486,9.581689834594727,-0.7931766510009766,1.218554973602295,0.4568089246749878,2.918727159500122, 4.923164367675781
40,1046385621,0.733996,-0.21717453,-0.61596674,-0.18619953,9.61905288696289,-0.8064508438110352,1.292346477508545,1.2443225383758545,-0.8609966039657593, 4.140824317932129
41,1046402288,0.7337147,-0.21741942,-0.61633736,-0.18579577,9.689509391784668,-0.8689742684364319,1.35922110080719,1.8772764205932617,-3.6944267749786377, 2.9799797534942627
42,1046418955,0.7332187,-0.2174795,-0.61704576,-0.18533146,9.649290084838867,-0.8990614414215088,1.4021646976470947,3.248798370361328,-6.176746368408203, 1.6886005401611328
43,1046435622,0.73246545,-0.21747983,-0.61807525,-0.18487856,9.587908744812012,-0.9156363606452942,1.3386917114257812,3.1242313385009766,-8.78201961517334, 0.4608941674232483
44,1046452289,0.7314359,-0.21740742,-0.61946326,-0.18439366,9.58086109161377,-0.9402773380279541,1.3175592422485352,4.5863213539123535,-11.813339233398438, -0.49556758999824524
45,1046468956,0.7301089,-0.21710254,-0.6213736,-0.18358299,9.610918045043945,-0.852785050868988,1.147164225578308,6.774969100952148,-15.858616828918457, -1.1447479724884033
46,1046485623,0.728483,-0.21649404,-0.6238637,-0.18231028,9.60267448425293,-0.8401044011116028,0.9958536028862,10.479384422302246,-20.323251724243164, -1.4080350399017334
47,1046502290,0.72662777,-0.21556333,-0.6268696,-0.18049699,9.675568580627441,-0.7384517788887024,0.9444373250007629,14.442995071411133,-24.223188400268555, -1.2037361860275269
48,1046518957,0.72476155,-0.21416527,-0.6301665,-0.17816913,9.709714889526367,-0.5996014475822449,1.0970399379730225,19.488065719604492,-25.880767822265625, -1.0809110403060913
49,1046535624,0.7228735,-0.21261641,-0.63354754,-0.17568663,9.79643440246582,-0.6932746767997742,1.056267499923706,21.335664749145508,-26.480785369873047, -1.0542614459991455
50,1046552291,0.7207818,-0.21158198,-0.6368497,-0.17357764,9.821930885314941,-0.6044409275054932,1.0825730562210083,16.379741668701172,-27.03383445739746, -0.8454140424728394
51,1046568958,0.71893483,-0.21024507,-0.6399843,-0.17131855,9.893068313598633,-0.6932910084724426,0.9991806149482727,19.38409996032715,-25.08041763305664, -0.8098124265670776
52,1046585625,0.7179226,-0.20845675,-0.6422392,-0.16929768,10.383337020874023,-0.5406295657157898,1.82737398147583,20.155580520629883,-16.1606388092041, -1.7804197072982788
53,1046602292,0.7189782,-0.20777212,-0.6407998,-0.17110412,10.742300987243652,-0.4732544422149658,2.7488343715667725,-3.097423553466797,15.18734073638916, -8.019625663757324
54,1046618959,0.7206803,-0.20903464,-0.63720614,-0.17576386,9.67849349975586,-0.5760766267776489,0.8189969062805176,-27.015596389770508,30.148656845092773, -9.658236503601074
55,1046635626,0.7215492,-0.20984124,-0.63505065,-0.17900866,9.360681533813477,-0.697821855545044,0.1487957239151001,-18.028284072875977,17.919872283935547, -7.704049587249756
56,1046652293,0.7215559,-0.21013153,-0.6343981,-0.18094529,9.492632865905762,-0.6292548179626465,0.372937947511673,-8.871232032775879,5.575177192687988, -6.686775207519531
57,1046668960,0.72104305,-0.21007483,-0.63467306,-0.18208732,9.651939392089844,-0.5298033356666565,0.5075290203094482,-3.6939666271209717,-1.8696889877319336, -6.298842430114746
58,1046685627,0.72018677,-0.20988727,-0.6354869,-0.18285166,9.731430053710938,-0.3685056269168854,0.6903637647628784,-1.3309003114700317,-6.331614971160889, -6.214283466339111
59,1046702294,0.71896213,-0.20988518,-0.6366881,-0.18349394,9.814977645874023,-0.4278723895549774,0.8955206274986267,-1.97836434841156,-10.207383155822754, -5.818965435028076
60,1046718961,0.71734154,-0.20990026,-0.63840586,-0.18385063,9.778136253356934,-0.4273061156272888,0.6166146397590637,-0.2323330193758011,-14.952606201171875, -5.515738487243652
61,1046735628,0.7156443,-0.20913377,-0.6406914,-0.1833877,9.925371170043945,-0.5982714295387268,0.7060177326202393,7.366523742675781,-18.20819854736328, -5.8601813316345215
62,1046752295,0.714373,-0.20869455,-0.6420682,-0.18402785,10.222380638122559,-0.5192156434059143,1.474708080291748,0.8973607420921326,-10.69653606414795, -7.974505424499512
63,1046768962,0.7132221,-0.20829466,-0.6430805,-0.18540503,9.89481258392334,-0.3622395098209381,0.8066419959068298,-3.1455745697021484,-7.433117389678955, -10.779751777648926
64,1046785629,0.71171147,-0.20786138,-0.6444067,-0.18708411,9.95151138305664,-0.3185598850250244,0.7301950454711914,-4.355456829071045,-10.088531494140625, -13.301009178161621
65,1046802296,0.7097687,-0.20726392,-0.6462505,-0.1887603,9.983874320983887,-0.5550898313522339,1.0150617361068726,-3.9539151191711426,-14.292099952697754, -15.339479446411133
66,1046818963,0.7072839,-0.20662616,-0.6486776,-0.1904542,10.036108016967773,-0.4564717710018158,1.1402419805526733,-3.667786121368408,-19.508792877197266, -17.15443992614746
67,1046835630,0.70410746,-0.2062951,-0.6516781,-0.19232969,10.089140892028809,-0.5753941535949707,1.030566692352295,-6.172465801239014,-25.576244354248047, -18.411142349243164
68,1046852297,0.700189,-0.20639363,-0.6552611,-0.19434603,10.229323387145996,-0.24328318238258362,0.8224570751190186,-9.32514476776123,-32.12383270263672, -19.030780792236328
69,1046868964,0.695684,-0.20710348,-0.6592006,-0.19643517,10.288226127624512,-0.07504188269376755,0.6805016994476318,-12.52065658569336,-37.231651306152344, -17.904123306274414
70,1046885631,0.6919564,-0.20699123,-0.66281873,-0.19754119,10.727673530578613,0.14792022109031677,1.0467520952224731,-3.9837284088134766,-32.46201705932617, -15.440802574157715
71,1046902298,0.68931097,-0.20737526,-0.6647135,-0.2000058,10.929976463317871,0.1471690833568573,1.545652151107788,-13.167280197143555,-18.145416259765625, -15.685860633850098
72,1046918965,0.6870703,-0.20987195,-0.6647277,-0.20500088,10.850140571594238,0.25296086072921753,1.505767583847046,-36.89727783203125,-6.810225009918213, -14.766152381896973
73,1046935632,0.6848756,-0.21285476,-0.66431916,-0.21051955,10.246149063110352,0.15633133053779602,0.3315558135509491,-41.96101760864258,-4.664618015289307, -14.310747146606445
74,1046952299,0.68222475,-0.21494426,-0.6649737,-0.21489194,10.055145263671875,0.1898774802684784,0.11859108507633209,-32.242767333984375,-12.129862785339355, -15.214299201965332
75,1046968966,0.67904115,-0.21636778,-0.66667104,-0.21826115,9.983747482299805,0.26077231764793396,0.061585716903209686,-24.005014419555664,-19.932296752929688, -15.876893997192383
76,1046985633,0.67557424,-0.21771893,-0.6687665,-0.22124502,10.019820213317871,0.3892576992511749,0.08672820776700974,-21.280303955078125,-23.53209114074707, -15.407206535339355
77,1047002300,0.67216307,-0.21887064,-0.67098635,-0.22376275,9.737019538879395,0.49374210834503174,-0.3677639961242676,-18.60552215576172,-24.23667335510254, -14.246644973754883
78,1047018967,0.6688109,-0.21980815,-0.67335993,-0.2257496,9.53303337097168,0.32181161642074585,-0.47119075059890747,-14.833827018737793,-25.09355354309082, -12.892709732055664
79,1047035634,0.665589,-0.22063158,-0.6757422,-0.227345,9.464254379272461,0.21516568958759308,-0.5724273920059204,-12.28182601928711,-24.893762588500977, -11.425091743469238
80,1047052301,0.6624744,-0.2210938,-0.6782696,-0.2284639,9.454155921936035,0.05312930420041084,-0.701005756855011,-8.023419380187988,-25.163423538208008, -10.981745719909668
81,1047068968,0.659304,-0.22115028,-0.68111616,-0.22911061,9.374092102050781,-0.006718555465340614,-0.7376010417938232,-3.5538878440856934,-26.899192810058594, -11.32111644744873
82,1047085635,0.65601057,-0.22073615,-0.68439656,-0.22918825,9.414523124694824,0.2263879030942917,-0.9717706441879272,1.743021011352539,-29.513439178466797, -11.831842422485352
83,1047102302,0.65242183,-0.22007202,-0.6881232,-0.22891185,9.436824798583984,0.584266722202301,-1.0134357213974,4.795032501220703,-32.991844177246094, -12.566311836242676
84,1047118969,0.6486888,-0.21942036,-0.69201976,-0.22839963,9.634637832641602,0.8391326069831848,-0.8837680220603943,5.906682014465332,-34.752864837646484, -11.915495872497559
85,1047135636,0.6450155,-0.21896237,-0.69577056,-0.2278462,9.688311576843262,0.715187668800354,-0.9534920454025269,5.105332851409912,-34.14828872680664, -10.45876407623291
86,1047152303,0.64157444,-0.2187984,-0.69917756,-0.22728898,9.739778518676758,0.606444239616394,-0.9290863871574402,3.6355888843536377,-31.946199417114258, -8.132075309753418
87,1047168970,0.63824856,-0.21934274,-0.7020727,-0.2272037,9.774630546569824,0.6630135178565979,-0.8832560777664185,-2.380016565322876,-29.511926651000977, -5.849895000457764
88,1047185637,0.6352953,-0.22000615,-0.7045578,-0.22714701,9.82214069366455,0.4664093255996704,-1.1053906679153442,-3.1148324012756348,-26.050949096679688, -4.187853813171387
89,1047202304,0.6328617,-0.22034784,-0.7067601,-0.22676675,9.728792190551758,0.5816053748130798,-1.1050056219100952,0.20452415943145752,-22.267669677734375, -3.1010375022888184
90,1047218971,0.63081414,-0.22055107,-0.7086949,-0.22623567,9.759087562561035,0.6107527613639832,-1.133903980255127,1.7095539569854736,-19.226877212524414, -2.107774257659912
91,1047235638,0.6289331,-0.22117914,-0.7101858,-0.22618386,9.799698829650879,0.6160649061203003,-1.1588598489761353,-2.9037656784057617,-16.41493797302246, -1.1799910068511963
92,1047252305,0.627323,-0.22183788,-0.71140313,-0.22618462,9.750910758972168,0.6177237629890442,-1.1558376550674438,-3.3045783042907715,-13.870681762695312, -0.41578400135040283
93,1047268972,0.6259016,-0.2224467,-0.71250594,-0.22605328,9.824383735656738,0.7169753909111023,-1.2296329736709595,-2.3322551250457764,-12.575252532958984, 0.3822377324104309
94,1047285639,0.6246651,-0.22313656,-0.7134235,-0.22589955,9.796832084655762,0.6860101819038391,-1.258837342262268,-2.5740773677825928,-11.026975631713867, 1.4585990905761719
95,1047302306,0.6236438,-0.2237589,-0.714219,-0.22559172,9.827995300292969,0.6470199823379517,-1.3377845287322998,-1.3861340284347534,-9.574311256408691, 2.3200695514678955
96,1047318973,0.62274957,-0.22443298,-0.71490556,-0.2252176,9.793313980102539,0.679104745388031,-1.2805544137954712,-1.2546640634536743,-8.657632827758789, 3.2291221618652344
97,1047335640,0.6220097,-0.22518906,-0.7153936,-0.22495733,9.758416175842285,0.656735897064209,-1.3869736194610596,-2.2326724529266357,-6.998006343841553, 3.69989013671875
98,1047352307,0.62142026,-0.2258501,-0.71579254,-0.22465457,9.694209098815918,0.6285883784294128,-1.397475242614746,-1.5208696126937866,-5.786384105682373, 3.7932608127593994
99,1047368974,0.6209373,-0.22646272,-0.71613497,-0.22428209,9.73728084564209,0.633179247379303,-1.450039267539978,-0.8917192220687866,-5.045741558074951, 4.111934661865234
100,1047385641,0.62062097,-0.22705728,-0.71632844,-0.22393821,9.746708869934082,0.750038206577301,-1.4848768711090088,-0.9255536198616028,-3.5063023567199707, 4.397541522979736
101,1047402308,0.6204884,-0.22764629,-0.71634805,-0.2236449,9.779508590698242,0.7148553729057312,-1.4508527517318726,-1.1303013563156128,-1.7589906454086304, 4.726651668548584
102,1047418975,0.6205212,-0.22821058,-0.7162491,-0.22329538,9.831473350524902,0.6860576868057251,-1.455578327178955,-0.6702844500541687,-0.4795338809490204, 5.300055980682373
103,1047435642,0.6207378,-0.2287106,-0.71603596,-0.22286527,9.85135269165039,0.6986367702484131,-1.4220623970031738,0.11452079564332962,0.8930574059486389, 5.802436351776123
104,1047452309,0.62111455,-0.2291736,-0.7157084,-0.22239156,9.839768409729004,0.7189000844955444,-1.4242092370986938,0.56492018699646,2.1640875339508057, 6.247443675994873
105,1047468976,0.6216109,-0.22963841,-0.7152858,-0.22188401,9.805586814880371,0.689196765422821,-1.3989553451538086,0.7673375606536865,3.107365608215332, 6.751183032989502
106,1047485643,0.62218285,-0.2301006,-0.7148071,-0.22134444,9.832576751708984,0.6050907373428345,-1.4087393283843994,0.9707278609275818,3.678515911102295, 7.096556663513184
107,1047502310,0.62284005,-0.23053944,-0.7142693,-0.2207747,9.825846672058105,0.5045483112335205,-1.347540020942688,1.263558030128479,4.34419059753418, 7.3458333015441895
108,1047518977,0.6235786,-0.23094976,-0.7136614,-0.22022569,9.810802459716797,0.5278520584106445,-1.3702759742736816,1.305934190750122,5.122560024261475, 7.357306480407715
109,1047535644,0.6243386,-0.23140366,-0.7129879,-0.2197769,9.781022071838379,0.4661104679107666,-1.3288514614105225,0.5615137815475464,5.607306480407715, 7.287191867828369
110,1047552311,0.62508696,-0.23188522,-0.7122881,-0.21941122,9.792207717895508,0.45685821771621704,-1.2953145503997803,-0.024191198870539665,5.7569098472595215, 7.095993518829346
111,1047568978,0.6257929,-0.23242863,-0.7115879,-0.21909541,9.794597625732422,0.4081861972808838,-1.2413743734359741,-0.6026926040649414,5.539254188537598, 7.128021717071533
112,1047585645,0.62646383,-0.23296918,-0.71091473,-0.21878958,9.799561500549316,0.4589039981365204,-1.233933448791504,-0.6556212306022644,5.270242214202881, 6.9792633056640625
113,1047602312,0.62709856,-0.23348606,-0.71027935,-0.21848303,9.813190460205078,0.4238848388195038,-1.2187843322753906,-0.5525556206703186,4.965259552001953, 6.761658191680908
114,1047618979,0.6277108,-0.23391587,-0.7097165,-0.21809441,9.843836784362793,0.39595526456832886,-1.1803216934204102,0.2971137762069702,4.541177272796631, 6.547970771789551
115,1047635646,0.62830144,-0.23428065,-0.7091884,-0.21771961,9.903596878051758,0.45105254650115967,-1.1588268280029297,0.5271286368370056,4.4033427238464355, 6.089939117431641
116,1047652313,0.62885326,-0.23470962,-0.708614,-0.2175349,9.915351867675781,0.41274261474609375,-1.117966651916504,-0.8105779886245728,4.620211124420166, 5.610564708709717
117,1047668980,0.6293563,-0.23517686,-0.7080235,-0.21749799,9.935955047607422,0.47974693775177,-1.1393502950668335,-1.7983448505401611,4.627978801727295, 5.121663570404053
118,1047685647,0.62980837,-0.23570588,-0.70742404,-0.21756701,9.931854248046875,0.44900742173194885,-1.1212003231048584,-2.676117420196533,4.493754863739014, 4.9181060791015625
119,1047702314,0.6302361,-0.23627055,-0.7068171,-0.21768896,9.904221534729004,0.3813014030456543,-1.1419724225997925,-3.1369540691375732,4.436048984527588, 4.8528571128845215
120,1047718981,0.6306741,-0.23676935,-0.70625436,-0.21770445,9.914471626281738,0.3121131956577301,-1.1860687732696533,-2.2541871070861816,4.218982219696045, 4.948457717895508
121,1047735648,0.63111204,-0.23717326,-0.70575786,-0.21760632,9.876533508300781,0.2948663830757141,-1.1315996646881104,-1.1931039094924927,3.8906402587890625, 4.87862491607666
122,1047752315,0.63152134,-0.2375379,-0.7053057,-0.21748692,9.868884086608887,0.3150045573711395,-1.108810305595398,-0.8975843191146851,3.583095073699951, 4.670610427856445
123,1047768982,0.6319027,-0.23784919,-0.7049049,-0.2173383,9.877856254577637,0.2747839689254761,-1.088169813156128,-0.4945300221443176,3.2571864128112793, 4.421398639678955
124,1047785649,0.63223463,-0.23815517,-0.70454496,-0.21720509,9.868607521057129,0.2566058933734894,-1.0782148838043213,-0.5707149505615234,2.8719329833984375, 4.194355010986328
125,1047802316,0.63256395,-0.23842493,-0.7041971,-0.21707812,9.871270179748535,0.19713664054870605,-1.0965590476989746,-0.4374777674674988,2.8690130710601807, 3.973816394805908
126,1047818983,0.6328579,-0.23868796,-0.70387346,-0.21698232,9.858162879943848,0.19883392751216888,-1.0934327840805054,-0.5741727352142334,2.654186725616455, 3.714155673980713
127,1047835650,0.63311577,-0.23896115,-0.70354944,-0.2169801,9.852303504943848,0.12023454904556274,-1.0821534395217896,-1.1297377347946167,2.6203901767730713, 3.3052866458892822
128,1047852317,0.63331246,-0.2392869,-0.70322007,-0.2171145,9.839019775390625,0.19668984413146973,-1.08515465259552,-2.127006769180298,2.493863821029663, 2.879847526550293
129,1047868984,0.63347036,-0.23963162,-0.7029012,-0.21730651,9.848538398742676,0.2933293879032135,-1.10860013961792,-2.5396530628204346,2.3284826278686523, 2.649371385574341
130,1047885651,0.6336053,-0.23991017,-0.7026431,-0.21744001,9.830382347106934,0.27695974707603455,-1.0654940605163574,-1.922143578529358,1.9578797817230225, 2.4609899520874023
131,1047902318,0.63372624,-0.24006213,-0.7024793,-0.21744934,9.9366455078125,0.2560160160064697,-1.0194939374923706,-0.6465669870376587,1.4640284776687622, 2.2219719886779785
132,1047918985,0.6338336,-0.24016473,-0.7023604,-0.21740721,9.965734481811523,0.25388768315315247,-0.99538654088974,-0.13538873195648193,1.1892808675765991, 2.1212759017944336
133,1047935652,0.63390964,-0.24029018,-0.70225775,-0.21737851,9.968652725219727,0.3127521872520447,-1.0242377519607544,-0.3294433057308197,0.9513132572174072, 2.107701301574707
134,1047952319,0.6339662,-0.24038027,-0.7021975,-0.21730839,9.922547340393066,0.2497445046901703,-1.0260294675827026,0.06352590024471283,0.654513418674469, 2.0295183658599854
135,1047968986,0.6340008,-0.24049081,-0.70214725,-0.2172477,9.950827598571777,0.33653202652931213,-1.0465312004089355,-0.08107700198888779,0.48836377263069153, 2.0444891452789307
136,1047985653,0.6340347,-0.24060445,-0.7020971,-0.21718521,9.885934829711914,0.34228187799453735,-1.048330545425415,-0.09841680526733398,0.47705572843551636, 2.081345558166504
137,1048002320,0.63407445,-0.24069569,-0.70206124,-0.21708371,9.90890121459961,0.27227216958999634,-1.003329873085022,0.21397490799427032,0.41269105672836304, 2.143200159072876
138,1048018987,0.6341254,-0.24064362,-0.7021161,-0.21681485,9.98456859588623,0.2683216333389282,-0.9716604351997375,1.7760552167892456,0.00555155286565423, 2.059574604034424
139,1048035654,0.6341836,-0.24053647,-0.7022068,-0.21647003,9.960936546325684,0.24177391827106476,-0.994138240814209,2.4787392616271973,-0.1646384298801422, 2.082472324371338
140,1048052321,0.63423073,-0.2404387,-0.7022904,-0.21616903,9.962031364440918,0.2644769251346588,-1.0181353092193604,2.183924674987793,-0.13090650737285614, 1.9416409730911255
141,1048068988,0.6342614,-0.24040346,-0.7023436,-0.21594481,9.915221214294434,0.330971360206604,-1.0617097616195679,1.47525954246521,-0.046038828790187836, 1.9431520700454712
142,1048085655,0.6342776,-0.24042596,-0.70236194,-0.21581244,9.877375602722168,0.256045937538147,-1.074823021888733,0.718288779258728,0.10353291779756546, 1.8703222274780273
143,1048102322,0.63428646,-0.24046233,-0.7023631,-0.21574202,9.887868881225586,0.25030553340911865,-1.1122841835021973,0.33945149183273315,0.22675561904907227, 1.6919939517974854
144,1048118989,0.6342999,-0.24052204,-0.7023148,-0.21579345,9.905381202697754,0.24790135025978088,-1.103531002998352,-0.43600502610206604,0.6356880068778992, 1.3726806640625
145,1048135656,0.6343001,-0.24062206,-0.7022402,-0.21592401,9.890263557434082,0.24109004437923431,-1.1097172498703003,-1.0589314699172974,0.7617793083190918, 1.2552337646484375
146,1048152323,0.634324,-0.24073108,-0.7021279,-0.21609803,9.8760986328125,0.2707502543926239,-1.1080437898635864,-1.3159677982330322,1.1029404401779175, 1.2141509056091309
147,1048168990,0.63436913,-0.2408018,-0.7020102,-0.21626863,9.893525123596191,0.3475264310836792,-1.0970066785812378,-1.119480013847351,1.2838174104690552, 1.0957560539245605
148,1048185657,0.63444376,-0.24086277,-0.70186013,-0.21646869,9.880812644958496,0.2771005630493164,-1.0827093124389648,-1.239091157913208,1.6338276863098145, 1.0342087745666504
149,1048202324,0.6345359,-0.24086188,-0.70173305,-0.2166117,9.856730461120605,0.23449479043483734,-1.07686185836792,-0.6276648044586182,1.6181271076202393, 0.9826119542121887
150,1048218991,0.63464296,-0.24080999,-0.70160955,-0.21675584,9.860515594482422,0.1958596557378769,-1.0757492780685425,-0.3412763774394989,1.7557313442230225, 0.7515085339546204
151,1048235658,0.6347449,-0.24072619,-0.7015001,-0.21690463,9.842510223388672,0.21436730027198792,-1.0810168981552124,-0.22073021531105042,1.726481318473816, 0.5514093041419983
152,1048252325,0.6348783,-0.24059415,-0.70137596,-0.21706213,9.840282440185547,0.18196500837802887,-1.0893670320510864,-0.03684386610984802,2.032912015914917, 0.3591732382774353
153,1048268992,0.63501525,-0.24042897,-0.70125765,-0.21722685,9.822380065917969,0.2431669682264328,-1.057285189628601,0.03791320323944092,2.090233325958252, 0.171112060546875
154,1048285659,0.63513774,-0.24026951,-0.7011393,-0.21742705,9.845611572265625,0.2983227074146271,-1.0313444137573242,-0.12930570542812347,2.0733799934387207, 0.02442811243236065
155,1048302326,0.63520175,-0.240061,-0.7010966,-0.21760765,9.883996963500977,0.2850002348423004,-0.9840149879455566,0.20202656090259552,1.5032925605773926, -0.3294561207294464
156,1048318993,0.63520896,-0.23979811,-0.70111936,-0.21780327,9.911646842956543,0.28322234749794006,-0.9856604933738708,0.35901960730552673,1.0482574701309204, -0.839955747127533
157,1048335660,0.6351586,-0.2395031,-0.7012062,-0.21799488,9.909980773925781,0.30997034907341003,-0.9804999232292175,0.5010548233985901,0.5311625003814697, -1.1591665744781494
158,1048352327,0.63502926,-0.23918869,-0.7013644,-0.2182081,9.91024112701416,0.3197958469390869,-0.9778484106063843,0.4573083221912384,-0.09830154478549957, -1.573272943496704
159,1048368994,0.6348145,-0.23888406,-0.7015873,-0.21844994,9.894037246704102,0.37756675481796265,-0.9815410375595093,0.19753152132034302,-0.7627461552619934, -1.8730182647705078
160,1048385661,0.6345271,-0.23856683,-0.7018696,-0.21872464,9.90871810913086,0.3961943984031677,-0.9713487029075623,0.14323261380195618,-1.3005744218826294, -2.27827525138855
161,1048402328,0.6341691,-0.2382296,-0.7022006,-0.21906795,9.946676254272461,0.5070077776908875,-0.9560990333557129,-0.16865961253643036,-1.713963270187378, -2.8450071811676025
162,1048418995,0.6337088,-0.23796633,-0.7025462,-0.21957707,9.942243576049805,0.504089891910553,-0.9541911482810974,-1.3972752094268799,-2.1153526306152344, -3.3736917972564697
163,1048435662,0.6331426,-0.2377883,-0.7029157,-0.22021987,10.00039005279541,0.5097364783287048,-0.9529129862785339,-2.55403470993042,-2.6461119651794434, -3.7251241207122803
164,1048452329,0.6325162,-0.2376675,-0.70333064,-0.22082506,9.94376277923584,0.2741698920726776,-0.9666116833686829,-2.5962955951690674,-3.287992000579834, -3.4381721019744873
165,1048468996,0.6319235,-0.23747349,-0.70380676,-0.22121324,9.934004783630371,0.205824613571167,-1.0326764583587646,-1.0617873668670654,-3.63969349861145, -2.897783041000366
166,1048485663,0.6313361,-0.23718613,-0.7043462,-0.22148193,9.945001602172852,0.31771090626716614,-1.0271985530853271,-0.08010371029376984,-3.944931983947754, -2.9193098545074463
167,1048502330,0.63074857,-0.23686363,-0.70490843,-0.22171175,9.916858673095703,0.38032349944114685,-1.0712779760360718,0.32244470715522766,-4.0569748878479, -2.9586637020111084
168,1048518997,0.6301364,-0.2365308,-0.7054931,-0.2219478,9.939032554626465,0.4381515383720398,-1.078233003616333,0.35040104389190674,-4.247649669647217, -3.105950117111206
169,1048535664,0.629525,-0.23623121,-0.70606303,-0.2221896,9.921953201293945,0.4905012845993042,-1.1194655895233154,0.13762345910072327,-4.222138404846191, -2.934741735458374
170,1048552331,0.62893003,-0.23596385,-0.70660144,-0.22244668,9.9169282913208,0.523362398147583,-1.1473287343978882,-0.10877712070941925,-4.029735088348389, -2.7569892406463623
171,1048568998,0.62836313,-0.23569664,-0.7071054,-0.22273116,9.871504783630371,0.46657654643058777,-1.1578497886657715,-0.18348939716815948,-3.697718858718872, -2.7707695960998535
172,1048585665,0.62785405,-0.23539403,-0.7075904,-0.2229458,9.871125221252441,0.44242003560066223,-1.2081941366195679,0.2946164906024933,-3.392709255218506, -2.5073294639587402
173,1048602332,0.62740225,-0.23507012,-0.7080445,-0.22311823,9.841175079345703,0.4910622239112854,-1.200993299484253,0.6577919125556946,-3.0116183757781982, -2.2878804206848145
174,1048618999,0.6270048,-0.23472832,-0.7084677,-0.2232517,9.88452434539795,0.5276389718055725,-1.2217789888381958,0.9477659463882446,-2.6457021236419678, -2.064998149871826
175,1048635666,0.6266716,-0.23433842,-0.70886374,-0.22333969,9.896417617797852,0.5002688765525818,-1.2150174379348755,1.4556400775909424,-2.2105422019958496, -1.9539543390274048
176,1048652333,0.6263866,-0.23398265,-0.7091985,-0.22344919,9.914125442504883,0.6075541377067566,-1.217162847518921,1.1457520723342896,-1.7281272411346436, -1.6976350545883179
177,1048669000,0.6261247,-0.23368336,-0.70946366,-0.2236545,9.907889366149902,0.6337680816650391,-1.2050906419754028,0.4120635390281677,-1.2455841302871704, -1.6805773973464966
178,1048685667,0.6258853,-0.2334483,-0.7096783,-0.22388916,9.896836280822754,0.6362494230270386,-1.2280032634735107,-0.043720878660678864,-0.9675710201263428, -1.3653874397277832
179,1048702334,0.6257033,-0.23324685,-0.709826,-0.22413965,9.882257461547852,0.6045852303504944,-1.2480453252792358,-0.2717507481575012,-0.422980934381485, -1.0619536638259888
180,1048719001,0.62556523,-0.2330548,-0.7099283,-0.22440064,9.846728324890137,0.5565086007118225,-1.2684216499328613,-0.3810657262802124,-0.008529028855264187, -0.9093660712242126
181,1048735668,0.6254522,-0.23285998,-0.7100176,-0.22463454,9.792746543884277,0.5407583713531494,-1.283672571182251,-0.18232400715351105,0.13588178157806396, -0.7443050146102905
182,1048752335,0.625383,-0.23265637,-0.7100772,-0.22484995,9.780848503112793,0.5204347372055054,-1.2691279649734497,-0.016059163957834244,0.4669643044471741, -0.5888999700546265
183,1048769002,0.6253237,-0.2324489,-0.7101367,-0.22504123,9.784929275512695,0.5543655753135681,-1.2586816549301147,0.10856583714485168,0.4877874553203583, -0.4823639690876007
184,1048785669,0.6252591,-0.23223814,-0.7101976,-0.22524647,9.804093360900879,0.5915011167526245,-1.2428178787231445,0.03645327314734459,0.48672452569007874, -0.5627365708351135
185,1048802336,0.6251799,-0.23204082,-0.71025705,-0.22548212,9.815751075744629,0.613501787185669,-1.2147016525268555,-0.15331760048866272,0.4535367786884308, -0.6456576585769653
186,1048819003,0.6250945,-0.23185684,-0.71032846,-0.22568312,9.823702812194824,0.533051609992981,-1.2051819562911987,-0.08987495303153992,0.2958202660083771, -0.4470696449279785
187,1048835670,0.62497824,-0.23166677,-0.7104331,-0.22587058,9.878874778747559,0.6026230454444885,-1.1975716352462769,0.023211507126688957,-0.009233378805220127, -0.5187339782714844
188,1048852337,0.6248453,-0.23149915,-0.71055025,-0.22604176,9.860479354858398,0.6398228406906128,-1.1936736106872559,0.011967533268034458,-0.2048119306564331, -0.3806430995464325
189,1048869004,0.6246918,-0.23136736,-0.71065927,-0.22625841,9.872835159301758,0.6401733160018921,-1.1918675899505615,-0.41638559103012085,-0.2544109523296356, -0.41158321499824524
190,1048885671,0.6245417,-0.23124644,-0.71077406,-0.2264358,9.888371467590332,0.622460663318634,-1.2185494899749756,-0.294981449842453,-0.34358155727386475, -0.18282343447208405
191,1048902338,0.624388,-0.23111655,-0.71089506,-0.22661225,9.857975959777832,0.6878584623336792,-1.2074456214904785,-0.19997116923332214,-0.37339475750923157, -0.2373528927564621
192,1048919005,0.6242096,-0.23099142,-0.71102345,-0.22682834,9.874534606933594,0.7199155688285828,-1.1939525604248047,-0.41466963291168213,-0.4691861867904663, -0.42794981598854065
193,1048935672,0.6240292,-0.23086713,-0.7111643,-0.22700943,9.85911750793457,0.6450691223144531,-1.1904586553573608,-0.27076461911201477,-0.5908721685409546, -0.2822135090827942
194,1048952339,0.6238299,-0.2307608,-0.7113127,-0.22720036,9.865428924560547,0.6817348599433899,-1.2054651975631714,-0.4140549600124359,-0.7297699451446533, -0.2725319564342499
195,1048969006,0.6236166,-0.2306842,-0.71144795,-0.22744015,9.843653678894043,0.6955136060714722,-1.2329261302947998,-0.7616320252418518,-0.7094845771789551, -0.3365893065929413
196,1048985673,0.623388,-0.23061904,-0.71158844,-0.22769354,9.84255599975586,0.6752628087997437,-1.2297258377075195,-0.9513324499130249,-0.8037136793136597, -0.35764291882514954
197,1049002340,0.62315935,-0.23054145,-0.71174014,-0.22792384,9.844868659973145,0.6129973530769348,-1.2165132761001587,-0.7762569189071655,-0.8691670298576355, -0.33041664958000183
198,1049019007,0.6229044,-0.23045427,-0.71191216,-0.22817133,9.872318267822266,0.6224308013916016,-1.2176460027694702,-0.8352172374725342,-1.0425903797149658, -0.5212951898574829
199,1049035674,0.62263817,-0.23036724,-0.7121059,-0.22838107,9.884526252746582,0.6261435151100159,-1.2131284475326538,-0.682232677936554,-1.2540234327316284, -0.4040147066116333
200,1049052341,0.6223187,-0.23031577,-0.71232736,-0.22861364,9.893095970153809,0.7239214777946472,-1.1747630834579468,-1.0248793363571167,-1.6556048393249512, -0.4495028555393219
201,1049069008,0.6219492,-0.23029709,-0.712578,-0.22885628,9.92213249206543,0.7466247081756592,-1.183643102645874,-0.9870238304138184,-2.0564053058624268, -0.47599920630455017
202,1049085675,0.6215449,-0.23025838,-0.71286863,-0.22908852,9.926602363586426,0.7660894989967346,-1.1949518918991089,-0.9766889810562134,-2.390983819961548, -0.6261920928955078
203,1049102342,0.62111026,-0.23024838,-0.7131816,-0.22930348,9.927892684936523,0.6742769479751587,-1.2037585973739624,-1.1040226221084595,-2.713742733001709, -0.47893190383911133
204,1049119009,0.6206902,-0.23020615,-0.7135328,-0.22938995,9.967278480529785,0.6732326745986938,-1.1927398443222046,-0.24239861965179443,-2.961827039718628, -0.12404230982065201
205,1049135676,0.6202623,-0.23014818,-0.71391785,-0.2294078,9.95666217803955,0.8360415697097778,-1.1912047863006592,0.2440185695886612,-3.231118679046631, 0.023890245705842972
206,1049152343,0.6197774,-0.230103,-0.71433103,-0.22947776,9.96994686126709,0.8676279783248901,-1.2014005184173584,-0.099556565284729,-3.5731639862060547, -0.260852575302124
207,1049169010,0.61924875,-0.23005116,-0.7147981,-0.22950242,9.933095932006836,0.7513572573661804,-1.2073121070861816,0.1348828673362732,-4.0845465660095215, -0.23945312201976776
208,1049185677,0.61862236,-0.23000287,-0.7153428,-0.22954254,9.928131103515625,0.7536550164222717,-1.202931523323059,0.05891561880707741,-4.880756378173828, -0.5648753046989441
209,1049202344,0.61794275,-0.22993973,-0.7159629,-0.22950351,9.890205383300781,0.5512266755104065,-1.2205958366394043,0.5889705419540405,-5.568994998931885, -0.5040067434310913
210,1049219011,0.617215,-0.22986569,-0.71665823,-0.2293654,9.873230934143066,0.5910168886184692,-1.253913164138794,1.3712080717086792,-6.262947082519531, -0.36076778173446655
211,1049235678,0.6164028,-0.22976528,-0.7174394,-0.22920802,9.888046264648438,0.6854312419891357,-1.283022403717041,1.3692998886108398,-7.043735980987549, -0.6579775214195251
212,1049252345,0.61549336,-0.22961645,-0.71831685,-0.22905305,9.870439529418945,0.784723699092865,-1.2418930530548096,1.8140517473220825,-7.845593452453613, -1.2407690286636353
213,1049269012,0.61441946,-0.22941871,-0.7193193,-0.2289884,9.867975234985352,0.8842635750770569,-1.2133071422576904,1.355225920677185,-8.979534149169922, -2.2978696823120117
214,1049285679,0.6131575,-0.22913769,-0.7205084,-0.22891381,9.960892677307129,0.7532685995101929,-1.1459652185440063,1.6036180257797241,-10.598871231079102, -3.230940341949463
215,1049302346,0.6117381,-0.22884445,-0.7218016,-0.2289309,10.049588203430176,0.7300401329994202,-1.2598525285720825,1.235102653503418,-11.6636323928833, -4.10182523727417
216,1049319013,0.6102509,-0.22850685,-0.7231568,-0.22896066,10.013556480407715,0.8895862102508545,-1.3651262521743774,1.2293909788131714,-12.18724536895752, -4.564377307891846
217,1049335680,0.60870385,-0.22818208,-0.7245139,-0.22911191,9.962118148803711,0.7854862213134766,-1.4006679058074951,0.5267446637153625,-12.328039169311523, -5.1064066886901855
218,1049352347,0.6071536,-0.22772169,-0.7259462,-0.22915007,9.922730445861816,0.7314910888671875,-1.4451355934143066,1.847118854522705,-12.62609577178955, -5.4411139488220215
219,1049369014,0.60559237,-0.22712639,-0.72743464,-0.22915192,9.900107383728027,0.7951292395591736,-1.4835374355316162,2.501382827758789,-12.773741722106934, -6.048686981201172
220,1049385681,0.6040211,-0.22645095,-0.7289847,-0.22904144,9.913806915283203,0.7391531467437744,-1.5644994974136353,3.504812479019165,-13.134190559387207, -6.098133087158203
221,1049402348,0.6024424,-0.22562075,-0.7306269,-0.22878604,9.859646797180176,0.746809720993042,-1.6293957233428955,5.088767051696777,-13.534119606018066, -6.44259786605835
222,1049419015,0.60085386,-0.22466125,-0.73239803,-0.22824411,9.777904510498047,0.8081618547439575,-1.6277483701705933,7.258576393127441,-14.360030174255371, -6.126999378204346
223,1049435682,0.5991929,-0.22350524,-0.73429996,-0.22763304,9.783464431762695,0.8701062202453613,-1.6976605653762817,8.4562406539917,-15.068673133850098, -7.140636444091797
224,1049452349,0.59731376,-0.22237095,-0.7364036,-0.2268865,10.198589324951172,0.9014711380004883,-1.6230108737945557,9.097868919372559,-17.240203857421875, -7.1352739334106445
225,1049469016,0.59522796,-0.22116989,-0.73869324,-0.22609775,9.897189140319824,0.8603820204734802,-1.5479283332824707,9.582681655883789,-19.019731521606445, -7.911930561065674
226,1049485683,0.59288806,-0.21973297,-0.741315,-0.22506301,9.984516143798828,0.8798015713691711,-1.4606444835662842,11.932683944702148,-21.6901912689209, -9.007650375366211
227,1049502350,0.5901537,-0.21824853,-0.7442147,-0.2241223,9.93486499786377,0.9697005748748779,-1.3278226852416992,11.453156471252441,-24.640796661376953, -10.66234302520752
228,1049519017,0.58681375,-0.21720473,-0.74728155,-0.22370064,9.999151229858398,0.7899680137634277,-1.0853760242462158,6.370508193969727,-28.347013473510742, -11.69977855682373
229,1049535684,0.58258975,-0.2166987,-0.7506441,-0.22397462,10.349946022033691,0.8952784538269043,-0.9524573683738708,-0.23059220612049103,-33.91718673706055, -13.55646800994873
230,1049552351,0.57750106,-0.21637395,-0.7543851,-0.22489582,10.621923446655273,0.7944205403327942,-0.8388174176216125,-4.975081443786621,-39.27101516723633, -17.122840881347656
231,1049569018,0.57147026,-0.21615374,-0.7586602,-0.22612864,10.628735542297363,0.7459753155708313,-0.6647831201553345,-7.575011253356934,-46.050689697265625, -20.087324142456055
232,1049585685,0.56436604,-0.21609183,-0.7635195,-0.22766957,10.862711906433105,1.1543248891830444,-0.3967704772949219,-10.474431991577148,-53.820457458496094, -23.035734176635742
233,1049602352,0.5561526,-0.21593891,-0.7690653,-0.22935411,11.032676696777344,1.5834177732467651,-0.07308980822563171,-11.426501274108887,-62.058937072753906, -26.839326858520508
234,1049619019,0.5468383,-0.21557193,-0.77531385,-0.23105246,11.253684043884277,1.616294026374817,0.1286482810974121,-11.168485641479492,-70.33808135986328, -30.804887771606445
235,1049635686,0.5364377,-0.21505217,-0.7822025,-0.23269421,11.339010238647461,1.448040246963501,0.07636493444442749,-10.844983100891113,-78.52406311035156, -34.08835983276367
236,1049652353,0.52498335,-0.2146387,-0.7896303,-0.23410864,11.350085258483887,0.7171697616577148,-0.62629234790802,-10.667407989501953,-86.83963012695312, -35.18499755859375
237,1049669020,0.5129277,-0.2138851,-0.7976855,-0.23421437,12.062549591064453,0.1617288738489151,-1.522242784500122,-2.1847245693206787,-93.884765625, -34.262847900390625
238,1049685687,0.50036234,-0.21306393,-0.8059815,-0.23374207,11.665815353393555,0.13099640607833862,-2.5121607780456543,0.8725106716156006,-98.38582611083984, -33.863670349121094
239,1049702354,0.48702228,-0.21302211,-0.81407255,-0.23391677,12.326271057128906,0.7754002213478088,-3.0692920684814453,-6.85916805267334,-102.3584976196289, -32.81231689453125
240,1049719021,0.47392374,-0.21395014,-0.8209897,-0.23579119,11.952183723449707,1.215531587600708,-3.644136428833008,-21.14946746826172,-96.23055267333984, -31.051605224609375
241,1049735688,0.46221516,-0.21625772,-0.8257134,-0.24039015,12.033462524414062,2.00960111618042,-4.677610874176025,-42.5308723449707,-79.5344009399414, -26.735553741455078
242,1049752355,0.45290494,-0.21745463,-0.82971907,-0.24322227,10.941533088684082,2.7628321647644043,-5.074296474456787,-26.5831298828125,-64.46990966796875, -22.44269561767578
243,1049769022,0.4442966,-0.21914488,-0.8331722,-0.24576499,9.7122220993042,1.8572486639022827,-4.595573425292969,-26.3271541595459,-60.01646423339844, -16.739717483520508
244,1049785689,0.43687037,-0.2210916,-0.8359067,-0.24803822,8.178534507751465,0.8417127728462219,-3.554795503616333,-25.002079010009766,-51.903953552246094, -11.406691551208496
245,1049802356,0.43450242,-0.22122502,-0.8374474,-0.2468781,6.058016300201416,-0.7401118874549866,1.2203994989395142,5.808504104614258,-21.40213966369629, -1.1304570436477661
246,1049819023,0.43692183,-0.22118837,-0.836908,-0.2444589,6.574434280395508,0.9104728698730469,3.071648597717285,17.303312301635742,10.587125778198242, 12.860692024230957
247,1049835690,0.44290653,-0.2227007,-0.8332107,-0.24494556,6.109246253967285,-0.3493324816226959,4.593092918395996,-3.9205048084259033,42.16352462768555, 23.81910514831543
248,1049852357,0.45125756,-0.22556676,-0.8265707,-0.24953414,6.19587516784668,0.02453465387225151,3.799267530441284,-32.85896682739258,68.39912414550781, 27.505054473876953
249,1049869024,0.462641,-0.22846599,-0.81729966,-0.25649175,6.466238975524902,1.8681589365005493,2.2832250595092773,-46.2230224609375,97.16748809814453, 29.561687469482422
250,1049885691,0.4770532,-0.23073262,-0.80593884,-0.26390392,6.98715353012085,1.709997534751892,2.1119468212127686,-45.659446716308594,122.48088073730469, 33.18655776977539
251,1049902358,0.49413747,-0.23239523,-0.79259086,-0.27133092,7.508208751678467,1.900673747062683,2.220292806625366,-43.104530334472656,144.7483673095703, 37.7887077331543
252,1049919025,0.5137446,-0.2331764,-0.77713025,-0.27886254,8.200944900512695,2.3076584339141846,1.2562756538391113,-40.56992721557617,167.31015014648438, 40.7190055847168
253,1049935692,0.53534937,-0.2325161,-0.76014954,-0.28549933,9.018060684204102,2.371830701828003,0.2722800076007843,-30.398632049560547,184.5491943359375, 42.4727897644043
254,1049952359,0.5582666,-0.2300855,-0.74226904,-0.29057848,9.827130317687988,2.044161796569824,-0.43081894516944885,-15.413469314575195,195.61807250976562, 43.0088996887207
255,1049969026,0.58196276,-0.22576551,-0.7239572,-0.29365918,10.7334566116333,1.6052759885787964,-0.7349082231521606,2.3866875171661377,201.81570434570312, 43.31514358520508
256,1049985693,0.60608447,-0.2198131,-0.70523757,-0.29493007,11.612881660461426,1.5600895881652832,-1.334005355834961,17.731985092163086,206.03456115722656, 43.956809997558594
257,1050002360,0.6299566,-0.21272665,-0.6863211,-0.29472965,12.288479804992676,1.3191107511520386,-1.9249283075332642,28.772104263305664,205.74935913085938, 44.42002487182617
258,1050019027,0.65312123,-0.20492525,-0.667517,-0.2930179,12.626033782958984,0.6572135090827942,-2.0153098106384277,38.140350341796875,201.2401580810547, 46.0296745300293
259,1050035694,0.67532814,-0.19685028,-0.64893204,-0.289947,12.689766883850098,0.3605177402496338,-2.0218520164489746,44.642459869384766,194.6075897216797, 48.652381896972656
260,1050052361,0.69628,-0.18893434,-0.6307727,-0.28569922,12.754980087280273,0.09531814604997635,-2.3092567920684814,48.2470588684082,185.25936889648438, 51.752601623535156
261,1050069028,0.7158294,-0.18143216,-0.6131889,-0.28048226,12.877237319946289,0.22701093554496765,-2.25024676322937,49.722679138183594,174.52395629882812, 54.677589416503906
262,1050085695,0.7340826,-0.17468677,-0.5959958,-0.274584,12.630077362060547,-0.059264738112688065,-2.1606390476226807,47.95334243774414,165.0259246826172, 58.233558654785156
263,1050102362,0.75112325,-0.16824436,-0.57962346,-0.26747802,12.436996459960938,-0.2664945423603058,-1.6629754304885864,51.418155670166016,154.10531616210938, 62.284141540527344
264,1050119029,0.7669155,-0.1617097,-0.564325,-0.25928405,12.520306587219238,-0.22424399852752686,-1.6585465669631958,56.72231674194336,142.70816040039062, 63.981990814208984
265,1050135696,0.7811213,-0.15479834,-0.55057293,-0.25051236,11.882845878601074,0.5083611607551575,-2.2105350494384766,61.91060256958008,128.65638732910156, 61.007755279541016
266,1050152363,0.79349136,-0.14865692,-0.5382305,-0.2420341,11.328660011291504,0.4932262897491455,-2.516568422317505,57.10361862182617,113.37956237792969, 57.701622009277344
267,1050169030,0.80403304,-0.14338069,-0.52752656,-0.2338565,10.583883285522461,0.3360273838043213,-2.6659584045410156,52.09910583496094,96.8143539428711, 54.56035232543945
268,1050185697,0.8126617,-0.13908042,-0.51878494,-0.22605298,10.190325736999512,0.5910114645957947,-2.4263713359832764,46.59635543823242,78.10028839111328, 51.02907180786133
269,1050202364,0.8194164,-0.13625899,-0.51188064,-0.21901694,10.227592468261719,0.9386982917785645,-1.9866058826446533,36.64152526855469,59.849552154541016, 47.3619384765625
270,1050219031,0.8242713,-0.13598157,-0.5065641,-0.2132577,11.041220664978027,0.7427608370780945,-1.4844638109207153,18.40876007080078,41.8349723815918, 44.801761627197266
271,1050235698,0.8272894,-0.13606995,-0.5040084,-0.20749256,9.63587474822998,1.503786563873291,-3.4792299270629883,18.67670249938965,19.49695587158203, 40.857295989990234
272,1050252365,0.8285347,-0.13513613,-0.50489575,-0.20086968,10.052591323852539,0.8579022288322449,-3.789185047149658,30.70134925842285,-5.281291484832764, 36.495079040527344
273,1050269032,0.8281972,-0.1320052,-0.509397,-0.19281834,9.504406929016113,1.0367255210876465,-3.698673963546753,51.6962890625,-29.34697723388672, 31.487394332885742
274,1050285699,0.82632256,-0.12669651,-0.51718795,-0.18345554,9.953954696655273,1.0582208633422852,-1.7146656513214111,71.65801239013672,-51.4778938293457, 26.32903480529785
275,1050302366,0.82444745,-0.1189206,-0.5257721,-0.17236014,9.861714363098145,-0.2651858925819397,4.347641944885254,92.83934020996094,-54.1615104675293, 26.723094940185547
276,1050319033,0.8230504,-0.10965388,-0.5333069,-0.16170345,8.75161361694336,1.392348051071167,5.865814208984375,98.86547088623047,-44.35820388793945, 20.23540496826172
277,1050335700,0.82077473,-0.10085022,-0.54068357,-0.15433618,8.90164852142334,4.825801849365234,6.0294928550720215,83.33269500732422,-44.79326248168945, 2.4861302375793457
278,1050352367,0.81686103,-0.0925981,-0.5495252,-0.14894831,9.853841781616211,4.329742908477783,3.49432110786438,73.2344741821289,-58.442508697509766, -9.2333345413208
279,1050369034,0.8114217,-0.086132616,-0.5603401,-0.14210863,13.416126251220703,1.7736358642578125,0.3471090793609619,69.704345703125,-78.02594757080078, 2.9854352474212646
280,1050385701,0.80593985,-0.07967324,-0.5708574,-0.13503666,11.565452575683594,-0.8011075854301453,3.8089568614959717,70.2503433227539,-76.50175476074219, 4.470706939697266
281,1050402368,0.800272,-0.07249224,-0.58159333,-0.12672406,9.568154335021973,1.09418785572052,3.267090320587158,79.24510192871094,-78.44393920898438, 8.1537446975708
282,1050419035,0.79439676,-0.06742724,-0.5915575,-0.12019705,9.74531078338623,2.747454881668091,2.2881486415863037,59.69624328613281,-75.98626708984375, 6.998754501342773
283,1050435702,0.78899974,-0.065297335,-0.5999832,-0.115047336,9.622636795043945,1.0256221294403076,1.9855742454528809,37.01449203491211,-67.40556335449219, 12.592503547668457
284,1050452369,0.78427947,-0.06409973,-0.60717446,-0.110165164,9.901749610900879,0.8063331842422485,1.4066590070724487,30.194063186645508,-58.517051696777344, 16.087217330932617
285,1050469036,0.7801696,-0.06334019,-0.6134323,-0.104997985,9.6619873046875,0.6688246130943298,1.582330346107483,28.59794807434082,-51.35866928100586, 20.33046531677246
286,1050485703,0.77635974,-0.06263318,-0.61921823,-0.09955625,9.64538860321045,0.8184620141983032,1.910202980041504,29.280399322509766,-47.702571868896484, 22.44644546508789
287,1050502370,0.77271146,-0.062392343,-0.6246311,-0.09413021,10.021408081054688,0.7763420939445496,1.8366180658340454,26.555130004882812,-45.33566665649414, 24.625255584716797
288,1050519037,0.7691972,-0.062559456,-0.6297324,-0.08865137,10.009512901306152,0.4410410225391388,1.6076217889785767,24.486495971679688,-43.390953063964844, 26.885128021240234
289,1050535704,0.76577073,-0.06291821,-0.63460344,-0.083157845,9.989445686340332,0.34462273120880127,1.5086700916290283,23.451017379760742,-41.91421127319336, 27.942325592041016
290,1050552371,0.76236475,-0.063849725,-0.6392271,-0.07818002,9.871053695678711,0.19665636122226715,1.4925849437713623,18.06953239440918,-40.625179290771484, 27.841970443725586
291,1050569038,0.7589243,-0.06519833,-0.6436901,-0.073799595,9.884054183959961,0.15733934938907623,1.2877496480941772,13.172744750976562,-39.90135955810547, 26.591659545898438
292,1050585705,0.7555851,-0.0668089,-0.6478526,-0.070107736,10.031991004943848,0.06834898144006729,1.142236351966858,8.666447639465332,-37.712867736816406, 24.342817306518555
293,1050602372,0.75242966,-0.06829855,-0.65170807,-0.06679526,10.108152389526367,0.02884417027235031,0.9521717429161072,7.554864883422852,-35.066856384277344, 22.061681747436523
294,1050619039,0.7494434,-0.06955287,-0.65532213,-0.06364112,10.091780662536621,-0.11375822871923447,0.885651707649231,8.044038772583008,-32.87748336791992, 20.378376007080078
295,1050635706,0.7465236,-0.07052159,-0.6588359,-0.06053687,10.170816421508789,0.04216150939464569,0.8032268285751343,9.289895057678223,-31.91206169128418, 18.907793045043945
296,1050652373,0.7437588,-0.07149038,-0.6620913,-0.05785565,10.169114112854004,-0.12148051708936691,0.6598559617996216,7.35135555267334,-29.679279327392578, 16.92997169494629
297,1050669040,0.74119806,-0.072309904,-0.66506803,-0.055510882,10.109532356262207,-0.275798499584198,0.5208763480186462,6.581814765930176,-27.098522186279297, 14.748068809509277
298,1050685707,0.7389558,-0.07280587,-0.6676829,-0.053323124,10.193710327148438,-0.21185308694839478,0.3380027413368225,7.540700435638428,-23.59404945373535, 12.765693664550781
299,1050702374,0.73715603,-0.07294871,-0.66982174,-0.051173553,10.209836959838867,-0.10051197558641434,0.33065739274024963,9.213260650634766,-18.989267349243164, 11.350387573242188
300,1050719041,0.7357931,-0.07267159,-0.67150515,-0.049073957,10.233920097351074,0.058565013110637665,0.3946879506111145,11.175996780395508,-14.490854263305664, 9.548397064208984
301,1050735708,0.7346428,-0.072641335,-0.67289555,-0.047277614,10.080193519592285,0.06626754999160767,0.36627069115638733,8.539366722106934,-11.958889961242676, 9.381550788879395
302,1050752375,0.73364484,-0.07289341,-0.6740658,-0.045684475,10.029926300048828,-0.01753196120262146,0.33857670426368713,6.182647705078125,-10.133197784423828, 9.831884384155273
303,1050769042,0.732952,-0.072928704,-0.6749252,-0.04403211,10.018132209777832,-0.2708621919155121,0.3352872133255005,7.609877586364746,-7.114201068878174, 9.386554718017578
304,1050785709,0.7324943,-0.072942495,-0.6755283,-0.042345803,9.835591316223145,-0.11625225841999054,0.2939557433128357,7.919188499450684,-4.7438459396362305, 9.658446311950684
305,1050802376,0.73196113,-0.073339626,-0.6761549,-0.0408506,9.822263717651367,-0.14707361161708832,0.37205660343170166,5.073602676391602,-5.22983455657959, 10.449520111083984
306,1050819043,0.731349,-0.07375067,-0.6768537,-0.03947865,9.865063667297363,-0.23049864172935486,0.46993741393089294,4.414408206939697,-5.907366752624512, 9.842394828796387
307,1050835710,0.730599,-0.074286185,-0.6776732,-0.038284734,9.804045677185059,-0.21876239776611328,0.3974258601665497,2.9257209300994873,-7.107822418212891, 9.433053016662598
308,1050852377,0.72961926,-0.07502294,-0.6787065,-0.03721447,9.763240814208984,-0.3801709711551666,0.4360123872756958,1.2812697887420654,-9.24931526184082, 9.586564064025879
309,1050869044,0.72838503,-0.075787075,-0.68000966,-0.03603367,9.790760040283203,-0.38779571652412415,0.4224296808242798,1.6002635955810547,-11.864542007446289, 10.066279411315918
310,1050885711,0.7269169,-0.07652883,-0.6815618,-0.034768257,9.844204902648926,-0.4290878474712372,0.35218051075935364,2.051367998123169,-14.254247665405273, 10.200068473815918
311,1050902378,0.72511625,-0.07724871,-0.6834622,-0.03344439,9.852975845336914,-0.35036543011665344,0.40035560727119446,2.346977949142456,-17.586265563964844, 10.128485679626465
312,1050919045,0.7229478,-0.078107655,-0.68571055,-0.03235673,9.877099990844727,-0.3962151110172272,0.40290701389312744,0.4328233301639557,-20.967615127563477, 9.339835166931152
313,1050935712,0.72039855,-0.07917656,-0.6883011,-0.031606846,9.89029598236084,-0.4222787916660309,0.3759711682796478,-2.327329158782959,-24.34377670288086, 8.386866569519043
314,1050952379,0.71752375,-0.08047599,-0.6911675,-0.031157164,9.97270679473877,-0.3219609260559082,0.224683940410614,-5.002725601196289,-27.15189552307129, 7.774994850158691
315,1050969046,0.7144082,-0.08198398,-0.6942145,-0.031076094,10.059232711791992,-0.3084421753883362,0.10688675194978714,-7.872615337371826,-29.041671752929688, 6.805490016937256
316,1050985713,0.7109762,-0.08373792,-0.6975079,-0.03136272,10.143318176269531,-0.1900261491537094,0.04936663806438446,-10.95577335357666,-31.620136260986328, 5.978085994720459
317,1051002380,0.70720595,-0.08560367,-0.70106965,-0.032143917,10.231743812561035,-0.16079115867614746,0.03303524851799011,-14.005182266235352,-34.30755615234375, 3.8852412700653076
318,1051019047,0.70305943,-0.08756484,-0.7049176,-0.03363435,10.426934242248535,-0.23282185196876526,0.18429769575595856,-18.040029525756836,-37.134307861328125, 0.6627005338668823
319,1051035714,0.698427,-0.08967831,-0.70913243,-0.035900496,10.652200698852539,-0.5417565703392029,0.35229551792144775,-22.73896598815918,-40.856117248535156, -2.6657776832580566
320,1051052381,0.69322276,-0.09161934,-0.7138545,-0.038210344,10.832873344421387,-0.5292112827301025,0.17355036735534668,-22.348695755004883,-46.04396438598633, -4.16380500793457
321,1051069048,0.6874102,-0.09370581,-0.7190303,-0.041012447,11.148138046264648,-0.13241590559482574,0.20141330361366272,-25.718536376953125,-50.95436096191406, -6.235548496246338
322,1051085715,0.6807611,-0.0960351,-0.72482985,-0.044311322,11.4011869430542,0.09591154009103775,0.35018190741539,-29.6793270111084,-57.825801849365234, -8.00282096862793
323,1051102382,0.67300886,-0.09857197,-0.7314505,-0.048198063,11.906366348266602,0.3679576516151428,0.6280822157859802,-34.051082611083984,-66.8927993774414, -10.57507038116455
324,1051119049,0.6637891,-0.10058811,-0.7392716,-0.052381404,12.636408805847168,0.6827680468559265,0.9600008726119995,-33.71885299682617,-79.52131652832031, -15.837940216064453
325,1051135716,0.65268683,-0.102111295,-0.7485462,-0.057025224,13.029777526855469,1.1791839599609375,1.5119320154190063,-34.57329559326172,-95.31395721435547, -22.095596313476562
326,1051152383,0.6395841,-0.10317835,-0.7591922,-0.062560365,13.802327156066895,1.2638769149780273,2.047093391418457,-37.95925521850586,-111.07549285888672, -30.150371551513672
327,1051169050,0.6247648,-0.10533978,-0.7705598,-0.069357336,13.070687294006348,1.111274242401123,2.554372549057007,-50.23957061767578,-122.92988586425781, -31.20261573791504
328,1051185717,0.6081459,-0.10989538,-0.7822378,-0.07864926,13.624781608581543,1.9314903020858765,3.069983720779419,-74.87020874023438,-133.30311584472656, -30.299087524414062
329,1051202384,0.5905814,-0.1170086,-0.7932942,-0.09059214,13.193197250366211,1.4793132543563843,4.884476661682129,-100.83216094970703,-135.37689208984375, -27.64073371887207
330,1051219051,0.57165265,-0.12877221,-0.8032752,-0.10667644,11.877870559692383,0.9148843288421631,3.935689687728882,-144.0376739501953,-138.2921142578125, -19.081785202026367
331,1051235718,0.5518647,-0.140061,-0.8130123,-0.12181754,10.937034606933594,0.11470688879489899,0.4040418565273285,-137.86090087890625,-142.80795288085938, -18.44925880432129
332,1051252385,0.53200877,-0.14749178,-0.82332605,-0.13170864,12.914705276489258,-0.907926082611084,-5.246954917907715,-93.42353820800781,-147.33058166503906, -20.76716423034668
333,1051269052,0.51434886,-0.14948748,-0.83383214,-0.13350186,13.254648208618164,-0.2896508574485779,-6.26747465133667,-25.296310424804688,-138.88783264160156, -20.194561004638672
334,1051285719,0.49754468,-0.14924604,-0.8442348,-0.13207105,13.199565887451172,-0.473989337682724,-4.4438862800598145,1.8833932876586914,-134.8611297607422, -20.78143310546875
335,1051302386,0.4817818,-0.14949447,-0.8534841,-0.13077854,11.283488273620605,-0.5289969444274902,-1.9714717864990234,-0.5793150067329407,-125.21940612792969, -16.342844009399414
336,1051319053,0.46844256,-0.15146886,-0.86037487,-0.13181014,8.44586181640625,-0.11844788491725922,1.8197028636932373,-19.57054901123047,-102.44253540039062, -9.37225341796875
337,1051335720,0.4585853,-0.1571578,-0.86314857,-0.14133523,5.760436534881592,1.9970510005950928,3.1143879890441895,-81.87973022460938,-63.26597213745117, -7.370449542999268
338,1051352387,0.45338225,-0.16309783,-0.8623725,-0.15542683,6.07133150100708,-0.2901904582977295,4.588491916656494,-108.15078735351562,-19.920995712280273, -11.939849853515625
339,1051369054,0.45289132,-0.1690317,-0.8586128,-0.1705932,5.109706878662109,0.5936518907546997,5.1486382484436035,-112.40546417236328,18.338808059692383, -7.024808883666992
340,1051385721,0.45700967,-0.17451197,-0.852214,-0.18552478,5.0750226974487305,1.0832796096801758,3.999485492706299,-107.32563018798828,53.84011459350586, -0.5585132241249084
341,1051402388,0.46545002,-0.17914823,-0.84376013,-0.19832058,5.654755592346191,0.7284844517707825,3.0259153842926025,-89.57222747802734,83.98184204101562, 9.142243385314941
342,1051419055,0.47803319,-0.18252952,-0.8335679,-0.20816284,6.183802127838135,0.6578924059867859,2.570783853530884,-65.68120574951172,111.51908111572266, 19.062408447265625
343,1051435722,0.49420646,-0.18496521,-0.82154983,-0.21587919,7.004378795623779,0.8219266533851624,2.0979201793670654,-48.49732971191406,136.65982055664062, 28.02719497680664
344,1051452389,0.5134633,-0.18646233,-0.8076163,-0.22213334,7.744726181030273,1.2329866886138916,1.3724602460861206,-35.97545623779297,160.00721740722656, 34.68604278564453
345,1051469056,0.53518397,-0.18676125,-0.7919206,-0.22706929,8.602263450622559,1.1886441707611084,0.559507429599762,-23.964305877685547,179.9547576904297, 38.70476150512695
346,1051485723,0.55893666,-0.18526372,-0.77468044,-0.23051587,9.614715576171875,1.4133057594299316,-0.12449401617050171,-9.06047248840332,197.5247344970703, 39.56529998779297
347,1051502390,0.5838874,-0.18240874,-0.75588435,-0.23332778,10.608413696289062,1.641653060913086,-0.6905112266540527,-1.4222609996795654,211.1778106689453, 38.67280960083008
348,1051519057,0.60933673,-0.1786686,-0.7356454,-0.2358222,11.234432220458984,1.6241222620010376,-1.106021523475647,2.068648099899292,220.55862426757812, 37.98527526855469
349,1051535724,0.6348391,-0.17407542,-0.7143447,-0.23746341,11.827142715454102,1.3205585479736328,-1.3522247076034546,8.272567749023438,225.60911560058594, 38.66825866699219
350,1051552391,0.66025066,-0.16842295,-0.69230324,-0.23752706,12.693854331970215,0.9346731901168823,-1.5566015243530273,19.291410446166992,228.26055908203125, 41.12113571166992
351,1051569058,0.6854023,-0.16206378,-0.6695095,-0.236043,13.37043285369873,0.6238417625427246,-1.6105406284332275,28.293703079223633,229.84857177734375, 45.25640869140625
352,1051585725,0.7100707,-0.15490122,-0.6462024,-0.23286845,13.839115142822266,-0.035796575248241425,-1.826013445854187,38.440731048583984,229.5343780517578, 49.336265563964844
353,1051602392,0.7338205,-0.14626557,-0.6230055,-0.2279868,13.984721183776855,-0.12915538251399994,-1.828517198562622,52.36455535888672,225.55528259277344, 49.54871368408203
354,1051619059,0.75635785,-0.13747177,-0.5994809,-0.22281606,14.903336524963379,0.12651608884334564,-1.4693562984466553,52.61639404296875,222.09487915039062, 48.76976776123047
355,1051635726,0.7771758,-0.13124306,-0.5749398,-0.21958467,15.284114837646484,0.9545273184776306,-2.7645084857940674,28.04905891418457,218.3343505859375, 47.592803955078125
356,1051652393,0.7960452,-0.1266973,-0.55087656,-0.21632206,14.756155967712402,-0.3567594289779663,-4.146070957183838,18.085996627807617,205.69900512695312, 51.0605354309082
357,1051669060,0.8128657,-0.12209988,-0.52867997,-0.21175139,13.542787551879883,-0.7978379130363464,-5.097412109375,24.267671585083008,186.89700317382812, 53.339263916015625
358,1051685727,0.82674515,-0.11930039,-0.50941306,-0.2067816,12.489192008972168,0.10123838484287262,-5.623139381408691,17.42853355407715,157.14112854003906, 55.342655181884766
359,1051702394,0.837127,-0.12003726,-0.49380895,-0.20239177,11.567387580871582,0.7161717414855957,-5.865700721740723,-2.405245065689087,119.78944396972656, 56.45338821411133
360,1051719061,0.8442913,-0.12326945,-0.48226312,-0.19849294,11.182099342346191,1.119652271270752,-5.9060187339782715,-15.475163459777832,82.71328735351562, 54.288787841796875
361,1051735728,0.8484442,-0.12722155,-0.47531903,-0.19500995,10.30025863647461,0.931717574596405,-6.120792388916016,-17.33469581604004,45.65653610229492, 46.28074264526367
362,1051752395,0.8500384,-0.130291,-0.4729179,-0.19185309,10.87169075012207,0.7287145853042603,-5.608956813812256,-9.415070533752441,12.526689529418945, 34.120887756347656
363,1051769062,0.84925354,-0.13128008,-0.47506657,-0.1893304,9.166950225830078,2.3974246978759766,-6.968942165374756,4.53950834274292,-18.228057861328125, 16.46554946899414
364,1051785729,0.84557575,-0.13108373,-0.48260954,-0.1868339,10.328094482421875,2.0612874031066895,-7.4055962562561035,15.763371467590332,-57.347434997558594, 3.872464179992676
365,1051802396,0.8402443,-0.12845618,-0.4938522,-0.1832997,10.754007339477539,0.8554694652557373,-0.3449321985244751,36.58732223510742,-81.87567138671875, -3.563941717147827
366,1051819063,0.8360919,-0.12454361,-0.50347257,-0.17875867,9.536478042602539,-1.3355200290679932,8.015027046203613,46.4239501953125,-67.63920593261719, 0.827329158782959
367,1051835730,0.8331606,-0.120507345,-0.5104586,-0.17536753,8.750271797180176,3.469741106033325,7.486701488494873,40.979801177978516,-47.20160675048828, -2.4946858882904053
368,1051852397,0.8292028,-0.11938787,-0.5173258,-0.17476748,10.496901512145996,7.645233154296875,8.10934066772461,13.462536811828613,-51.40766906738281, -9.311553001403809
369,1051869064,0.8225915,-0.12589166,-0.5253229,-0.17756853,11.035506248474121,3.4507253170013428,3.767047643661499,-42.96108627319336,-73.7461166381836, -5.521484851837158
370,1051885731,0.8154338,-0.13016023,-0.5356464,-0.17666103,15.180522918701172,-3.420130491256714,-1.8677016496658325,-14.562549591064453,-89.34739685058594, 4.790975093841553
371,1051902398,0.8092508,-0.12901403,-0.5464536,-0.17279232,11.203783988952637,-1.4941213130950928,1.5497548580169678,28.1958065032959,-84.35787963867188, 2.1323745250701904
372,1051919065,0.80368567,-0.12838055,-0.5558815,-0.16912648,9.933334350585938,-0.1876322478055954,2.2449188232421875,23.512441635131836,-74.72759246826172, 4.84937047958374
373,1051935732,0.7993675,-0.1260167,-0.56410235,-0.164074,10.019899368286133,-1.7221814393997192,2.1311192512512207,38.08657455444336,-62.476200103759766, 8.401362419128418
374,1051952399,0.7967173,-0.12185417,-0.5703408,-0.1584448,9.803614616394043,-1.0644104480743408,2.329761266708374,49.43728256225586,-43.552242279052734, 8.140207290649414
375,1051969066,0.7948148,-0.11723442,-0.5754589,-0.15288207,9.748312950134277,-0.3133150339126587,2.1181554794311523,51.100372314453125,-33.910057067871094, 7.694497585296631
376,1051985733,0.79293656,-0.11405275,-0.57993287,-0.14805971,9.582809448242188,0.1916993409395218,2.67582368850708,39.6628532409668,-31.190526962280273, 9.85911750793457
377,1052002400,0.79103386,-0.11255635,-0.58383304,-0.14399885,9.443079948425293,0.29946011304855347,2.7342989444732666,26.84306526184082,-29.2788143157959, 12.843460083007812
378,1052019067,0.78894806,-0.11129616,-0.5878595,-0.13998426,9.56983470916748,0.43004271388053894,2.2021656036376953,25.363330841064453,-30.904577255249023, 13.257309913635254
379,1052035734,0.786585,-0.1097593,-0.59229046,-0.13575335,9.693154335021973,0.5666829347610474,2.080409049987793,27.923166275024414,-34.11389923095703, 12.73613166809082
380,1052052401,0.78407127,-0.107716374,-0.59703964,-0.13104707,9.742382049560547,0.471883088350296,1.9827919006347656,32.78622817993164,-36.32844924926758, 12.8673095703125
381,1052069068,0.78146935,-0.1053079,-0.60192907,-0.12608606,9.775973320007324,0.28140589594841003,1.8608286380767822,35.8714599609375,-37.30437469482422, 12.55323600769043
382,1052085735,0.77879304,-0.102941304,-0.60675293,-0.12138991,9.978060722351074,0.8807690143585205,1.6974637508392334,34.44811248779297,-37.11250305175781, 11.2744140625
383,1052102402,0.7760635,-0.101214886,-0.61131895,-0.11734618,10.012760162353516,0.47825515270233154,1.667334794998169,28.052532196044922,-36.04216003417969, 10.589926719665527
384,1052119069,0.7734938,-0.09957673,-0.6155397,-0.113590546,9.987910270690918,-0.0565677136182785,1.5312408208847046,26.210437774658203,-33.42429733276367, 9.782176971435547
385,1052135736,0.7712797,-0.097581066,-0.61935043,-0.10959376,10.04642105102539,0.1430966705083847,1.4887125492095947,29.06454849243164,-29.65704345703125, 10.085955619812012
386,1052152403,0.7697559,-0.09541812,-0.62227565,-0.10556785,10.110614776611328,0.07970994710922241,1.8477927446365356,29.877132415771484,-21.952375411987305, 10.62002182006836
387,1052169070,0.7687395,-0.09436307,-0.6241815,-0.10262917,10.049667358398438,0.061201468110084534,1.9991382360458374,18.961503982543945,-14.527645111083984, 10.62090015411377
388,1052185737,0.7681173,-0.09368167,-0.6254623,-0.10008339,9.856406211853027,0.032942045480012894,1.839457631111145,15.119485855102539,-9.60004997253418, 10.810591697692871
389,1052202404,0.76765066,-0.093431756,-0.6264302,-0.0978187,9.712685585021973,-0.1265799105167389,1.8181430101394653,11.521406173706055,-7.4506659507751465, 11.470486640930176
390,1052219071,0.76721823,-0.0932884,-0.62732667,-0.0955772,9.630487442016602,-0.4056214988231659,1.5750281810760498,10.837367057800293,-7.040747165679932, 11.853769302368164
391,1052235738,0.76662344,-0.0923216,-0.6286469,-0.09256614,9.413786888122559,-0.5038252472877502,1.30441153049469,18.678911209106445,-9.980047225952148, 11.956602096557617
392,1052252405,0.7655569,-0.090730004,-0.6306807,-0.0890656,9.48608112335205,-0.1849479079246521,1.4061915874481201,24.246017456054688,-15.740169525146484, 11.055765151977539
393,1052269072,0.76414675,-0.08907066,-0.6331011,-0.08561014,9.595176696777344,0.10554613173007965,1.4519755840301514,24.43214225769043,-19.243188858032227, 10.05168342590332
394,1052285739,0.7622032,-0.08774375,-0.636021,-0.08261062,9.627209663391113,0.5788534879684448,1.5125705003738403,20.67233657836914,-24.15135383605957, 8.470120429992676
395,1052302406,0.7600408,-0.08729412,-0.638946,-0.08041013,9.731908798217773,0.21330010890960693,1.422463297843933,12.453374862670898,-25.19878387451172, 7.986339569091797
396,1052319073,0.7575157,-0.08708924,-0.64220804,-0.07844984,9.63641357421875,0.4110861122608185,1.1464533805847168,10.08954906463623,-28.58761978149414, 7.394250869750977
397,1052335740,0.7544657,-0.08738575,-0.64595824,-0.07670296,9.665905952453613,0.35457175970077515,1.2662681341171265,6.487360000610352,-33.62910842895508, 7.915646553039551
398,1052352407,0.75093704,-0.08832438,-0.6501126,-0.07513956,9.66293716430664,-0.1628606766462326,1.4398525953292847,2.2693424224853516,-38.11785888671875, 9.31554889678955
399,1052369074,0.7471457,-0.0895657,-0.65445316,-0.07377324,9.845392227172852,-0.29542970657348633,1.0563209056854248,-0.23588159680366516,-40.32843780517578, 9.390332221984863
400,1052385741,0.743129,-0.091114156,-0.6589206,-0.07267237,9.827901840209961,-0.20291633903980255,0.8230395913124084,-3.079268217086792,-42.019649505615234, 9.205053329467773
401,1052402408,0.73855627,-0.09275795,-0.66393715,-0.07154291,9.80794906616211,0.006746214348822832,0.26542210578918457,-3.5097503662109375,-47.437339782714844, 9.15201187133789
402,1052419075,0.73300755,-0.09429876,-0.67002404,-0.06982684,9.983966827392578,-0.021035857498645782,0.3643467426300049,-0.4033280909061432,-57.67210388183594, 10.492542266845703
403,1052435742,0.72675645,-0.09536494,-0.6768991,-0.06736712,10.354583740234375,-0.05974230542778969,0.42778852581977844,5.339658260345459,-65.15682983398438, 11.199808120727539
404,1052452409,0.71985805,-0.09635266,-0.6843368,-0.064836174,10.62386703491211,-0.0677114948630333,0.3846920430660248,5.901357173919678,-71.01419067382812, 10.516069412231445
405,1052469076,0.71201545,-0.098179616,-0.6923724,-0.06336865,10.81507396697998,0.1086861714720726,0.43868839740753174,-3.6123406887054443,-78.10780334472656, 8.379934310913086
406,1052485743,0.7033966,-0.10071068,-0.7007762,-0.06327157,11.118045806884766,0.20680417120456696,0.8833597302436829,-13.94454288482666,-83.01193237304688, 4.434380054473877
407,1052502410,0.6940099,-0.103536285,-0.7095493,-0.06457825,11.687149047851562,0.7204976677894592,1.2753304243087769,-22.502994537353516,-87.6822280883789, -1.5255491733551025
408,1052519077,0.68389434,-0.10744126,-0.7184187,-0.067966454,12.010448455810547,0.5342974662780762,1.1334073543548584,-38.28303527832031,-90.72880554199219, -6.579769611358643
409,1052535744,0.67263633,-0.11140555,-0.7279711,-0.07216302,12.478090286254883,0.40434160828590393,1.437486171722412,-43.07870864868164,-99.04600524902344, -11.123749732971191
410,1052552411,0.65992016,-0.1145218,-0.73863035,-0.07626122,12.889945983886719,0.6203498840332031,1.831143856048584,-39.23024368286133,-111.15388488769531, -16.485210418701172
411,1052569078,0.64528126,-0.11727162,-0.75053084,-0.08101333,13.627321243286133,1.2375528812408447,2.2450215816497803,-41.749900817871094,-125.88394165039062, -23.298917770385742
412,1052585745,0.6284779,-0.11821047,-0.76401615,-0.08556599,14.449227333068848,0.7240645885467529,2.797156810760498,-33.544437408447266,-143.28250122070312, -34.24003219604492
413,1052602412,0.60959125,-0.11970597,-0.77831745,-0.09105554,14.592659950256348,1.7389405965805054,4.577220916748047,-42.0810546875,-157.3695526123047, -37.257850646972656
414,1052619079,0.5896841,-0.12687802,-0.79086983,-0.103440545,15.473172187805176,1.1943762302398682,7.432815074920654,-104.70802307128906,-153.446533203125, -34.98163604736328
415,1052635746,0.56811905,-0.1390538,-0.80201393,-0.121155195,14.1377534866333,1.756423830986023,5.383951187133789,-156.42868041992188,-155.75613403320312, -29.34531021118164
416,1052652413,0.54439336,-0.15221797,-0.8130483,-0.13934904,12.043609619140625,0.006883710622787476,3.8559141159057617,-165.08152770996094,-167.67868041992188, -27.47718048095703
417,1052669080,0.5203964,-0.16021721,-0.8253479,-0.14939593,12.524752616882324,-1.1152399778366089,-4.856424331665039,-99.26119995117188,-177.54708862304688, -27.463376998901367
418,1052685747,0.49787587,-0.16110559,-0.8391115,-0.14851555,14.623024940490723,-0.2556600868701935,-7.443602561950684,-5.735452651977539,-178.84739685058594, -30.32630729675293
419,1052702414,0.4766475,-0.16089039,-0.8518954,-0.1455878,15.701754570007324,0.028503021225333214,-4.222686290740967,13.732524871826172,-168.76934814453125, -29.45413589477539
420,1052719081,0.4577674,-0.1613453,-0.8624056,-0.1437828,12.980953216552734,-0.1406954675912857,-0.66230309009552,6.103299617767334,-146.84754943847656, -25.264631271362305
421,1052735748,0.4432076,-0.16453762,-0.8691009,-0.14545882,8.10555648803711,-0.05655895546078682,4.496371269226074,-20.383451461791992,-107.80286407470703, -13.060606956481934
422,1052752415,0.43327036,-0.17133191,-0.8708199,-0.15682779,6.033268451690674,1.1344945430755615,3.5330262184143066,-89.66565704345703,-57.63050842285156, -10.651496887207031
423,1052769082,0.42960146,-0.17709446,-0.8687949,-0.17110184,4.591725826263428,0.07694396376609802,5.596524715423584,-108.87317657470703,-5.593358039855957, -8.390650749206543
424,1052785749,0.4307999,-0.18332607,-0.86335695,-0.18819621,3.5967209339141846,-0.4574664533138275,5.061455249786377,-125.19392395019531,36.41958236694336, -4.053440093994141
425,1052802416,0.43700352,-0.18887849,-0.85515344,-0.20509852,3.422089099884033,-0.7754414081573486,3.623154640197754,-119.3101577758789,74.94331359863281, 2.428708791732788
426,1052819083,0.44820794,-0.19297817,-0.8448339,-0.2193735,4.1453471183776855,-0.27176541090011597,2.5419464111328125,-95.9874496459961,109.33452606201172, 11.566200256347656
427,1052835750,0.4637932,-0.19611894,-0.8324042,-0.23137988,5.245096206665039,0.6389902234077454,1.8974405527114868,-77.22441101074219,139.7198486328125, 22.385005950927734
428,1052852417,0.48303026,-0.19894968,-0.81766766,-0.24191014,6.776503086090088,0.7011228799819946,1.5142757892608643,-66.5316390991211,166.48033142089844, 34.23404312133789
429,1052869084,0.5052914,-0.20123242,-0.80075973,-0.25093856,7.936663627624512,0.8462890386581421,0.955555260181427,-55.74191665649414,189.55165100097656, 44.13824462890625
430,1052885751,0.52950096,-0.20349428,-0.78160673,-0.2594418,9.04304027557373,1.152656078338623,0.49531644582748413,-53.956790924072266,207.39224243164062, 52.315406799316406
431,1052902418,0.5549444,-0.20550264,-0.7603991,-0.26757923,10.411324501037598,1.0433287620544434,-0.040997475385665894,-53.00685501098633,221.44854736328125, 57.35930633544922
432,1052919085,0.58105224,-0.20699677,-0.7374559,-0.27511725,11.427305221557617,1.246658444404602,-1.059563159942627,-50.16624450683594,231.6507568359375, 60.631229400634766
433,1052935752,0.60733855,-0.20780045,-0.71333706,-0.2812635,12.209798812866211,1.1316026449203491,-1.5001599788665771,-42.32112503051758,236.5908966064453, 64.70245361328125
434,1052952419,0.63369507,-0.20808508,-0.6882654,-0.28534552,12.643672943115234,0.6788187026977539,-1.8310596942901611,-31.772233963012695,238.9840850830078, 72.27552032470703
435,1052969086,0.6604194,-0.20656285,-0.66309595,-0.28545067,13.476631164550781,0.10390028357505798,-1.9871267080307007,-4.744052886962891,239.0260467529297, 81.91683197021484
436,1052985753,0.6872503,-0.20309529,-0.63808423,-0.2815816,14.590733528137207,0.025684475898742676,-1.8926570415496826,22.671245574951172,236.993408203125, 91.08191680908203
437,1053002420,0.71352154,-0.19807918,-0.61327386,-0.27485794,14.870772361755371,-0.3612082302570343,-2.1677777767181396,42.12144088745117,232.62521362304688, 96.41773986816406
438,1053019087,0.73919994,-0.19054754,-0.58895636,-0.26534072,15.277841567993164,-0.18035559356212616,-2.510848045349121,59.686866760253906,228.4325408935547, 96.39608764648438
439,1053035754,0.76318616,-0.1829373,-0.5643729,-0.256055,15.257474899291992,0.7430052161216736,-3.2367982864379883,61.39458465576172,223.64492797851562, 93.04385375976562
440,1053052421,0.7849873,-0.17575893,-0.5402405,-0.24707109,14.916109085083008,0.23123744130134583,-3.936337947845459,60.157936096191406,212.4712371826172, 90.0140609741211
441,1053069088,0.8044613,-0.16883954,-0.5175894,-0.23756377,14.348139762878418,0.05048349127173424,-4.14233922958374,61.69432067871094,194.7250518798828, 88.74544525146484
442,1053085755,0.8213911,-0.16345213,-0.49691024,-0.22733308,14.142870903015137,-0.23485004901885986,-4.889413833618164,52.33173370361328,171.5554656982422, 90.25403594970703
443,1053102422,0.8350077,-0.16098268,-0.47927463,-0.2171234,12.939155578613281,-0.3873852491378784,-6.653578758239746,36.810943603515625,138.55557250976562, 91.50871276855469
444,1053119089,0.84471935,-0.16064169,-0.46624264,-0.20799357,11.691511154174805,1.2340270280838013,-7.582017421722412,23.583410263061523,97.32652282714844, 81.39940643310547
445,1053135756,0.8504606,-0.16210324,-0.45824152,-0.20113237,11.402595520019531,2.812743902206421,-7.7233099937438965,8.648581504821777,55.36159133911133, 62.77560043334961
446,1053152423,0.85297215,-0.16213697,-0.4559543,-0.19559138,10.539353370666504,3.571889638900757,-8.529293060302734,17.13526153564453,15.273794174194336, 39.73894119262695
447,1053169090,0.8525776,-0.1594642,-0.45994928,-0.19007766,10.36043930053711,4.017672061920166,-8.800235748291016,38.124881744384766,-26.95711326599121, 20.20183563232422
448,1053185757,0.8494382,-0.1549502,-0.46922728,-0.1851249,10.55524730682373,3.542158842086792,-8.147541999816895,51.031124114990234,-63.53680419921875, 1.7272263765335083
449,1053202424,0.8440677,-0.15067989,-0.48138216,-0.18197995,11.186247825622559,2.226085901260376,-0.18947577476501465,45.05325698852539,-85.87769317626953, -13.937453269958496
450,1053219091,0.8401976,-0.14516793,-0.4907868,-0.17922866,9.607993125915527,-0.9382779598236084,9.115972518920898,49.06281661987305,-62.9786262512207, -15.5984468460083
451,1053235758,0.83686835,-0.1409238,-0.49830222,-0.17744528,9.604092597961426,2.3232760429382324,8.082265853881836,36.682342529296875,-50.866886138916016, -14.365948677062988
452,1053252425,0.8320231,-0.1396042,-0.5070757,-0.17641594,11.913192749023438,4.070681095123291,7.472924709320068,17.331823348999023,-66.16397857666016, -11.745734214782715
453,1053269092,0.8246956,-0.14276548,-0.5172447,-0.1787545,11.57569694519043,1.932314157485962,1.1489143371582031,-20.74335289001465,-85.02326202392578, -19.724336624145508
454,1053285759,0.818397,-0.14201306,-0.5283224,-0.17588194,13.914769172668457,-3.2706491947174072,-1.1219699382781982,22.104507446289062,-86.81681060791016, -3.7147793769836426
455,1053302426,0.8133702,-0.13850571,-0.5381611,-0.17212781,9.874957084655762,3.080921173095703,2.654787302017212,40.55954360961914,-72.7365493774414, -6.028429985046387
456,1053319093,0.80834085,-0.1397625,-0.54596055,-0.17023167,10.563581466674805,1.3183156251907349,2.3403356075286865,4.621920108795166,-65.2166748046875, 3.157658100128174
457,1053335760,0.80439794,-0.14139907,-0.55213606,-0.16761933,10.025729179382324,-0.5669853687286377,2.6345529556274414,4.3421854972839355,-53.250911712646484, 11.399211883544922
458,1053352427,0.8014072,-0.14268515,-0.5570585,-0.16454011,10.202801704406738,-1.176230549812317,2.2216203212738037,7.5377655029296875,-42.76274108886719, 14.962851524353027
459,1053369094,0.7998768,-0.14320706,-0.56009316,-0.16119811,10.331332206726074,-0.786078929901123,2.4325344562530518,12.055376052856445,-26.166397094726562, 16.982316970825195
460,1053385761,0.799027,-0.14325795,-0.5622354,-0.15787481,9.630330085754395,-0.07116000354290009,2.5170204639434814,14.257085800170898,-18.101978302001953, 16.69465446472168
461,1053402428,0.79812473,-0.14387506,-0.5642133,-0.15479116,9.68299388885498,0.5604727864265442,2.685952663421631,9.990853309631348,-17.787574768066406, 17.66985511779785
462,1053419095,0.79696715,-0.14569907,-0.56608886,-0.15218057,9.809403419494629,0.4253917932510376,2.6493334770202637,1.1721619367599487,-19.041210174560547, 19.5872802734375
463,1053435762,0.7958525,-0.14850397,-0.56752115,-0.14995094,9.904977798461914,0.1411874145269394,2.598998546600342,-6.106084823608398,-17.096282958984375, 21.807897567749023
464,1053452429,0.7947544,-0.1514972,-0.56885606,-0.14770597,9.556256294250488,-0.12765532732009888,2.459688901901245,-7.159193515777588,-16.714693069458008, 22.74408721923828
465,1053469096,0.7935167,-0.15416662,-0.5704911,-0.14527223,9.468953132629395,-0.5722278356552124,2.43959379196167,-4.491290092468262,-18.773578643798828, 22.05552864074707
466,1053485763,0.79247344,-0.15601401,-0.57209677,-0.14265685,9.727940559387207,-0.8368960618972778,2.2735509872436523,0.8837364315986633,-17.229066848754883, 20.04602813720703
467,1053502430,0.7914868,-0.15740119,-0.5736607,-0.14031084,9.556809425354004,-0.9298891425132751,2.341651678085327,2.3535232543945312,-16.042469024658203, 16.866270065307617
468,1053519097,0.7904935,-0.1584921,-0.5752273,-0.13825232,9.498889923095703,-0.9944688677787781,2.3790247440338135,2.8284080028533936,-15.493001937866211, 14.121447563171387
469,1053535764,0.7895234,-0.1594512,-0.5767235,-0.13644771,9.508484840393066,-0.8164313435554504,2.3842267990112305,2.5003340244293213,-14.621411323547363, 12.316848754882812
470,1053552431,0.78844345,-0.16059723,-0.57822996,-0.13496518,9.479576110839844,-0.7461076974868774,2.434216260910034,0.09902523458003998,-14.942110061645508, 11.19357681274414
471,1053569098,0.78718936,-0.16207291,-0.57980967,-0.13373959,9.476568222045898,-0.7877882122993469,2.4499363899230957,-2.8344202041625977,-16.058977127075195, 10.867269515991211
472,1053585765,0.7858005,-0.16341792,-0.58160776,-0.1324569,9.35371208190918,-1.1538877487182617,2.3817131519317627,-1.8482534885406494,-17.72709846496582, 10.287579536437988
473,1053602432,0.78443706,-0.16417496,-0.5835818,-0.1309104,9.376591682434082,-1.2144570350646973,2.2232062816619873,2.5733563899993896,-18.343626022338867, 9.185067176818848
474,1053619099,0.7829887,-0.16449201,-0.5857851,-0.12933289,9.435860633850098,-0.6381552219390869,2.1350913047790527,5.181924343109131,-19.564613342285156, 7.249129295349121
475,1053635766,0.7812681,-0.16494471,-0.58828145,-0.12782273,9.362399101257324,-0.9137127995491028,2.395200252532959,4.133084297180176,-22.28830337524414, 6.858946800231934
476,1053652433,0.7793738,-0.16559815,-0.5908862,-0.12652114,9.491827964782715,-0.8237075805664062,2.129246473312378,2.1107914447784424,-23.51765251159668, 6.274234294891357
477,1053669100,0.7771822,-0.16654833,-0.5937463,-0.12535837,9.288390159606934,-1.16468346118927,2.2553796768188477,-0.15945225954055786,-26.198732376098633, 6.185975551605225
478,1053685767,0.7746322,-0.1673851,-0.59708506,-0.12416403,9.138026237487793,-1.3344266414642334,2.065518379211426,0.5778307318687439,-30.162979125976562, 5.0330328941345215
479,1053702434,0.7715093,-0.16742113,-0.60144293,-0.12251611,8.918903350830078,-1.5940581560134888,2.0528666973114014,6.914561748504639,-37.78568649291992, 2.4970524311065674
480,1053719101,0.76776147,-0.16651982,-0.60688996,-0.12040815,9.489980697631836,-0.9357886910438538,1.662160038948059,13.98885440826416,-45.89171600341797, -0.7220790982246399
481,1053735768,0.76341176,-0.16541131,-0.61314017,-0.117902495,9.616266250610352,-0.7624750137329102,1.4622271060943604,16.71770477294922,-52.929443359375, -0.9061999320983887
482,1053752435,0.75838244,-0.16396146,-0.62034214,-0.1146676,9.679281234741211,-0.8908274173736572,1.0950642824172974,21.58110237121582,-61.345645904541016, -0.15143734216690063
483,1053769102,0.7527911,-0.16165836,-0.6285278,-0.11011371,9.873725891113281,-0.8395769000053406,0.7510471343994141,31.79747772216797,-69.68778228759766, 1.5333548784255981
484,1053785769,0.7469801,-0.15863544,-0.63714606,-0.104405984,10.093744277954102,-0.638659656047821,0.7648718953132629,40.59400939941406,-73.61458587646484, 3.746854066848755
485,1053802436,0.7408865,-0.15615003,-0.6457563,-0.0985062,10.204675674438477,-0.47633257508277893,1.1493268013000488,38.361427307128906,-75.40719604492188, 6.893671989440918
486,1053819103,0.734687,-0.15420082,-0.6541057,-0.092753135,10.444965362548828,-0.42927759885787964,1.270686149597168,34.688934326171875,-74.75889587402344, 8.735815048217773
487,1053835770,0.7280022,-0.15402734,-0.6621857,-0.08830951,10.529255867004395,-0.4186931252479553,0.8672741651535034,19.143287658691406,-75.3269271850586, 10.084301948547363
488,1053852437,0.72088796,-0.15539558,-0.6699933,-0.08533546,10.420428276062012,-0.73386150598526,1.0010888576507568,4.114987373352051,-75.30168151855469, 9.776686668395996
489,1053869104,0.7135501,-0.15648311,-0.67790854,-0.08245964,10.709465980529785,-0.7669010162353516,0.7806567549705505,4.879353046417236,-76.60101318359375, 7.751186370849609
490,1053885771,0.7059382,-0.15821943,-0.685627,-0.080830306,11.142890930175781,-0.47403037548065186,0.8793767690658569,-4.520106315612793,-75.94385528564453, 4.717014312744141
491,1053902438,0.69777113,-0.16032718,-0.6935239,-0.080221355,11.409943580627441,-0.4154072105884552,0.924116849899292,-11.63955307006836,-78.52886962890625, 1.0151883363723755
492,1053919105,0.6886238,-0.16292891,-0.70198536,-0.080424935,11.605635643005371,-0.21526449918746948,1.0686668157577515,-18.65199089050293,-85.2945556640625, -1.6882551908493042
493,1053935772,0.6784142,-0.16594547,-0.71108145,-0.08111559,11.986040115356445,0.2930375039577484,1.0506486892700195,-23.806655883789062,-93.11820220947266, -3.2873055934906006
494,1053952439,0.6670058,-0.16977039,-0.720693,-0.082965456,12.08936595916748,1.0130033493041992,0.6673877239227295,-34.325923919677734,-100.52137756347656, -5.993585586547852
495,1053969106,0.6542309,-0.17386107,-0.7310641,-0.08543901,12.520262718200684,1.6751505136489868,0.6090990304946899,-39.79698944091797,-110.20967102050781, -9.195918083190918
496,1053985773,0.64004874,-0.17739542,-0.742281,-0.08881153,13.237272262573242,1.6445093154907227,1.0595040321350098,-42.99845886230469,-119.69696044921875, -17.86379623413086
497,1054002440,0.6239256,-0.18187541,-0.7543174,-0.092971034,12.713725090026855,3.1047043800354004,1.8290979862213135,-53.044410705566406,-132.84207153320312, -18.676498413085938
498,1054019107,0.6056232,-0.18717456,-0.7670141,-0.099377714,14.144347190856934,3.919977903366089,3.151445150375366,-70.51570129394531,-144.71286010742188, -26.27408790588379
499,1054035774,0.5850418,-0.19376594,-0.78031236,-0.106271796,13.919699668884277,1.9803534746170044,4.802645683288574,-71.67749786376953,-160.16799926757812, -26.749046325683594
500,1054052441,0.5624576,-0.20241055,-0.7934729,-0.114334166,13.742690086364746,0.5977513790130615,6.189306259155273,-89.86204528808594,-170.15567016601562, -21.87722396850586
501,1054069108,0.537569,-0.21649183,-0.8051477,-0.12604819,11.828536987304688,-2.2336196899414062,5.441587924957275,-135.25001525878906,-176.07949829101562, -6.548499584197998
502,1054085775,0.51247096,-0.23093246,-0.8156452,-0.1369923,12.677242279052734,-3.0337839126586914,-3.645801067352295,-133.36842346191406,-174.22854614257812, -0.8034529685974121
503,1054102442,0.4925076,-0.23777416,-0.8251436,-0.14155622,14.329005241394043,2.2591257095336914,-9.030172348022461,-64.72301483154297,-144.723388671875, -14.398516654968262
504,1054119109,0.47431624,-0.24112043,-0.8348763,-0.14094965,13.976330757141113,0.6715279817581177,-5.311243057250977,-20.54056739807129,-140.4146270751953, -15.694412231445312
505,1054135776,0.45795184,-0.2418189,-0.84423184,-0.13811767,12.260100364685059,-1.0031330585479736,-1.7409354448318481,-3.735518455505371,-129.8990020751953, -16.837055206298828
506,1054152443,0.44482407,-0.2422156,-0.8516425,-0.13479008,9.82314682006836,-1.071966528892517,2.3616464138031006,3.626255512237549,-105.53829193115234, -10.727036476135254
507,1054169110,0.43339428,-0.2458833,-0.85538274,-0.1415316,6.401811122894287,2.9898035526275635,3.2683231830596924,-65.91338348388672,-70.65811920166016, -14.691322326660156
508,1054185777,0.4261343,-0.2509039,-0.854497,-0.15903361,7.924416542053223,-0.4764083921909332,5.070796012878418,-130.6802215576172,-15.497089385986328, -26.918737411499023
509,1054202444,0.42394355,-0.25592113,-0.84975064,-0.18083169,5.547005653381348,-0.39238446950912476,6.166957378387451,-151.3905029296875,32.98220443725586, -27.337064743041992
510,1054219111,0.42615488,-0.26019675,-0.84178257,-0.20516275,5.361622333526611,-0.8962705731391907,5.269896984100342,-160.29110717773438,73.44677734375, -27.927257537841797
511,1054235778,0.43328968,-0.26357836,-0.8310187,-0.22846103,6.071652889251709,-1.235944390296936,3.8080458641052246,-146.82861328125,109.52774810791016, -18.146074295043945
512,1054252445,0.44563177,-0.2654093,-0.8184405,-0.24723554,6.98725700378418,-0.9022586941719055,2.416292190551758,-109.77076721191406,138.9057159423828, -2.07802152633667
513,1054269112,0.46280646,-0.26571307,-0.8041639,-0.26177728,7.622394561767578,0.332914799451828,1.6145979166030884,-75.3395767211914,166.1642303466797, 13.598912239074707
514,1054285779,0.48351634,-0.26485625,-0.7882185,-0.27344984,8.296144485473633,0.4906772971153259,1.5923019647598267,-52.325740814208984,187.86016845703125, 25.717487335205078
515,1054302446,0.50668466,-0.2635982,-0.7702553,-0.28371352,9.07796573638916,0.041701167821884155,1.2126327753067017,-42.6734733581543,206.07472229003906, 36.51930236816406
516,1054319113,0.5317047,-0.26175007,-0.7503316,-0.29288167,9.952653884887695,-0.212754026055336,0.0922478437423706,-35.28504943847656,221.8752899169922, 44.371402740478516
517,1054335780,0.5582625,-0.2584615,-0.72894067,-0.30031055,11.01182746887207,-0.24957498908042908,-0.8193058967590332,-21.234264373779297,234.94351196289062, 49.03028106689453
518,1054352447,0.58578074,-0.253932,-0.7062602,-0.30590212,11.903173446655273,-1.0717099905014038,-1.410428524017334,-8.216957092285156,244.00962829589844, 54.13261032104492
519,1054369114,0.6141242,-0.2478873,-0.68263996,-0.308879,12.609862327575684,-1.4205503463745117,-1.521679162979126,10.048661231994629,250.43295288085938, 60.67673873901367
520,1054385781,0.6428201,-0.24057542,-0.65826994,-0.3091709,13.193931579589844,-1.831634759902954,-1.4058330059051514,27.01349639892578,253.37985229492188, 68.08807373046875
521,1054402448,0.67138684,-0.232491,-0.6330974,-0.30720603,13.888643264770508,-1.6046909093856812,-1.3794370889663696,38.72487258911133,254.265625, 75.61481475830078
522,1054419115,0.6995577,-0.22446741,-0.6064464,-0.3040664,14.68323802947998,-0.7581961154937744,-1.3857063055038452,39.80378723144531,257.3814697265625, 82.82864379882812
523,1054435782,0.7271142,-0.21590875,-0.57868356,-0.29968953,16.05638313293457,-0.6630027890205383,-1.122802972793579,44.26625442504883,259.400634765625, 86.9836196899414
524,1054452449,0.75336385,-0.20671463,-0.5505531,-0.29428452,16.680349349975586,0.06560363620519638,-2.2500405311584473,48.83811950683594,255.8465118408203, 87.45137786865234
525,1054469116,0.77760905,-0.19755948,-0.52279454,-0.28806326,16.1812801361084,-0.27066555619239807,-4.734443187713623,49.62854766845703,245.12278747558594, 87.248046875
526,1054485783,0.79956967,-0.18829635,-0.49680427,-0.28003305,15.924893379211426,-1.2158911228179932,-6.346595764160156,57.109195709228516,225.2521209716797, 89.6103286743164
527,1054502450,0.81848794,-0.18148732,-0.4729297,-0.27106726,15.354940414428711,-1.3789067268371582,-8.344232559204102,46.94944381713867,197.3380889892578, 94.54090118408203
528,1054519117,0.8335667,-0.17608778,-0.4539682,-0.26090768,13.397517204284668,0.34626591205596924,-10.63850212097168,47.26889419555664,153.14010620117188, 92.55464935302734
529,1054535784,0.84345394,-0.17383124,-0.4412277,-0.25236204,11.870307922363281,2.7339529991149902,-11.756402015686035,29.092872619628906,97.65808868408203, 76.27242279052734
530,1054552451,0.84861475,-0.17258362,-0.4356777,-0.24546497,10.90584945678711,4.63060998916626,-11.83315658569336,25.064834594726562,41.90852737426758, 52.9908447265625
531,1054569118,0.8496873,-0.1700939,-0.4377248,-0.23978518,10.531190872192383,4.456821918487549,-11.135443687438965,36.6279296875,-11.05534553527832, 26.27313804626465
532,1054585785,0.8476953,-0.16599788,-0.44583318,-0.23471361,12.208325386047363,2.9017200469970703,-8.738821029663086,50.58272171020508,-52.2663459777832, 5.762267589569092
533,1054602452,0.8426984,-0.16117842,-0.45911244,-0.2304277,9.863463401794434,3.973597764968872,-6.015162944793701,57.30155944824219,-89.49736785888672, -11.77600383758545
534,1054619119,0.83720493,-0.15716888,-0.4724304,-0.22626473,10.49272346496582,-1.2214363813400269,4.53228759765625,51.721717834472656,-92.39928436279297, -10.750617027282715
535,1054635786,0.83351845,-0.15344657,-0.4823036,-0.22155035,8.860810279846191,0.7235233783721924,11.693652153015137,48.453346252441406,-67.74697875976562, -0.1163613349199295
536,1054652453,0.83036214,-0.15024774,-0.49008638,-0.21849497,10.064698219299316,8.94672679901123,11.758288383483887,37.32161331176758,-53.09225845336914, -4.875334739685059
537,1054669120,0.82227284,-0.15786487,-0.49942297,-0.22253753,12.895126342773438,9.823263168334961,5.1917877197265625,-51.13372039794922,-87.53675842285156, -17.936805725097656
538,1054685787,0.8128503,-0.1696515,-0.5101419,-0.22416085,14.797011375427246,-6.1016364097595215,-4.136762619018555,-65.75470733642578,-108.94175720214844, 6.558398246765137
539,1054702454,0.80649185,-0.16913669,-0.52300155,-0.2177915,13.018795013427734,-3.163891315460205,0.7163461446762085,37.92503356933594,-100.48350524902344, 10.285605430603027
540,1054719121,0.79982835,-0.16901481,-0.53484577,-0.2136557,10.38918399810791,0.014138802886009216,1.7701777219772339,25.848926544189453,-93.928466796875, 0.023058604449033737
541,1054735788,0.7944524,-0.16744787,-0.5456123,-0.20763868,10.068742752075195,-2.1801304817199707,2.005368232727051,40.62712478637695,-83.32855224609375, 8.196294784545898
542,1054752455,0.7903906,-0.16427377,-0.5547714,-0.20131032,9.625974655151367,-1.2483792304992676,2.154937744140625,49.797691345214844,-67.68489074707031, 7.5821051597595215
543,1054769122,0.7872759,-0.16149889,-0.5620785,-0.19540444,9.707914352416992,-0.7273287773132324,1.9550034999847412,44.52585983276367,-54.08550262451172, 10.203326225280762
544,1054785789,0.78449214,-0.1592019,-0.56840086,-0.19012512,10.109968185424805,0.5820431113243103,1.9041869640350342,38.56434631347656,-47.4260139465332, 10.191303253173828
545,1054802456,0.7812284,-0.15872593,-0.5742897,-0.18622509,10.090262413024902,0.6199200749397278,2.179372787475586,22.259305953979492,-47.837310791015625, 9.716205596923828
546,1054819123,0.7774721,-0.15931253,-0.5803184,-0.18272227,9.824158668518066,0.22988276183605194,2.0564777851104736,14.624176025390625,-51.46514129638672, 10.996574401855469
547,1054835790,0.77359086,-0.1594736,-0.5866106,-0.17892367,9.76369571685791,-0.19969302415847778,1.7645783424377441,18.27389144897461,-53.16659164428711, 10.434381484985352
548,1054852457,0.7699698,-0.15839106,-0.5929704,-0.17448486,9.8776273727417,-0.19664248824119568,1.4628043174743652,27.839229583740234,-51.65260314941406, 9.068283081054688
549,1054869124,0.76689976,-0.15573256,-0.5991493,-0.16921079,10.116697311401367,-0.37482771277427673,1.4233994483947754,39.97109603881836,-47.47074890136719, 7.920151710510254
550,1054885791,0.7644283,-0.15211089,-0.6049067,-0.16309458,9.899043083190918,-0.1869577318429947,1.4029310941696167,48.67121124267578,-42.567195892333984, 9.537141799926758
551,1054902458,0.76242787,-0.14797212,-0.610148,-0.1566133,9.841063499450684,0.06444448977708817,1.3373318910598755,52.820281982421875,-37.701316833496094, 10.369888305664062
552,1054919125,0.7603747,-0.14462577,-0.6149715,-0.15074438,9.833638191223145,0.13157743215560913,1.4040184020996094,45.594364166259766,-35.96635055541992, 10.84971809387207
553,1054935792,0.7581594,-0.14188735,-0.61959594,-0.14547677,10.01672649383545,0.13660739362239838,1.3652756214141846,39.5058708190918,-35.6490364074707, 10.305870056152344
554,1054952459,0.7556067,-0.14063384,-0.6239827,-0.14116055,9.94772720336914,0.56245356798172,1.6082490682601929,27.14479637145996,-36.408973693847656, 11.565892219543457
555,1054969126,0.7527291,-0.14138815,-0.62791944,-0.1382957,9.851237297058105,0.3266083300113678,1.4189494848251343,9.736215591430664,-36.016815185546875, 12.761578559875488
556,1054985793,0.7496424,-0.1434823,-0.6315266,-0.13646808,9.766447067260742,0.018673429265618324,1.3215183019638062,-2.192061185836792,-35.48675537109375, 13.301952362060547
557,1055002460,0.746383,-0.14595175,-0.635145,-0.13491304,9.660762786865234,-0.44019946455955505,1.2847524881362915,-5.469455242156982,-36.38395690917969, 13.355295181274414
558,1055019127,0.74292034,-0.14801274,-0.6391075,-0.13305381,9.734856605529785,-0.43266355991363525,1.2038570642471313,-1.9285966157913208,-38.97068405151367, 12.598801612854004
559,1055035794,0.7393723,-0.14951523,-0.6433106,-0.1308643,9.900467872619629,-0.3716975450515747,1.0739643573760986,2.5083889961242676,-40.40583038330078, 11.508209228515625
560,1055052461,0.7358448,-0.15080334,-0.6474479,-0.12884939,9.901819229125977,-0.3583490550518036,0.9029388427734375,2.7882723808288574,-39.614166259765625, 9.758079528808594
561,1055069128,0.73227775,-0.15186553,-0.651588,-0.12704143,9.934178352355957,-0.38350909948349,0.8048489689826965,2.9721083641052246,-39.395694732666016, 7.667608737945557
562,1055085795,0.72865075,-0.152822,-0.6557252,-0.12545247,9.991604804992676,-0.23415032029151917,0.6648946404457092,2.4581732749938965,-39.3336296081543, 6.041921615600586
563,1055102462,0.72505254,-0.1538828,-0.6596772,-0.12427871,10.038451194763184,0.048346661031246185,0.5342045426368713,-0.06615793704986572,-37.934635162353516, 4.6527814865112305
564,1055119129,0.72137505,-0.1552147,-0.66352445,-0.12353994,10.013911247253418,-0.02185494266450405,0.412653386592865,-3.5644092559814453,-37.54784393310547, 3.7592267990112305
565,1055135796,0.7175802,-0.15667315,-0.6673804,-0.12302709,10.150634765625,-0.15389777719974518,0.38773709535598755,-5.3414530754089355,-37.99694061279297, 3.109109401702881
566,1055152463,0.7136372,-0.15820678,-0.67129606,-0.12269693,10.194138526916504,-0.08525858074426651,0.21803680062294006,-6.659926414489746,-38.842620849609375, 2.3649420738220215
567,1055169130,0.70946467,-0.15987357,-0.6753078,-0.12271831,10.280586242675781,0.06569095700979233,0.13956056535243988,-9.104331970214844,-40.10759735107422, 0.9586186408996582
568,1055185797,0.7048249,-0.16176496,-0.67958087,-0.12338555,10.492749214172363,-0.09899339824914932,0.12046242505311966,-13.492341995239258,-43.0350456237793, -1.8281580209732056
569,1055202464,0.69970053,-0.16365205,-0.6841889,-0.12459097,10.669829368591309,-0.12426099926233292,0.28528714179992676,-16.240665435791016,-46.324954986572266, -5.237931251525879
570,1055219131,0.69390935,-0.16565676,-0.68923974,-0.12647648,10.990447998046875,0.04694974794983864,0.4301448464393616,-20.377954483032227,-50.9332160949707, -9.023810386657715
571,1055235798,0.6872728,-0.16787624,-0.694863,-0.12899335,11.274606704711914,0.07342278212308884,0.42262178659439087,-24.86012077331543,-57.144222259521484, -12.402375221252441
572,1055252465,0.6795131,-0.17046379,-0.70119655,-0.13239199,11.692742347717285,0.5924205780029297,0.4544464945793152,-31.48050308227539,-65.18280029296875, -16.624042510986328
573,1055269132,0.67028797,-0.17328635,-0.70855355,-0.13652067,12.133585929870605,0.6861700415611267,1.152258276939392,-36.88378143310547,-76.3955307006836, -21.430438995361328
574,1055285799,0.65931046,-0.17526668,-0.71755946,-0.14035664,13.087576866149902,0.8913072347640991,1.615173101425171,-32.11733627319336,-92.1032943725586, -27.789016723632812
575,1055302466,0.64630204,-0.17640458,-0.7283406,-0.14385836,13.375415802001953,1.029103398323059,2.1841530799865723,-27.383197784423828,-109.7776870727539, -34.524471282958984
576,1055319133,0.6310163,-0.17708027,-0.7407995,-0.1472315,13.969077110290527,1.7788912057876587,2.712759494781494,-25.7888126373291,-128.35841369628906, -40.551055908203125
577,1055335800,0.6144787,-0.17760238,-0.75366837,-0.15118656,14.257482528686523,1.8719547986984253,3.6857712268829346,-29.194854736328125,-135.67507934570312, -45.618324279785156
578,1055352467,0.5968144,-0.17955016,-0.76627904,-0.15617533,14.30708122253418,1.8010269403457642,5.758638858795166,-42.2176513671875,-140.67408752441406, -43.44757080078125
579,1055369134,0.5773602,-0.18995488,-0.7756829,-0.169967,14.052326202392578,1.6218950748443604,7.0597381591796875,-128.9586181640625,-135.20631408691406, -32.973350524902344
580,1055385801,0.5566348,-0.20231962,-0.7840979,-0.18551351,11.913161277770996,-0.32270580530166626,3.7849578857421875,-148.91485595703125,-138.11325073242188, -29.682483673095703
581,1055402468,0.5349525,-0.2115478,-0.7944228,-0.1948488,11.411700248718262,-1.5477739572525024,-2.2541749477386475,-102.30802917480469,-155.2520294189453, -26.70795440673828
582,1055419135,0.5159644,-0.21396312,-0.8064445,-0.19403109,13.790453910827637,-0.7835191488265991,-7.925014495849609,-15.592338562011719,-152.41749572753906, -25.4495849609375
583,1055435802,0.49758738,-0.21242362,-0.8197989,-0.18765162,14.87112045288086,-0.02447378821671009,-6.280457973480225,31.955026626586914,-156.64959716796875, -28.804161071777344
584,1055452469,0.47982764,-0.21100995,-0.83204013,-0.18152066,12.31998062133789,-0.6706681251525879,-0.9998905658721924,29.589406967163086,-149.15818786621094, -26.530054092407227
585,1055469136,0.4647144,-0.21174468,-0.8408319,-0.17946245,8.741813659667969,-0.26188409328460693,5.408329010009766,-1.2660754919052124,-119.42457580566406, -19.3758544921875
586,1055485803,0.4519767,-0.21672407,-0.8442627,-0.1896536,6.7465009689331055,1.1219152212142944,5.424524307250977,-88.79840850830078,-76.00440979003906, -23.249818801879883
587,1055502470,0.4437211,-0.222571,-0.84351325,-0.20508415,6.5495924949646,-0.2545285224914551,6.23427677154541,-120.6777114868164,-30.353668212890625, -22.425962448120117
588,1055519137,0.44019067,-0.22871156,-0.8391729,-0.2229627,5.790667533874512,-0.6310169100761414,5.284012794494629,-133.60157775878906,11.30321979522705, -16.048206329345703
589,1055535804,0.44210842,-0.23384196,-0.8322811,-0.2390951,5.618379592895508,-0.8163089752197266,4.449684143066406,-115.809326171875,49.23503875732422, -4.2423787117004395
590,1055552471,0.44944224,-0.2378879,-0.8233281,-0.25207573,5.826499938964844,-0.8518700003623962,3.8446767330169678,-89.1548080444336,83.18450927734375, 11.33480167388916
591,1055569138,0.46180207,-0.24087562,-0.81253344,-0.2617396,6.401330471038818,-0.631890058517456,3.1142971515655518,-62.08134460449219,113.71620178222656, 27.304058074951172
592,1055585805,0.4785775,-0.24297044,-0.7998006,-0.26879033,7.165917873382568,-0.2692846655845642,2.245368003845215,-40.82206344604492,141.80210876464844, 41.759239196777344
593,1055602472,0.49899957,-0.24406184,-0.78507656,-0.27402264,7.796875476837158,0.2846604585647583,1.6994328498840332,-25.108070373535156,167.21316528320312, 52.28471755981445
594,1055619139,0.52209395,-0.24440098,-0.76810515,-0.2787483,8.484294891357422,0.2796206474304199,1.2143535614013672,-19.542972564697266,189.9091339111328, 58.76517105102539
595,1055635806,0.547239,-0.24387032,-0.7487821,-0.2835179,9.380670547485352,0.2984639108181,0.46512115001678467,-17.7157039642334,210.9191131591797, 61.894287109375
596,1055652473,0.57375556,-0.24205562,-0.7274773,-0.28808108,10.40424919128418,0.5322256088256836,-0.10071054100990295,-13.386639595031738,227.5941925048828, 62.05408477783203
597,1055669140,0.60121465,-0.23922883,-0.7043986,-0.29177612,11.402364730834961,0.4002586603164673,-0.40306222438812256,-6.994420051574707,239.87144470214844, 65.23542785644531
598,1055685807,0.6294888,-0.23491684,-0.68005,-0.29341176,11.982036590576172,0.21728841960430145,-0.6130431890487671,7.914183616638184,248.66795349121094, 70.27931213378906
599,1055702474,0.65850663,-0.22895825,-0.65457994,-0.29235682,13.126151084899902,0.015462326817214489,-0.4596136510372162,26.56004524230957,255.9865264892578, 77.54142761230469
600,1055719141,0.6878268,-0.22180775,-0.62786335,-0.28893527,14.13771915435791,-0.4839044511318207,-0.6265053749084473,40.58513641357422,261.6759338378906, 85.466796875
601,1055735808,0.7171661,-0.21303573,-0.6002615,-0.28279826,15.512322425842285,-1.0073431730270386,-0.3429446816444397,58.24946594238281,265.0450439453125, 92.70233154296875
602,1055752475,0.7458279,-0.20345367,-0.5715795,-0.2750354,17.003965377807617,-0.7207536697387695,-0.5139570236206055,65.86418151855469,266.79034423828125, 97.64486694335938
603,1055769142,0.77283394,-0.19377825,-0.5423366,-0.26655,17.675573348999023,-0.5282161831855774,-2.2288522720336914,65.80640411376953,262.3504943847656, 98.64202117919922
604,1055785809,0.79753184,-0.18371643,-0.5139557,-0.25698444,16.953855514526367,-1.566575288772583,-4.459142208099365,70.39279174804688,248.46649169921875, 97.56726837158203
605,1055802476,0.8193796,-0.17429674,-0.48727766,-0.24657348,15.719575881958008,-1.5240662097930908,-5.530826091766357,69.26972198486328,226.90048217773438, 97.28482818603516
606,1055819143,0.837659,-0.16855416,-0.46284807,-0.23598489,14.924720764160156,-0.7882198691368103,-6.061725616455078,48.68458938598633,195.88063049316406, 101.86117553710938
607,1055835810,0.8515967,-0.16860883,-0.44158867,-0.22661382,13.319818496704102,1.1940349340438843,-6.802993297576904,11.533378601074219,155.86392211914062, 102.58057403564453
608,1055852477,0.86103296,-0.17332625,-0.4251277,-0.21873936,12.021013259887695,1.1051691770553589,-8.723536491394043,-18.055830001831055,108.63029479980469, 95.4068603515625
609,1055869144,0.86583436,-0.17804132,-0.41627178,-0.2129559,10.171395301818848,2.8502471446990967,-10.797028541564941,-18.235191345214844,52.62391662597656, 66.9970932006836
610,1055885811,0.8663752,-0.18066826,-0.41567805,-0.20967813,10.609655380249023,3.498189687728882,-9.73221492767334,-6.095714092254639,-2.5558996200561523, 29.77109146118164
611,1055902478,0.8632356,-0.18085067,-0.4230147,-0.20778868,9.395885467529297,3.8501176834106445,-9.93970775604248,11.35435676574707,-54.99406814575195, -0.6198725700378418
612,1055919145,0.85732824,-0.17798656,-0.4369796,-0.20581092,10.656064987182617,2.509242057800293,-7.393100738525391,35.713191986083984,-98.0776596069336, -21.134700775146484
613,1055935812,0.85096246,-0.17244521,-0.4528455,-0.20262481,11.393590927124023,-1.521159291267395,4.091573238372803,57.249698638916016,-108.29596710205078, -25.02037239074707
614,1055952479,0.8463162,-0.16606227,-0.4656319,-0.19839188,9.367871284484863,-2.461303234100342,11.393010139465332,63.18047332763672,-84.98648071289062, -15.47631549835205
615,1055969146,0.84178925,-0.16088572,-0.47650546,-0.19608516,10.06337833404541,5.880856037139893,11.931109428405762,47.51866149902344,-72.95599365234375, -20.488338470458984
616,1055985813,0.8335304,-0.16307299,-0.48939916,-0.19779544,12.057450294494629,7.2389421463012695,2.1928415298461914,-9.694576263427734,-102.3978500366211, -26.85308074951172
617,1056002480,0.8256219,-0.16216846,-0.5048812,-0.19273049,18.334646224975586,-7.4105963706970215,-4.018579006195068,34.71389389038086,-119.43264770507812, -0.8193565607070923
618,1056019147,0.8191794,-0.1528509,-0.52072704,-0.18554026,11.691160202026367,3.785337448120117,0.8559955358505249,91.99459075927734,-107.57666015625, -16.456172943115234
619,1056035814,0.8123272,-0.14847957,-0.5343924,-0.18028702,9.715982437133789,2.175166368484497,2.5363540649414062,53.9730224609375,-101.0207290649414, -7.876706600189209
620,1056052481,0.8066814,-0.14428872,-0.54616416,-0.17363967,10.084404945373535,0.51773601770401,1.8156079053878784,56.96622085571289,-87.65948486328125, 4.007779598236084
621,1056069148,0.8019586,-0.14029546,-0.55617833,-0.16686955,9.558714866638184,-0.7043936252593994,2.057553768157959,55.14888381958008,-74.8007583618164, 8.273917198181152
622,1056085815,0.798254,-0.13628557,-0.5643616,-0.16035312,10.145492553710938,0.3214276134967804,1.9691460132598877,53.15437698364258,-60.550140380859375, 9.736668586730957
623,1056102482,0.79507107,-0.13337043,-0.57116866,-0.15440485,10.525403022766113,0.963273286819458,2.063202381134033,43.91366958618164,-51.648685455322266, 12.728157997131348
624,1056119149,0.7919301,-0.13271762,-0.57692355,-0.1496404,10.351480484008789,0.7954451441764832,2.1321229934692383,25.81794548034668,-47.05034637451172, 16.15248680114746
625,1056135816,0.78896135,-0.13353379,-0.58180356,-0.14564925,10.2437162399292,0.44802895188331604,1.9195938110351562,14.009181022644043,-42.41339111328125, 18.746173858642578
626,1056152483,0.7867039,-0.13459952,-0.58557826,-0.1416985,10.439886093139648,0.29752233624458313,2.4060897827148438,12.040532112121582,-33.78901672363281, 21.25428581237793
627,1056169150,0.7856701,-0.13752407,-0.58670115,-0.13996977,10.178821563720703,0.4113059341907501,2.9884488582611084,-8.409963607788086,-14.280535697937012, 20.367185592651367
628,1056185817,0.7845478,-0.14425561,-0.58628786,-0.14121532,10.176949501037598,-0.06480111181735992,2.7151710987091064,-42.53438949584961,-7.201170921325684, 21.0308780670166
629,1056202484,0.78410316,-0.15100935,-0.58480954,-0.14274555,9.998551368713379,-0.7978019118309021,1.414793848991394,-44.16211700439453,1.5263826847076416, 21.303974151611328
630,1056219151,0.7839897,-0.1542013,-0.5843289,-0.14192256,9.329715728759766,-1.1915322542190552,1.3323854207992554,-14.172365188598633,-1.4693905115127563, 18.958703994750977
631,1056235818,0.7838248,-0.15569615,-0.58459896,-0.14007623,9.390273094177246,-0.8268718719482422,2.101994752883911,-0.2323330193758011,-5.155188083648682, 16.806743621826172
632,1056252485,0.7836785,-0.15673402,-0.585009,-0.1380113,9.275208473205566,-0.6451833844184875,1.9327921867370605,3.2647836208343506,-5.634607791900635, 16.013683319091797
633,1056269152,0.7831365,-0.15783407,-0.58589804,-0.1360487,9.535284996032715,-0.27264004945755005,2.137751579284668,2.5484344959259033,-9.761202812194824, 14.819978713989258
634,1056285819,0.78202885,-0.15963927,-0.58720416,-0.1346763,9.45196533203125,-0.13725893199443817,1.948920726776123,-3.849670648574829,-14.311576843261719, 13.502066612243652
635,1056302486,0.7802176,-0.1617157,-0.5893147,-0.13348009,9.256576538085938,-0.5522714257240295,2.1132419109344482,-6.046634674072266,-21.541393280029297, 12.117530822753906
636,1056319153,0.7777613,-0.16354293,-0.5923055,-0.13234647,8.951417922973633,-1.0461010932922363,2.1485016345977783,-4.872781276702881,-28.586288452148438, 9.20201301574707
637,1056335820,0.77475107,-0.1644298,-0.59630716,-0.13092658,9.033517837524414,-1.314387321472168,2.059556722640991,1.6195048093795776,-35.721580505371094, 5.259328842163086
638,1056352487,0.77138895,-0.16409627,-0.60115904,-0.12899557,9.235308647155762,-1.4320886135101318,1.887283444404602,10.585172653198242,-41.18056869506836, 1.6965253353118896
639,1056369154,0.76776373,-0.16306409,-0.60652953,-0.12677091,9.534476280212402,-0.9467693567276001,1.6525845527648926,15.66922378540039,-44.73616027832031, -0.45731836557388306
640,1056385821,0.76381683,-0.16192016,-0.61226636,-0.12448141,9.66968059539795,-0.4417688548564911,1.3889284133911133,16.488435745239258,-47.99332046508789, -1.2748324871063232
641,1056402488,0.7593981,-0.16108684,-0.6183869,-0.12232521,9.736652374267578,-0.23145301640033722,1.2882838249206543,14.098661422729492,-52.116539001464844, -1.498268723487854
642,1056419155,0.7544803,-0.1604383,-0.62497586,-0.1201009,9.797813415527344,-0.29806745052337646,1.085106611251831,13.264241218566895,-56.91898727416992, -1.2939180135726929
643,1056435822,0.74911517,-0.15954477,-0.6321166,-0.11747664,9.794294357299805,-0.36269789934158325,0.8981367349624634,16.21501350402832,-61.94752883911133, -1.2495205402374268
644,1056452489,0.7431794,-0.158508,-0.63990754,-0.11435975,9.878872871398926,-0.7421441674232483,0.7995178699493408,18.9930362701416,-68.20527648925781, -0.5090997815132141
645,1056469156,0.7369971,-0.1566478,-0.6481317,-0.110553935,10.183252334594727,-0.5446187853813171,0.687864363193512,26.304241180419922,-71.61077117919922, -1.279431939125061
646,1056485823,0.7306267,-0.15468542,-0.65642095,-0.10662477,10.37108039855957,-0.3879678249359131,0.5526918172836304,27.219099044799805,-72.83763122558594, -1.3240126371383667
647,1056502490,0.72364074,-0.15407482,-0.66467357,-0.103992924,10.519881248474121,-0.033103641122579575,0.7850023508071899,13.89174747467041,-75.04696655273438, -2.1529452800750732
648,1056519157,0.7163359,-0.1537758,-0.6729301,-0.10188781,10.904035568237305,-0.35786929726600647,0.8022481799125671,9.597796440124512,-76.1952133178711, -3.578885555267334
649,1056535824,0.70896626,-0.15434562,-0.6806912,-0.10101512,11.114412307739258,-0.09812133014202118,0.7963436245918274,-0.7989392876625061,-73.3685073852539, -5.149082660675049
650,1056552491,0.7014694,-0.15555339,-0.6880997,-0.101305485,11.42334270477295,0.0030881937127560377,0.4448305368423462,-9.731661796569824,-71.46263885498047, -7.543374538421631
651,1056569158,0.6934005,-0.15714598,-0.6956984,-0.10249436,11.654580116271973,-0.2971842586994171,0.5970860719680786,-16.318315505981445,-74.40147399902344, -10.653937339782715
652,1056585825,0.6844364,-0.1595159,-0.70366627,-0.10466824,11.690234184265137,0.2809351086616516,0.8877677917480469,-25.44217300415039,-79.93740844726562, -12.659217834472656
653,1056602492,0.67429346,-0.16278201,-0.7121824,-0.10782692,11.850692749023438,1.0500084161758423,1.0833203792572021,-35.32521438598633,-87.79954528808594, -14.401535987854004
654,1056619159,0.6625809,-0.16658725,-0.72165906,-0.111551166,11.7954740524292,1.7562434673309326,0.8609509468078613,-41.63996505737305,-99.72259521484375, -16.61216163635254
655,1056635826,0.6490198,-0.17026952,-0.7324487,-0.11532901,12.066115379333496,2.335663318634033,1.1253148317337036,-42.455928802490234,-114.73704528808594, -20.374086380004883
656,1056652493,0.6333245,-0.17284362,-0.7448524,-0.1192486,13.506477355957031,2.5176784992218018,1.9217743873596191,-39.44474411010742,-131.6661834716797, -30.155115127563477
657,1056669160,0.61577296,-0.17386208,-0.7586311,-0.12277878,13.195825576782227,1.408337950706482,3.0323503017425537,-31.752979278564453,-146.3772735595703, -39.56666946411133
658,1056685827,0.5956271,-0.17509763,-0.7735595,-0.12718123,15.67269515991211,1.6031570434570312,4.8557000160217285,-39.3507194519043,-163.9585418701172, -45.686100006103516
659,1056702494,0.5743953,-0.17743173,-0.7879741,-0.13298474,14.91528606414795,-0.6901260018348694,7.145617961883545,-53.05387496948242,-166.95970153808594, -45.90582275390625
660,1056719161,0.551392,-0.18528824,-0.80079126,-0.14271934,13.691058158874512,-0.2173880636692047,5.901078701019287,-99.78340148925781,-170.574951171875, -31.192604064941406
661,1056735828,0.5271535,-0.19648503,-0.8120642,-0.1550968,12.171597480773926,-2.5529842376708984,0.6629817485809326,-130.0887908935547,-171.49899291992188, -22.077335357666016
662,1056752495,0.5059495,-0.20203009,-0.8230787,-0.1604388,14.761994361877441,-0.5867137312889099,-8.773152351379395,-66.48422241210938,-157.11561584472656, -24.573204040527344
663,1056769162,0.48724356,-0.20119269,-0.83513606,-0.15704483,15.065949440002441,1.9679607152938843,-7.511268138885498,9.783937454223633,-151.68101501464844, -29.00914192199707
664,1056785829,0.46933717,-0.19917773,-0.84667814,-0.15227251,13.32373332977295,0.80035799741745,-2.391160011291504,22.19860076904297,-145.99464416503906, -29.57309341430664
665,1056802496,0.45359915,-0.19865938,-0.85590076,-0.14905153,10.7774076461792,-0.7876822352409363,3.0494167804718018,8.882765769958496,-125.34854888916016, -20.42352867126465
666,1056819163,0.44058108,-0.20256518,-0.86060333,-0.15562117,6.292125701904297,2.382228136062622,4.853394985198975,-63.44808578491211,-86.4511947631836, -15.974918365478516
667,1056835830,0.43202642,-0.20806468,-0.86073536,-0.17087163,6.938811302185059,-0.527344286441803,5.858093738555908,-118.30906677246094,-35.85237121582031, -21.69997787475586
668,1056852497,0.42828965,-0.21441153,-0.8570099,-0.19007869,5.080920219421387,-0.4741811156272888,6.0666632652282715,-141.88284301757812,8.734990119934082, -17.278230667114258
669,1056869164,0.42978773,-0.22000344,-0.8502439,-0.20968223,4.4466681480407715,-0.8250856399536133,4.561528205871582,-138.25006103515625,50.0656623840332, -11.592377662658691
670,1056885831,0.4368365,-0.22374132,-0.84138525,-0.22624032,4.344809532165527,-0.45822057127952576,3.441437005996704,-109.58586120605469,86.73493957519531, -2.2845284938812256
671,1056902498,0.4493411,-0.22531569,-0.83095515,-0.23840977,4.876944541931152,-0.44383704662323,2.8426859378814697,-71.74739837646484,119.60913848876953, 9.268511772155762
672,1056919165,0.46671137,-0.22574347,-0.81842,-0.24780935,6.097994804382324,0.013374565169215202,2.2648673057556152,-48.29509735107422,151.4834747314453, 22.501874923706055
673,1056935832,0.4879217,-0.22547428,-0.8034875,-0.2559337,7.177211284637451,0.2680295705795288,1.3419339656829834,-37.00581359863281,179.98057556152344, 32.92573165893555
674,1056952499,0.51225513,-0.22473955,-0.7860322,-0.26313558,8.554104804992676,-0.025714514777064323,0.628812313079834,-29.951271057128906,205.07757568359375, 42.852294921875
675,1056969166,0.5389937,-0.22316891,-0.7662776,-0.26925912,9.77313232421875,0.025613097473978996,0.055128127336502075,-21.622509002685547,226.01734924316406, 50.02824020385742
676,1056985833,0.5670789,-0.22123893,-0.74406433,-0.27539733,11.058441162109375,0.24482199549674988,-0.4131118059158325,-22.856542587280273,242.91229248046875, 54.338722229003906
677,1057002500,0.595762,-0.21867736,-0.7200248,-0.28073534,12.026795387268066,-0.10830006003379822,-0.9035900831222534,-18.850791931152344,253.07427978515625, 58.131431579589844
678,1057019167,0.62490016,-0.21507628,-0.6947822,-0.28376043,12.558256149291992,-0.224736288189888,-1.2000259160995483,-4.77999210357666,258.7897644042969, 65.13960266113281
679,1057035834,0.65417266,-0.21008173,-0.66890967,-0.28369662,13.312198638916016,-0.24978825449943542,-1.0432655811309814,14.936094284057617,260.3017578125, 72.94324493408203
680,1057052501,0.683131,-0.20379646,-0.6427139,-0.28056738,13.964210510253906,-0.6314544677734375,-0.49663591384887695,33.76038360595703,258.41583251953125, 80.64886474609375
681,1057069168,0.711377,-0.19726351,-0.6156168,-0.27576405,15.107147216796875,-0.8217771053314209,-0.20659685134887695,39.58448791503906,257.6535949707031, 87.30632781982422
682,1057085835,0.7382901,-0.19205588,-0.5868409,-0.27140412,16.49832534790039,-0.022185897454619408,-0.7079116702079773,26.232698440551758,258.3353576660156, 90.49569702148438
683,1057102502,0.7633056,-0.18851389,-0.55721766,-0.26708743,17.57415771484375,-1.45331609249115,-2.7736332416534424,13.510936737060547,251.96243286132812, 94.5783920288086
684,1057119169,0.7866171,-0.18463685,-0.5281577,-0.2611366,16.916088104248047,-1.7386654615402222,-6.706629276275635,20.361919403076172,241.02899169921875, 98.00862121582031
