PacketCounter,SampleTimeFine,Quat_W,Quat_X,Quat_Y,Quat_Z,Acc_X,Acc_Y,Acc_Z,Gyr_X,Gyr_Y,Gyr_Z 
1,1084002814,0.73535246,-0.019831292,-0.6772526,-0.013877023,-0.014599347487092018,0.024657342582941055,0.030980844050645828,0.02343333140015602,-0.012400299310684204, -0.008851626887917519
2,1084019481,0.7356909,-0.019960677,-0.676878,-0.014033698,9.790419578552246,-0.11831098049879074,0.7930408120155334,-0.558664083480835,1.4567413330078125, 1.0603464841842651
3,1084036148,0.73582685,-0.02045504,-0.67671114,-0.014229173,9.796588897705078,-0.11275672167539597,0.8041542172431946,-0.397585928440094,1.5165342092514038, 1.2021384239196777
4,1084052815,0.73593515,-0.020632999,-0.6765918,-0.01404531,9.775533676147461,-0.13009175658226013,0.817750871181488,-0.5255597233772278,1.5348730087280273, 1.3076369762420654
5,1084069482,0.736083,-0.020937046,-0.67642534,-0.01386909,9.791927337646484,-0.2280130237340927,0.7718085050582886,-0.590039849281311,1.701458215713501, 1.6564438343048096
6,1084086149,0.73616624,-0.021327894,-0.67632973,-0.01351379,9.751143455505371,-0.05826417729258537,0.8371378183364868,-0.10519136488437653,1.775248408317566, 1.3666616678237915
7,1084102816,0.7363026,-0.021648994,-0.6761724,-0.013441453,9.824231147766113,-0.1803365796804428,0.7743216753005981,-0.9485152363777161,1.76218581199646, 1.4990153312683105
8,1084119483,0.73640263,-0.022023916,-0.6760531,-0.01335367,9.778120040893555,-0.043775346130132675,0.8434651494026184,-1.1029084920883179,1.8075841665267944, 1.5189803838729858
9,1084136150,0.7365376,-0.022372717,-0.6758952,-0.013335339,9.84583854675293,-0.11784031242132187,0.8464633822441101,-1.6024842262268066,1.8025513887405396, 2.0290958881378174
10,1084152817,0.73667413,-0.02267663,-0.67573893,-0.013196576,9.81048583984375,-0.15909062325954437,0.8559666275978088,-1.1537623405456543,1.620496392250061, 2.477381944656372
11,1084169484,0.7367835,-0.022949014,-0.67561626,-0.012898305,9.864102363586426,-0.1678260713815689,0.8645122647285461,0.6494675874710083,1.1435365676879883, 3.0545127391815186
12,1084186151,0.73660374,-0.020401461,-0.6759496,-0.009546603,10.015419006347656,-0.2004818320274353,1.104548692703247,28.353130340576172,-2.8154075145721436, 5.163938522338867
13,1084202818,0.7366962,-0.0137546,-0.6760788,-0.0026835417,10.027469635009766,-0.4013473689556122,0.8405489921569824,65.92170715332031,-1.6163655519485474, 3.8545336723327637
14,1084219485,0.73726666,-0.0057354607,-0.67555666,0.0053231814,9.792773246765137,-0.3462143540382385,0.8703463673591614,80.1100082397461,4.049350738525391, 2.8144702911376953
15,1084236152,0.73793447,0.0020731278,-0.6747378,0.013317594,10.032828330993652,-0.3710877597332001,1.1165515184402466,80.99970245361328,6.045820236206055, 3.6043481826782227
16,1084252819,0.7386298,0.010478546,-0.67366177,0.02227411,9.643096923828125,-0.4172976315021515,0.9238201379776001,89.21322631835938,7.0003862380981445, 5.535797595977783
17,1084269486,0.73903394,0.01549311,-0.67289364,0.02833658,9.539671897888184,0.1984885185956955,0.8738598823547363,58.161956787109375,4.483000755310059, 6.312960624694824
18,1084286153,0.73915416,0.018180816,-0.67251426,0.03233046,9.7608003616333,0.07338070124387741,0.9702311158180237,36.733943939208984,1.6187819242477417, 7.58935022354126
19,1084302820,0.7390534,0.019475408,-0.6724415,0.035259716,9.84676742553711,0.06576009094715118,0.9996713399887085,24.363847732543945,-0.7310905456542969, 9.164712905883789
20,1084319487,0.738807,0.020347653,-0.67253244,0.038082797,10.004839897155762,-0.188542902469635,1.0806864500045776,21.435333251953125,-2.126012086868286, 10.97902774810791
21,1084336154,0.7385193,0.021473642,-0.6726154,0.04143378,10.161822319030762,-0.33916643261909485,1.1625322103500366,25.114187240600586,-2.33890700340271, 12.47232437133789
22,1084352821,0.73814744,0.022400381,-0.67277735,0.04480394,10.197563171386719,-0.2817316949367523,1.254753589630127,23.845096588134766,-3.1925675868988037, 13.34147834777832
23,1084369488,0.73754054,0.022715762,-0.6732315,0.047724467,10.274609565734863,-0.23456677794456482,1.2830294370651245,18.410236358642578,-5.833061218261719, 13.961325645446777
24,1084386155,0.7366756,0.023203297,-0.6738989,0.051293626,10.155795097351074,-0.4912174940109253,1.2686654329299927,18.86888885498047,-8.129310607910156, 16.31920051574707
25,1084402822,0.7354808,0.023585254,-0.6748508,0.055572398,10.188582420349121,-0.6252502799034119,1.363165020942688,21.576438903808594,-11.081336975097656, 20.42369842529297
26,1084419489,0.7336156,0.024038859,-0.67640424,0.060891837,10.247636795043945,-0.14499405026435852,1.5492208003997803,26.645526885986328,-17.28262710571289, 25.53267478942871
27,1084436156,0.73130876,0.023465924,-0.6784918,0.06546708,10.30686092376709,0.7056182622909546,1.7171845436096191,17.807025909423828,-22.025453567504883, 27.090730667114258
28,1084452823,0.72843593,0.022259682,-0.6811841,0.06981351,10.574729919433594,0.31915801763534546,1.728648066520691,13.27596378326416,-27.835742950439453, 30.091371536254883
29,1084469490,0.7251267,0.020612659,-0.68431777,0.073999174,10.691315650939941,-0.11709295958280563,1.7433617115020752,10.103434562683105,-32.235660552978516, 32.128170013427734
30,1084486157,0.72153664,0.018765636,-0.6877155,0.07797833,10.598393440246582,-0.6118994355201721,1.623055338859558,11.066054344177246,-35.35078048706055, 32.60499572753906
31,1084502824,0.7179979,0.019145986,-0.6907408,0.083603635,10.131682395935059,-0.054551318287849426,1.3752753734588623,26.995634078979492,-34.24517822265625, 29.935462951660156
32,1084519491,0.71452963,0.020812234,-0.693541,0.08952874,10.053309440612793,0.09920218586921692,0.44897446036338806,37.798580169677734,-33.87897872924805, 25.638608932495117
33,1084536158,0.7109734,0.024274746,-0.6961809,0.096228436,9.953466415405273,-0.2813636064529419,0.48239201307296753,47.50381088256836,-33.90501403808594, 21.129323959350586
34,1084552825,0.7077562,0.028642522,-0.69824255,0.10352876,9.7055082321167,-0.7304696440696716,1.58205246925354,55.1537971496582,-29.711271286010742, 19.5494384765625
35,1084569492,0.7055036,0.033882536,-0.6990526,0.11154527,9.131808280944824,-1.1297889947891235,3.0398223400115967,63.50846481323242,-19.75046157836914, 17.856212615966797
36,1084586159,0.70462584,0.0392332,-0.6983661,0.1193646,8.762436866760254,-0.924613356590271,4.092936992645264,63.828304290771484,-6.851911544799805, 14.762661933898926
37,1084602826,0.70529765,0.043917518,-0.69626045,0.1258887,8.492774963378906,-0.5569148659706116,4.454733371734619,54.990055084228516,6.543367862701416, 9.945821762084961
38,1084619493,0.7075889,0.047213245,-0.69298595,0.12984376,8.688050270080566,-0.09860175848007202,4.291939735412598,36.33931350708008,19.309240341186523, 2.426568031311035
39,1084636160,0.71147317,0.04900508,-0.6886217,0.13116777,8.776263236999512,-0.1998208612203598,4.198704242706299,16.82845687866211,31.82902717590332, -4.808485507965088
40,1084652827,0.7166775,0.04948815,-0.68338823,0.13001902,8.976606369018555,0.017084239050745964,3.724606513977051,-1.0280108451843262,41.98884582519531, -12.112581253051758
41,1084669494,0.72298795,0.04888247,-0.6773659,0.12678517,9.24884033203125,0.05365205556154251,3.299220561981201,-15.906817436218262,50.91761016845703, -18.437700271606445
42,1084686161,0.73020136,0.04732207,-0.6706263,0.12176752,9.54040241241455,0.08599408715963364,2.9273526668548584,-28.653554916381836,58.721744537353516, -23.84090232849121
43,1084702828,0.73808575,0.045050025,-0.66324186,0.11537077,9.714604377746582,-0.022791817784309387,2.603278160095215,-38.25423812866211,65.18000793457031, -28.24785804748535
44,1084719495,0.7463554,0.042339675,-0.65536404,0.10797733,9.804057121276855,-0.04525991529226303,2.221558094024658,-44.71955490112305,69.60530090332031, -31.826698303222656
45,1084736162,0.75474834,0.03926708,-0.64719164,0.099780194,9.796135902404785,-0.05017805099487305,1.9615129232406616,-49.96998977661133,71.97293090820312, -34.589725494384766
46,1084752829,0.76307094,0.03587681,-0.6388922,0.09084504,9.878070831298828,-0.04792996123433113,1.8048285245895386,-54.7382926940918,72.69425201416016, -37.10762405395508
47,1084769496,0.7711923,0.03301357,-0.6304463,0.08191547,10.08570671081543,-0.22648629546165466,1.2530114650726318,-51.7454719543457,72.66472625732422, -39.424888610839844
48,1084786163,0.77900773,0.031102985,-0.62193316,0.073340155,10.174649238586426,-0.3199147880077362,0.7733664512634277,-44.973609924316406,71.80191040039062, -41.669532775878906
49,1084802830,0.7864777,0.030032672,-0.61342776,0.06524746,10.214327812194824,-0.4362090826034546,0.5087459087371826,-38.25593948364258,70.63095092773438, -42.65794372558594
50,1084819497,0.7934619,0.029980764,-0.60509396,0.05814453,10.144580841064453,-0.6905586123466492,-0.12324167788028717,-28.470352172851562,68.1171875, -41.51371765136719
51,1084836164,0.79974633,0.030132638,-0.5974001,0.051098265,10.009527206420898,-0.032381821423769,-0.33603399991989136,-27.141939163208008,62.461204528808594, -41.845306396484375
52,1084852831,0.8052561,0.029760491,-0.5905536,0.04385591,9.917000770568848,-0.13394001126289368,-0.41266992688179016,-30.92496681213379,55.57719802856445, -40.40061950683594
53,1084869498,0.80992526,0.02908802,-0.58465195,0.036842227,9.923895835876465,-0.27226677536964417,-0.7871507406234741,-31.732379913330078,47.85183334350586, -37.56839370727539
54,1084886165,0.8137622,0.028135277,-0.57972187,0.030368865,9.746898651123047,-0.6369004845619202,-0.7978648543357849,-31.164216995239258,40.08424758911133, -33.15083312988281
55,1084902832,0.816734,0.02751533,-0.5758066,0.02520683,9.626440048217773,-1.0825848579406738,-0.8407338857650757,-24.070526123046875,31.898094177246094, -26.940746307373047
56,1084919499,0.81886333,0.02770601,-0.57291025,0.021660453,9.511614799499512,-1.1856861114501953,-0.7642537355422974,-13.071609497070312,23.72162437438965, -20.976015090942383
57,1084936166,0.82019806,0.029193105,-0.5709856,0.019951819,9.400017738342285,-1.1631135940551758,-0.7499197125434875,1.5409075021743774,15.931785583496094, -15.672361373901367
58,1084952833,0.82083285,0.031946562,-0.5699336,0.019715196,9.226564407348633,-0.9277939796447754,-0.6817376017570496,14.542970657348633,8.987669944763184, -12.299416542053223
59,1084969500,0.8208595,0.034780603,-0.5697247,0.019847695,9.268406867980957,-0.7430818676948547,-0.253669798374176,16.507774353027344,2.4588162899017334, -10.451238632202148
60,1084986167,0.81978977,0.036953878,-0.57110155,0.020545086,9.613811492919922,-1.6027259826660156,-1.6297075748443604,15.071639060974121,-10.117233276367188, -4.301888942718506
61,1085002834,0.8179773,0.03795871,-0.5736422,0.020177294,10.504963874816895,0.3169844150543213,0.3831150233745575,4.3929619789123535,-19.081424713134766, -5.58631706237793
62,1085019501,0.8165563,0.037918452,-0.5757039,0.019056227,9.497428894042969,0.33976128697395325,3.4694132804870605,-4.514460563659668,-14.554071426391602, -5.871819496154785
63,1085036168,0.81510764,0.03802831,-0.57776433,0.018492425,9.651016235351562,1.1829239130020142,3.1199755668640137,-1.462717056274414,-14.67546272277832, -3.318256378173828
64,1085052835,0.81341237,0.035973586,-0.5803597,0.015777655,10.436858177185059,1.7473469972610474,3.189116954803467,-22.184213638305664,-19.028364181518555, -6.47393798828125
65,1085069502,0.8116679,0.033050116,-0.5830259,0.01356158,10.225616455078125,-0.14372557401657104,3.766416549682617,-25.106821060180664,-19.467077255249023, 0.0022347159683704376
66,1085086169,0.809592,0.029787567,-0.5861247,0.011469975,10.223588943481445,0.021766167134046555,3.2167136669158936,-26.438608169555664,-23.29698944091797, 2.140763521194458
67,1085102836,0.8072773,0.025964187,-0.5895293,0.0092067765,9.826969146728516,-0.008846788667142391,2.7399282455444336,-30.210180282592773,-26.031435012817383, 3.510733127593994
68,1085119503,0.80468315,0.021770952,-0.59327126,0.0063561485,9.538293838500977,0.03223913908004761,2.7966389656066895,-34.60138702392578,-29.161840438842773, 1.8169457912445068
69,1085136170,0.80186737,0.016510332,-0.5972693,0.0024094412,9.635583877563477,-0.05472159385681152,2.7353882789611816,-44.94904708862305,-31.66596031188965, 0.1590629518032074
70,1085152837,0.7991563,0.010883299,-0.60102004,-0.0023903176,9.82762622833252,-0.4214625656604767,1.9560526609420776,-50.47195053100586,-30.025480270385742, -3.065800666809082
71,1085169504,0.79679036,0.004826415,-0.6041783,-0.008391238,10.087146759033203,-0.24331054091453552,1.7501596212387085,-57.820133209228516,-25.415102005004883, -7.95783805847168
72,1085186171,0.79451966,-0.0011950822,-0.60705703,-0.014799261,10.10515308380127,-0.3964320719242096,1.7499415874481201,-59.33331298828125,-23.45206069946289, -10.341085433959961
73,1085202838,0.792054,-0.0006287293,-0.6102401,-0.016040731,9.955059051513672,-1.079513430595398,2.045672655105591,-1.7472130060195923,-25.263919830322266, -9.672187805175781
74,1085219505,0.78968924,0.003965701,-0.6133428,-0.01363684,9.877177238464355,-0.32918429374694824,2.062736988067627,35.49945068359375,-23.98897933959961, -6.849906921386719
75,1085236172,0.7874507,0.008873328,-0.61621284,-0.011156096,9.781961441040039,-0.031964950263500214,1.9390171766281128,37.50330352783203,-22.1910457611084, -7.819957256317139
76,1085252839,0.7853846,0.013485097,-0.618795,-0.009060293,9.806273460388184,-0.05078769475221634,1.7477136850357056,34.233882904052734,-19.971872329711914, -8.697354316711426
77,1085269506,0.7835085,0.017279105,-0.62109244,-0.007781526,9.767090797424316,0.435865581035614,1.7045506238937378,26.30382537841797,-17.76160430908203, -9.68796443939209
78,1085286173,0.78177613,0.019901218,-0.6231949,-0.007635369,9.67867374420166,0.6440944075584412,1.6826167106628418,15.113642692565918,-16.303464889526367, -10.791306495666504
79,1085302840,0.7801477,0.02156825,-0.6251685,-0.008302403,9.643621444702148,0.8156612515449524,1.7200770378112793,6.457412242889404,-15.339006423950195, -11.050371170043945
80,1085319507,0.7785566,0.022272503,-0.62710536,-0.009612713,9.623724937438965,0.9324551224708557,1.7559565305709839,-1.4959627389907837,-15.149930000305176, -10.316359519958496
81,1085336174,0.7769906,0.022808483,-0.6290107,-0.010534781,9.609277725219727,0.7819345593452454,1.6298085451126099,-0.7483780980110168,-14.85028076171875, -7.458552360534668
82,1085352841,0.77546257,0.023404239,-0.6308658,-0.010880427,9.646748542785645,0.6273539662361145,1.6180742979049683,2.041199207305908,-14.339279174804688, -4.605473518371582
83,1085369508,0.77398306,0.023912225,-0.6326595,-0.010979071,9.642478942871094,0.6468760371208191,1.599179744720459,2.6318795680999756,-13.78579044342041, -2.893673896789551
84,1085386175,0.77252424,0.024176892,-0.634427,-0.011150677,9.687596321105957,0.49112406373023987,1.5371633768081665,1.0078154802322388,-13.605242729187012, -2.20727801322937
85,1085402842,0.7710985,0.024542812,-0.63614476,-0.011170563,9.74799919128418,0.3953644633293152,1.4864697456359863,2.175140619277954,-13.17908763885498, -1.8492765426635742
86,1085419509,0.7697173,0.02566928,-0.6377838,-0.010409588,9.774116516113281,0.300214946269989,1.464269757270813,9.632721900939941,-12.38873291015625, -1.0498783588409424
87,1085436176,0.76842004,0.026840476,-0.6393096,-0.009677715,9.766473770141602,0.45626941323280334,1.4504978656768799,9.770003318786621,-11.432954788208008, -1.4246820211410522
88,1085452843,0.76716596,0.027749337,-0.6407813,-0.009258261,9.75119400024414,0.5174748301506042,1.395864486694336,7.126180171966553,-11.039681434631348, -1.9117074012756348
89,1085469510,0.7659659,0.0283387,-0.64219207,-0.009098067,9.759180068969727,0.5854092836380005,1.3737595081329346,4.350811958312988,-10.558380126953125, -1.867486834526062
90,1085486177,0.76482236,0.028620685,-0.64354086,-0.009097219,9.719280242919922,0.6202191114425659,1.3067594766616821,1.75506591796875,-10.058174133300781, -1.3956365585327148
91,1085502844,0.76374155,0.028643334,-0.64482087,-0.009200261,9.7305326461792,0.6749764084815979,1.3302422761917114,-0.07654356956481934,-9.462447166442871, -0.7911251783370972
92,1085519511,0.762709,0.028338544,-0.6460524,-0.009394523,9.76612663269043,0.8945034146308899,1.3602042198181152,-2.2139623165130615,-9.044715881347656, 0.19166626036167145
93,1085536178,0.76173615,0.027387727,-0.6472321,-0.009938142,9.778962135314941,1.0279552936553955,1.3163173198699951,-7.167588710784912,-8.631086349487305, 1.2595242261886597
94,1085552845,0.76087767,0.026009984,-0.64828575,-0.010696082,9.780377388000488,0.6244440078735352,1.1684223413467407,-10.388978958129883,-7.54280424118042, 2.0699622631073
95,1085569512,0.76014197,0.02440997,-0.64919513,-0.011585037,9.861666679382324,0.570511519908905,1.232663869857788,-12.160713195800781,-6.281634330749512, 2.375483274459839
96,1085586179,0.7594965,0.02252277,-0.6499971,-0.0127166165,9.878719329833984,0.46903276443481445,1.1505409479141235,-14.765938758850098,-5.387699604034424, 2.3914151191711426
97,1085602846,0.75893474,0.020369943,-0.6506952,-0.014105932,9.864774703979492,0.5463014841079712,1.2128932476043701,-17.249095916748047,-4.531736850738525, 2.241849899291992
98,1085619513,0.7584623,0.01793298,-0.6512807,-0.015710834,9.836488723754883,0.45677241683006287,1.1487674713134766,-19.785377502441406,-3.6114723682403564, 2.385422945022583
99,1085636180,0.7580475,0.016012613,-0.65178615,-0.016803011,9.827581405639648,0.31275638937950134,1.1518892049789429,-15.205900192260742,-2.836801052093506, 2.6903154850006104
100,1085652847,0.7576798,0.0145197185,-0.6522299,-0.017516652,9.85303020477295,0.44819432497024536,1.2543224096298218,-10.909183502197266,-2.198838233947754, 2.7986562252044678
101,1085669514,0.7573704,0.013793473,-0.6526046,-0.017526073,9.822704315185547,0.2796761989593506,1.1655292510986328,-3.5194153785705566,-1.4155369997024536, 3.0704822540283203
102,1085686181,0.7571101,0.0132755935,-0.65292007,-0.01741864,9.779653549194336,0.4088844954967499,1.1369751691818237,-2.082773447036743,-0.8620849847793579, 2.709202527999878
103,1085702848,0.7569215,0.012864343,-0.6531513,-0.01725739,9.8020658493042,0.3755233585834503,1.1633315086364746,-1.4209412336349487,-0.09264113008975983, 2.493518114089966
104,1085719515,0.7568006,0.012480996,-0.65330297,-0.017100208,9.815634727478027,0.4492381811141968,1.1542913913726807,-1.2193950414657593,0.62613445520401, 2.358538866043091
105,1085736182,0.7567583,0.012071872,-0.6533627,-0.016997358,9.792970657348633,0.4965907037258148,1.1820502281188965,-1.668731689453125,1.4451261758804321, 2.1887524127960205
106,1085752849,0.75677234,0.0116249565,-0.65335506,-0.016962327,9.796075820922852,0.3761949837207794,1.1723999977111816,-2.213808298110962,2.0317084789276123, 2.0101935863494873
107,1085769516,0.7568243,0.011156603,-0.65330327,-0.016958304,9.796832084655762,0.3922168016433716,1.1869349479675293,-2.3162591457366943,2.428910255432129, 1.96824049949646
108,1085786183,0.7569201,0.010812606,-0.653202,-0.01680902,9.77686595916748,0.41029348969459534,1.1965057849884033,-1.1750081777572632,2.898646831512451, 2.1459152698516846
109,1085802850,0.75706005,0.010623322,-0.65305114,-0.016482979,9.756181716918945,0.3905583620071411,1.191631555557251,0.5131183862686157,3.383981704711914, 2.3891334533691406
110,1085819517,0.75722146,0.010651261,-0.6528762,-0.015963528,9.74384880065918,0.34593555331230164,1.2271265983581543,2.5117926597595215,3.6408519744873047, 2.421879291534424
111,1085836184,0.75739676,0.010563083,-0.6526848,-0.015536811,9.740046501159668,0.4294148087501526,1.2296125888824463,1.4095760583877563,3.7593626976013184, 2.4463653564453125
112,1085852851,0.7575652,0.010269568,-0.6525001,-0.015278428,9.730978012084961,0.6162077188491821,1.2773150205612183,-0.15243399143218994,3.6637625694274902, 2.5340118408203125
113,1085869518,0.7577604,0.009549089,-0.6522806,-0.015432776,9.732047080993652,0.691713809967041,1.2708590030670166,-5.242523670196533,3.848238229751587, 2.1709392070770264
114,1085886185,0.75796014,0.008352821,-0.6520507,-0.016033899,9.770661354064941,0.6240498423576355,1.3593589067459106,-9.082381248474121,3.858586072921753, 2.1004018783569336
115,1085902852,0.758174,0.006565333,-0.6517946,-0.01711579,9.81027603149414,0.469466894865036,1.3492724895477295,-14.088391304016113,3.9616408348083496, 2.3064959049224854
116,1085919519,0.7583886,0.004037854,-0.65151507,-0.018942593,9.773857116699219,0.5089853405952454,1.317196249961853,-22.179508209228516,3.9296414852142334, 1.621984601020813
117,1085936186,0.7586093,0.000924893,-0.6511964,-0.021321906,9.813006401062012,0.15433773398399353,1.3632497787475586,-26.68016242980957,4.092977046966553, 1.5434057712554932
118,1085952853,0.75881565,-0.0008727455,-0.6509204,-0.022375153,9.826666831970215,-0.06753258407115936,1.3674825429916382,-14.470352172851562,3.9831550121307373, 2.4740796089172363
119,1085969520,0.7590203,-0.0012870347,-0.650691,-0.022087853,9.78347396850586,-0.029359107837080956,1.3562170267105103,-0.7505674958229065,3.942723274230957, 3.3274807929992676
120,1085986187,0.7592648,-0.0013674942,-0.6504244,-0.021524422,9.753567695617676,0.18829184770584106,1.333819031715393,2.064018726348877,4.351284027099609, 3.2337379455566406
121,1086002854,0.75951505,-0.001565908,-0.65014344,-0.021168169,9.71727180480957,0.23203884065151215,1.3280761241912842,0.6233556270599365,4.4342570304870605, 2.689737319946289
122,1086019521,0.7597644,-0.0018423615,-0.6498578,-0.020971548,9.7080659866333,0.1968398243188858,1.3338109254837036,-0.625782310962677,4.439211845397949, 2.1825156211853027
123,1086036188,0.75999665,-0.0021603159,-0.64958817,-0.020874633,9.704843521118164,0.2511518597602844,1.3833657503128052,-1.287255883216858,4.270462512969971, 1.8400483131408691
124,1086052855,0.76019543,-0.0024127166,-0.6493596,-0.020726288,9.705564498901367,0.25870469212532043,1.4128522872924805,-0.7120202779769897,3.909311294555664, 1.8105299472808838
125,1086069522,0.7603761,-0.0021863887,-0.6491675,-0.020125812,9.672443389892578,0.13979721069335938,1.3934472799301147,3.86163330078125,3.692000389099121, 2.040954351425171
126,1086086189,0.7605874,-0.00139955,-0.648956,-0.019002566,9.682765007019043,0.0827103778719902,1.387946367263794,9.07351303100586,3.9928483963012695, 2.259443998336792
127,1086102856,0.7608124,0.00036739578,-0.6487506,-0.016943322,9.611181259155273,0.034487511962652206,1.369933843612671,18.50721549987793,4.138396263122559, 2.7874011993408203
128,1086119523,0.7610407,0.0024831889,-0.648535,-0.014607895,9.634273529052734,0.12804634869098663,1.3847848176956177,21.32016944885254,4.237647533416748, 2.616706609725952
129,1086136190,0.76129615,0.0046529165,-0.6482718,-0.0122504635,9.64767074584961,0.10773956775665283,1.3641654253005981,21.810487747192383,4.6125030517578125, 2.496378183364868
130,1086152857,0.76151377,0.0064762193,-0.6480339,-0.010335375,9.654812812805176,0.10491014271974564,1.3994613885879517,18.845510482788086,4.281929969787598, 1.838091254234314
131,1086169524,0.7616637,0.008190297,-0.6478635,-0.008623236,9.60243034362793,0.1813550889492035,1.409307599067688,16.42917251586914,3.5857622623443604, 1.0936955213546753
132,1086186191,0.76171035,0.009954432,-0.64780253,-0.0070885243,9.490985870361328,0.11029251664876938,1.5574216842651367,15.888102531433105,2.540980339050293, -0.07101127505302429
133,1086202858,0.76167274,0.011864392,-0.6478293,-0.0055912635,9.763335227966309,0.1169787049293518,1.395648717880249,16.825210571289062,1.7025866508483887, -0.8746490478515625
134,1086219525,0.76166606,0.013615338,-0.6478123,-0.0043496364,9.734903335571289,0.4117910861968994,1.373146653175354,13.467582702636719,2.0076723098754883, -1.7441749572753906
135,1086236192,0.7617519,0.015113115,-0.64768374,-0.0034039398,9.677260398864746,0.3390393853187561,1.3847358226776123,12.160039901733398,3.0016372203826904, -1.94916570186615
136,1086252859,0.7618194,0.016424524,-0.64757615,-0.0025783258,9.748727798461914,0.5074869394302368,1.5572060346603394,9.43787956237793,2.760607957839966, -1.9405593872070312
137,1086269526,0.76177233,0.017053537,-0.64761674,-0.0022185377,9.886052131652832,1.1356983184814453,1.9731838703155518,4.238563060760498,1.4100624322891235, -1.2437784671783447
138,1086286193,0.76161754,0.016187256,-0.647818,-0.0029204374,9.851861953735352,1.3432023525238037,1.8135216236114502,-7.582666873931885,-0.0743664875626564, 0.04815828800201416
139,1086302860,0.7614539,0.01424557,-0.64804775,-0.0043757265,9.773832321166992,1.0382699966430664,1.6483895778656006,-17.14594078063965,-0.40815162658691406, 0.8774471879005432
140,1086319527,0.7613036,0.01179784,-0.64825916,-0.0061350986,9.739119529724121,0.45169612765312195,1.5432116985321045,-21.603370666503906,-0.3235401213169098, 1.5244253873825073
141,1086336194,0.76117563,0.009005182,-0.6484307,-0.0082669975,9.768617630004883,0.0842345654964447,1.392546534538269,-25.08641242980957,-0.06939776241779327, 1.1266859769821167
142,1086352861,0.76101935,0.005768397,-0.6486102,-0.011012742,9.74985122680664,0.24320782721042633,1.4181174039840698,-32.94089889526367,-0.3606666326522827, -0.5559898614883423
143,1086369528,0.7608374,0.0008298585,-0.64875245,-0.015693504,9.719047546386719,0.08934006839990616,1.3888845443725586,-43.464271545410156,-0.3389478921890259, -1.965941309928894
144,1086386195,0.7606314,-0.0042211316,-0.6488491,-0.02042094,9.715076446533203,-0.011088578030467033,1.4011517763137817,-49.441078186035156,-0.3243235945701599, -2.5277774333953857
145,1086402862,0.7603915,-0.008946238,-0.64892745,-0.02486204,9.705421447753906,-0.10280466824769974,1.4164457321166992,-46.987274169921875,-0.3506278097629547, -2.5728156566619873
146,1086419529,0.7600809,-0.013336068,-0.6490421,-0.029047085,9.719606399536133,-0.08316443860530853,1.43100905418396,-40.96554183959961,-0.7649150490760803, -2.2607693672180176
147,1086436196,0.7597604,-0.016715609,-0.6491871,-0.032267235,9.753039360046387,-0.06933757662773132,1.4981611967086792,-32.07249450683594,-0.8694007396697998, -1.8498713970184326
148,1086452863,0.7595075,-0.019097418,-0.6492966,-0.034611426,9.721698760986328,0.062197476625442505,1.4729138612747192,-22.890405654907227,-0.2695997655391693, -1.7078579664230347
149,1086469530,0.75930417,-0.021047251,-0.64936537,-0.03659059,9.692207336425781,0.1152685284614563,1.4938712120056152,-19.050085067749023,0.21205423772335052, -1.7215981483459473
150,1086486197,0.7591485,-0.0226146,-0.64939976,-0.038242225,9.713614463806152,0.10021950304508209,1.4610131978988647,-15.587096214294434,0.6449220180511475, -1.7008768320083618
151,1086502864,0.75908524,-0.02192938,-0.6495228,-0.037804894,9.876315116882324,-0.044602423906326294,1.579843282699585,5.534885883331299,0.8568664789199829, -0.8483310341835022
152,1086519531,0.7592828,-0.016093204,-0.64974153,-0.032658245,9.98202896118164,-0.311217725276947,1.7736752033233643,53.5157356262207,2.138739585876465, 0.7578170299530029
153,1086536198,0.75976914,-0.007374195,-0.64967656,-0.02484192,9.568217277526855,-0.24843411147594452,1.3987828493118286,80.46552276611328,5.238422393798828, 1.8630526065826416
154,1086552865,0.76007897,0.0001630577,-0.6495815,-0.017997982,9.528459548950195,0.3554575443267822,1.3917884826660156,69.9348373413086,4.449713230133057, 1.984704852104187
155,1086569532,0.76023084,0.005071443,-0.64948976,-0.013656321,9.54881477355957,0.5875172019004822,1.402919888496399,45.04035186767578,3.3955318927764893, 0.625985324382782
156,1086586199,0.7602764,0.008291196,-0.6494533,-0.0110397935,9.633390426635742,0.5509565472602844,1.4761978387832642,28.503530502319336,2.4100658893585205, -0.8484359979629517
157,1086602866,0.7602668,0.010610229,-0.6494566,-0.009382644,9.627038955688477,0.40592509508132935,1.4436640739440918,19.563203811645508,1.828179121017456, -1.8233832120895386
158,1086619533,0.7602133,0.01246444,-0.649501,-0.0082977135,9.660837173461914,0.3812275826931,1.468937635421753,14.361891746520996,1.3362091779708862, -2.769221782684326
159,1086636200,0.7601044,0.013844045,-0.6496072,-0.007768793,9.668173789978027,0.44641444087028503,1.5003316402435303,9.591837882995605,0.6901151537895203, -3.5213122367858887
160,1086652867,0.75994444,0.014790699,-0.6497749,-0.0076470124,9.662324905395508,0.52785325050354,1.5977517366409302,5.243657112121582,0.06296243518590927, -3.7475998401641846
161,1086669534,0.75972825,0.01566978,-0.65000904,-0.007473552,9.70126724243164,0.45971089601516724,1.5883078575134277,5.687614440917969,-0.5301188826560974, -3.072141170501709
162,1086686201,0.7594776,0.016840462,-0.6502789,-0.006897047,9.755189895629883,0.2974647879600525,1.6120871305465698,8.677872657775879,-0.8348973989486694, -2.313992738723755
163,1086702868,0.7592805,0.01852532,-0.65047485,-0.0057084914,9.740432739257812,0.287759393453598,1.5683547258377075,13.880870819091797,-0.1350942850112915, -1.4600017070770264
164,1086719535,0.75904095,0.01987936,-0.65072155,-0.0048420364,9.714860916137695,0.5512532591819763,1.5928627252578735,11.353123664855957,-0.6349519491195679, -1.5657180547714233
165,1086736202,0.7587411,0.020957565,-0.6510414,-0.004258382,9.693968772888184,0.5826960206031799,1.5705024003982544,8.079751014709473,-1.3669627904891968, -1.8782308101654053
166,1086752869,0.758377,0.021711087,-0.65144265,-0.003949187,9.743672370910645,0.7519687414169312,1.6624332666397095,5.650245666503906,-2.1244966983795166, -1.7613600492477417
167,1086769536,0.7579636,0.021812715,-0.6519186,-0.004204386,9.75412368774414,0.7673478722572327,1.6035306453704834,-0.5237540602684021,-2.863640308380127, -1.7904170751571655
168,1086786203,0.7575196,0.021204012,-0.65244824,-0.0051131533,9.70959758758545,0.7016929388046265,1.5552911758422852,-7.079082489013672,-3.411586284637451, -1.970295786857605
169,1086802870,0.75707006,0.020046266,-0.6529928,-0.0065981215,9.72243881225586,0.5663315057754517,1.500434160232544,-12.16448974609375,-3.6168224811553955, -2.4324262142181396
170,1086819537,0.75660616,0.018453531,-0.653554,-0.0085939,9.71159839630127,0.5503111481666565,1.4744254350662231,-16.910724639892578,-3.876742362976074, -3.151901960372925
171,1086836204,0.75616735,0.016012272,-0.65408164,-0.011493778,9.685333251953125,0.5760586857795715,1.3972622156143188,-25.1391544342041,-3.7544972896575928, -3.9950010776519775
172,1086852871,0.755727,0.012378752,-0.6545864,-0.015501319,9.734678268432617,0.6316466927528381,1.4371933937072754,-37.42263412475586,-3.905225992202759, -4.537580966949463
173,1086869538,0.75523466,0.0072507397,-0.6550807,-0.0209143,9.696161270141602,0.501298725605011,1.4206748008728027,-48.214080810546875,-4.2555084228515625, -4.625704765319824
174,1086886205,0.75462115,0.002265596,-0.6556456,-0.025903413,9.69167423248291,0.5735443830490112,1.4776489734649658,-50.37012481689453,-5.309637546539307, -3.753383159637451
175,1086902872,0.7538653,-0.003189921,-0.65627974,-0.031209469,9.746817588806152,0.6793020367622375,1.4903064966201782,-53.17190933227539,-6.3748087882995605, -3.130812644958496
176,1086919539,0.7530872,-0.008569552,-0.65685713,-0.03640297,9.774829864501953,0.329777330160141,1.391358733177185,-50.98704528808594,-6.138498783111572, -2.6890766620635986
177,1086936206,0.7523541,-0.013615356,-0.6573171,-0.041382216,9.827571868896484,0.12012773752212524,1.3416438102722168,-43.951053619384766,-5.128351211547852, -2.4686713218688965
178,1086952873,0.7517612,-0.017576346,-0.65763545,-0.04541041,9.860105514526367,0.0672307163476944,1.3501436710357666,-34.3787727355957,-3.5644960403442383, -2.4549365043640137
179,1086969540,0.7512728,-0.02036382,-0.6579032,-0.04835347,9.843297004699707,0.1518404334783554,1.3317850828170776,-23.667177200317383,-2.61321759223938, -2.16508412361145
180,1086986207,0.75088257,-0.021408694,-0.6582169,-0.049673147,9.920858383178711,0.18825212121009827,1.4346674680709839,-7.390392780303955,-2.0646657943725586, -1.662162184715271
181,1087002874,0.7505819,-0.018482227,-0.6588269,-0.047248952,9.952590942382812,0.11458243429660797,1.483919382095337,29.710315704345703,-2.407806158065796, -0.3960760235786438
182,1087019541,0.75067246,-0.012467809,-0.659208,-0.042197395,9.881054878234863,0.12629348039627075,1.408408761024475,57.587886810302734,1.2102078199386597, -0.6842512488365173
183,1087036208,0.7509272,-0.007342412,-0.65925276,-0.037953436,9.544001579284668,0.4652526378631592,1.2178853750228882,49.49638748168945,3.508080005645752, -0.7374728322029114
184,1087052875,0.75101274,-0.003993149,-0.65933186,-0.035291493,9.582514762878418,0.5739380121231079,1.2766227722167969,33.317604064941406,2.1905665397644043, -0.880234956741333
185,1087069542,0.7509767,-0.0021292784,-0.6594494,-0.03400027,9.636645317077637,0.5895076394081116,1.2992117404937744,19.40227699279785,1.1161707639694214, -1.2541146278381348
186,1087086209,0.75085735,-0.0010736111,-0.6596171,-0.033430584,9.6831693649292,0.5807214975357056,1.3467398881912231,11.964510917663574,0.2986506521701813, -1.3290692567825317
187,1087102876,0.7507111,-0.0006107325,-0.6597838,-0.03343698,9.675435066223145,0.6129127740859985,1.3425116539001465,6.332645416259766,0.04516160115599632, -1.609323263168335
188,1087119543,0.7505476,-0.0004586359,-0.6599598,-0.03363716,9.696979522705078,0.6116170287132263,1.3373684883117676,-0.04484783858060837,-0.3169187605381012, -1.702950119972229
189,1087136210,0.7503417,-0.0010978973,-0.66014117,-0.034642167,9.721062660217285,0.5814151763916016,1.3626068830490112,-3.9750139713287354,-0.5706636905670166, -1.7723218202590942
190,1087152877,0.75013655,-0.0012832768,-0.66034615,-0.035166096,9.75758171081543,0.43933233618736267,1.3796972036361694,0.17217499017715454,-0.6086857914924622, -1.394252896308899
191,1087169544,0.74995774,-0.000869078,-0.660553,-0.03510691,9.822495460510254,0.4217616617679596,1.4394421577453613,6.113490104675293,-0.36145928502082825, -1.0797932147979736
192,1087186211,0.7497683,0.0017324166,-0.66088516,-0.03279559,9.747427940368652,0.25278761982917786,1.411605954170227,27.523664474487305,-0.5581021308898926, 0.5727463364601135
193,1087202878,0.74967104,0.004529763,-0.661103,-0.030265702,9.717694282531738,0.6560406684875488,1.321386456489563,25.740827560424805,0.3237132132053375, 0.33275455236434937
194,1087219545,0.7495381,0.006268863,-0.66130334,-0.028834473,9.702488899230957,0.6695529818534851,1.280665636062622,15.502154350280762,-0.0013062484795227647, -0.49377477169036865
195,1087236212,0.7493792,0.0071814437,-0.6615002,-0.028231496,9.695626258850098,0.636803150177002,1.2982914447784424,8.23013687133789,-0.273364394903183, -0.905780553817749
196,1087252879,0.7492051,0.0075626294,-0.6616971,-0.02813095,9.693876266479492,0.6563478112220764,1.3300591707229614,2.0146372318267822,-0.5316684246063232, -1.2233778238296509
197,1087269546,0.7489997,0.007351813,-0.6619123,-0.028595066,9.712318420410156,0.702081561088562,1.35594642162323,-2.8990628719329834,-0.8904638886451721, -1.3480221033096313
198,1087286213,0.74877745,0.0069616875,-0.662142,-0.029188434,9.771930694580078,0.5703625679016113,1.3630350828170776,-4.359372138977051,-1.0928171873092651, -1.1823080778121948
199,1087302880,0.7485317,0.008146924,-0.6624555,-0.028047489,9.78244400024414,0.2739976942539215,1.4234997034072876,11.56893539428711,-1.2479281425476074, 0.5632555484771729
200,1087319547,0.7483127,0.01004652,-0.66275287,-0.026190132,9.760002136230469,0.5664122104644775,1.3498533964157104,18.303913116455078,-0.8885312080383301, 0.961533784866333
201,1087336214,0.7480685,0.012079121,-0.66307163,-0.024159424,9.770353317260742,0.5763030648231506,1.3383724689483643,19.10525894165039,-1.1188665628433228, 1.1613900661468506
202,1087352881,0.74775696,0.014026773,-0.66344607,-0.022407474,9.6608247756958,0.6232944130897522,1.2864779233932495,17.88069725036621,-1.739219307899475, 0.16762888431549072
203,1087369548,0.74744666,0.015318005,-0.66380113,-0.021382513,9.742431640625,0.6524288058280945,1.286239743232727,12.321681022644043,-1.7592988014221191, -0.4363766014575958
204,1087386215,0.7471623,0.016336909,-0.6641226,-0.020566465,9.74789810180664,0.6684826612472534,1.278435230255127,8.403560638427734,-1.6129729747772217, -0.44838884472846985
205,1087402882,0.7468737,0.016793841,-0.66444355,-0.020312192,9.797389030456543,0.6926064491271973,1.282928466796875,3.8524768352508545,-1.7383980751037598, -0.6545838117599487
206,1087419549,0.7465837,0.01682574,-0.66476375,-0.020469915,9.78681468963623,0.6742203235626221,1.261388897895813,-0.3508811593055725,-1.8628501892089844, -0.8379706144332886
207,1087436216,0.74627095,0.016452635,-0.66510445,-0.021099383,9.751276016235352,0.7437804937362671,1.264832854270935,-4.747673034667969,-2.2015910148620605, -1.422158122062683
208,1087452883,0.7459341,0.0155508835,-0.6654655,-0.022283785,9.737178802490234,0.7970976829528809,1.321995735168457,-9.961974143981934,-2.563678741455078, -1.8387622833251953
209,1087469550,0.74555534,0.014104023,-0.66586244,-0.02399532,9.682998657226562,0.9866173267364502,1.3862175941467285,-14.683221817016602,-3.070401906967163, -1.9822328090667725
210,1087486217,0.7451219,0.012253542,-0.66630965,-0.025974846,9.666144371032715,0.8306559920310974,1.2730498313903809,-18.603065490722656,-3.719365119934082, -1.5626583099365234
211,1087502884,0.7446073,0.009556916,-0.6668143,-0.028763093,9.697293281555176,0.902273416519165,1.3529670238494873,-22.47789764404297,-4.412742614746094, -1.3545812368392944
212,1087519551,0.74397045,0.005790435,-0.6673917,-0.03260288,9.68567180633545,0.881325364112854,1.2419373989105225,-32.96118927001953,-5.656624794006348, -1.8612436056137085
213,1087536218,0.743276,0.0006287451,-0.66791886,-0.03774952,9.660183906555176,0.7428118586540222,1.0512242317199707,-45.84845733642578,-6.031964302062988, -2.1174817085266113
214,1087552885,0.74249107,-0.005182777,-0.66842943,-0.043387633,9.669731140136719,0.5956733822822571,1.1374505758285522,-53.393009185791016,-6.634909629821777, -1.8771100044250488
215,1087569552,0.74150383,-0.011161506,-0.6690591,-0.049063757,9.73054027557373,0.6576019525527954,1.2511876821517944,-54.927886962890625,-8.258378982543945, -1.4244143962860107
216,1087586219,0.74038804,-0.017155198,-0.6697413,-0.054570254,9.786473274230957,0.4669584631919861,1.2023015022277832,-55.389305114746094,-9.205998420715332, -0.657984733581543
217,1087602886,0.7392132,-0.022572508,-0.6704652,-0.059419926,9.805011749267578,0.27935123443603516,1.18653404712677,-50.48633575439453,-9.611741065979004, -0.10859885811805725
218,1087619553,0.7379918,-0.027131453,-0.6712653,-0.063520536,9.73043441772461,0.24255384504795074,1.192002534866333,-42.99149703979492,-10.007258415222168, -0.333799809217453
219,1087636220,0.73675835,-0.030701488,-0.67214894,-0.06678747,9.728249549865723,0.20758391916751862,1.1657593250274658,-34.879600524902344,-10.25562858581543, -0.775568962097168
220,1087652887,0.73552173,-0.033410918,-0.6731078,-0.06940942,9.733922004699707,0.3167469799518585,1.1160019636154175,-27.448137283325195,-10.402154922485352, -1.5064282417297363
221,1087669554,0.7343033,-0.03532813,-0.67413044,-0.07140656,9.753480911254883,0.3769891560077667,1.113142967224121,-20.83390998840332,-10.431381225585938, -2.051555633544922
222,1087686221,0.733088,-0.036384456,-0.6752696,-0.072589725,9.72194766998291,0.30958718061447144,1.0224668979644775,-12.583968162536621,-10.78923225402832, -1.951574444770813
223,1087702888,0.732043,-0.035206307,-0.67657334,-0.07156955,10.032269477844238,0.1079750582575798,1.163338541984558,8.77216911315918,-10.283801078796387, -1.2010570764541626
224,1087719555,0.73137724,-0.029973276,-0.67804503,-0.06666256,9.836182594299316,0.21539656817913055,1.0277230739593506,47.565513610839844,-8.32157039642334, -0.35584014654159546
225,1087736222,0.7308991,-0.02505958,-0.6791715,-0.0623278,9.555627822875977,0.5729069113731384,0.9318446516990662,43.44652557373047,-5.739255428314209, -1.5733729600906372
226,1087752889,0.73017687,-0.02186543,-0.68030065,-0.05962232,9.600910186767578,0.7134037613868713,0.8691893815994263,27.205177307128906,-7.35582160949707, -1.8240649700164795
227,1087769556,0.7292157,-0.020216627,-0.68147933,-0.05849902,9.616782188415527,0.6214362382888794,0.7791447639465332,12.634263038635254,-9.09725570678711, -2.584477424621582
228,1087786223,0.7280717,-0.0195856,-0.682714,-0.058563143,9.602533340454102,0.5389713048934937,0.7270472049713135,1.5627403259277344,-10.502069473266602, -3.8707852363586426
229,1087802890,0.72682506,-0.019640999,-0.6839537,-0.05955639,9.645496368408203,0.49614274501800537,0.6707364320755005,-6.160369873046875,-11.159856796264648, -5.33064603805542
230,1087819557,0.72553945,-0.020336414,-0.6851477,-0.061249625,9.74329948425293,0.6736364960670471,0.7147108912467957,-12.80388069152832,-11.293306350708008, -5.835117816925049
231,1087836224,0.7242378,-0.021617921,-0.6862758,-0.06354514,9.718173027038574,0.7407101392745972,0.6487306952476501,-18.6187744140625,-11.211620330810547, -6.067915439605713
232,1087852891,0.72289354,-0.023214249,-0.6873889,-0.06620141,9.743501663208008,0.5733180046081543,0.7228803038597107,-21.937891006469727,-11.429757118225098, -6.385298728942871
233,1087869558,0.721442,-0.024825642,-0.6885791,-0.06902211,9.7739839553833,0.9041025042533875,0.8215334415435791,-22.77682876586914,-12.312772750854492, -7.189028739929199
234,1087886225,0.71985537,-0.026897695,-0.6898154,-0.072384536,9.877452850341797,0.9615875482559204,0.7085616588592529,-27.771894454956055,-13.332571029663086, -7.755885601043701
235,1087902892,0.7182608,-0.029265448,-0.69097334,-0.07616443,9.771928787231445,0.9335117340087891,0.6683112382888794,-31.252582550048828,-13.066835403442383, -8.388822555541992
236,1087919559,0.7166616,-0.03137527,-0.6921336,-0.07976735,9.725163459777832,0.7921823859214783,0.5920425653457642,-29.10982322692871,-13.013899803161621, -8.724051475524902
237,1087936226,0.7151643,-0.03258992,-0.69329166,-0.08261141,9.763684272766113,0.8717858195304871,0.5603895783424377,-21.0467586517334,-12.202569961547852, -9.177473068237305
238,1087952893,0.71387386,-0.032025233,-0.6944948,-0.08387895,10.0343017578125,1.0981186628341675,0.7159291505813599,-4.7888875007629395,-10.797772407531738, -9.790231704711914
239,1087969560,0.7135623,-0.026399203,-0.6954858,-0.080198675,10.297598838806152,0.6854653358459473,0.8821842074394226,43.96553039550781,-3.258765697479248, -9.034279823303223
240,1087986227,0.71378595,-0.020008445,-0.69600976,-0.07536618,9.38485336303711,0.8049648404121399,0.3868308961391449,52.99335479736328,1.774664282798767, -6.662429332733154
241,1088002894,0.71355236,-0.01710725,-0.6965454,-0.07331429,9.700639724731445,0.8615044355392456,0.2781745493412018,22.39811134338379,-1.9062800407409668, -3.8477516174316406
242,1088019561,0.7131266,-0.0148907285,-0.697208,-0.07162316,9.82742691040039,0.5502434968948364,0.45431700348854065,17.511699676513672,-3.7383060455322266, -2.440764904022217
243,1088036228,0.7125542,-0.013174804,-0.6979633,-0.07028753,9.959397315979004,0.3508279323577881,0.41907715797424316,13.347689628601074,-5.115192890167236, -1.8766310214996338
244,1088052895,0.7119402,-0.0110846255,-0.69881123,-0.06842132,10.08976936340332,0.3544211983680725,0.5313335657119751,17.658138275146484,-5.649002552032471, -1.1234127283096313
245,1088069562,0.7113128,-0.00876482,-0.6996704,-0.066473104,9.985076904296875,0.6129890084266663,0.43319329619407654,19.303096771240234,-5.669084548950195, -1.8471393585205078
246,1088086229,0.7108592,-0.005764142,-0.7004131,-0.063777305,10.101777076721191,0.5132200121879578,0.47528159618377686,26.198997497558594,-4.0033135414123535, -1.3861756324768066
247,1088102896,0.7105846,-0.00242675,-0.7009832,-0.060715992,10.039650917053223,0.6853705644607544,0.3446439802646637,29.739938735961914,-2.1584784984588623, -1.1428165435791016
248,1088119563,0.7105258,0.0013829835,-0.7013452,-0.05715035,9.764542579650879,0.8180589079856873,0.18880720436573029,34.321937561035156,0.07715218514204025, -0.8686071038246155
249,1088136230,0.71038705,0.004429831,-0.7016643,-0.05475364,9.63293170928955,1.0471025705337524,0.17406998574733734,25.511428833007812,-0.36421340703964233, -2.919060468673706
250,1088152897,0.71012527,0.0068306564,-0.70201737,-0.053359885,9.64180850982666,1.025965690612793,0.192082017660141,17.694944381713867,-1.3831384181976318, -4.732937335968018
251,1088169564,0.7097608,0.008805216,-0.7024192,-0.052627817,9.673637390136719,1.0600717067718506,0.26829931139945984,12.487435340881348,-2.30177640914917, -5.932238578796387
252,1088186231,0.709334,0.010774601,-0.70287997,-0.051855326,9.657711029052734,1.0652673244476318,0.32426926493644714,12.683308601379395,-2.8935840129852295, -5.720062732696533
253,1088202898,0.7088068,0.012431253,-0.7034197,-0.05137338,9.661221504211426,1.1139410734176636,0.33525416254997253,10.227725982666016,-3.8663156032562256, -5.63934326171875
254,1088219565,0.70811355,0.013798355,-0.7041091,-0.051140472,9.650569915771484,1.1245170831680298,0.3510681390762329,7.502993583679199,-5.546149730682373, -5.492018222808838
255,1088236232,0.70726854,0.014867764,-0.7049441,-0.05103091,9.686360359191895,1.199175238609314,0.3349337875843048,5.668675422668457,-7.102096080780029, -4.67946720123291
256,1088252899,0.7063278,0.015492738,-0.7058653,-0.05113974,9.768131256103516,1.1874364614486694,0.27895990014076233,2.417435884475708,-8.178892135620117, -3.6015818119049072
257,1088269566,0.70538753,0.015992308,-0.7067917,-0.051168457,9.867429733276367,0.9774462580680847,0.2953663766384125,2.135683536529541,-8.249634742736816, -2.5939137935638428
258,1088286233,0.7044603,0.016633797,-0.70771974,-0.050910566,9.790322303771973,0.9307171702384949,0.27447959780693054,4.068559169769287,-8.135339736938477, -1.88923180103302
259,1088302900,0.703453,0.0173075,-0.7087364,-0.050468657,9.768144607543945,1.1874181032180786,0.311441570520401,5.25734806060791,-8.922943115234375, -1.1730235815048218
260,1088319567,0.7023663,0.017720914,-0.70982224,-0.05020137,9.771488189697266,1.071058750152588,0.1404406726360321,3.068793296813965,-9.776256561279297, -0.7591992020606995
261,1088336234,0.70113057,0.01781039,-0.7110468,-0.050114,9.812065124511719,1.1565130949020386,0.22624775767326355,0.7521235942840576,-11.307869911193848, -0.07705583423376083
262,1088352901,0.699727,0.017554827,-0.71242785,-0.050205745,9.775089263916016,1.1343295574188232,0.23201113939285278,-1.8389930725097656,-13.043862342834473, 0.7162915468215942
263,1088369568,0.6981689,0.016940122,-0.71395826,-0.050368574,9.721268653869629,1.2724248170852661,0.16329236328601837,-3.708554983139038,-14.652626037597656, 2.1046547889709473
264,1088386235,0.6964759,0.016028905,-0.7156182,-0.050548375,9.693625450134277,1.165104866027832,0.038952574133872986,-5.460902214050293,-16.077415466308594, 3.46435809135437
265,1088402902,0.69465256,0.014916312,-0.71739656,-0.050772116,9.738900184631348,0.9722587466239929,-0.10040125250816345,-6.666532516479492,-17.375085830688477, 4.224288463592529
266,1088419569,0.69285315,0.013694621,-0.7191442,-0.050978296,10.041333198547363,1.0380570888519287,-0.41534146666526794,-7.035881042480469,-17.14161491394043, 4.8527092933654785
267,1088436236,0.69101137,0.011988261,-0.72089225,-0.051712234,9.7813138961792,1.0598909854888916,-0.16055698692798615,-12.122664451599121,-17.579652786254883, 4.729156017303467
268,1088452903,0.68889374,0.00987165,-0.7228536,-0.0530172,9.870589256286621,0.8233038187026978,-0.10688260197639465,-16.563976287841797,-20.13730239868164, 3.968780517578125
269,1088469570,0.68635994,0.007114428,-0.7251252,-0.055252884,9.79388427734375,0.9012960195541382,-0.0375552624464035,-24.456207275390625,-24.013233184814453, 2.6255621910095215
270,1088486237,0.68332225,0.003698023,-0.7277867,-0.05816939,9.787736892700195,0.9792035222053528,-0.13649269938468933,-29.5059871673584,-28.55762481689453, 2.472350835800171
271,1088502904,0.67982006,-0.00045726448,-0.7307863,-0.06161226,9.867591857910156,1.114079236984253,-0.2045517861843109,-35.46152114868164,-32.79352569580078, 3.517747163772583
272,1088519571,0.6759402,-0.0054314905,-0.7340123,-0.06558657,9.85190486907959,1.0705640316009521,-0.32558467984199524,-41.86191177368164,-36.10966110229492, 4.990297317504883
273,1088536238,0.6717339,-0.01065551,-0.73744947,-0.06948677,10.071228981018066,0.977473795413971,-0.43117499351501465,-42.56280517578125,-38.86774826049805, 6.440652847290039
274,1088552905,0.6673835,-0.015765801,-0.740955,-0.07305189,10.098729133605957,1.1079291105270386,-0.5594010949134827,-40.31398010253906,-39.89931869506836, 7.333812236785889
275,1088569572,0.6629824,-0.020018723,-0.7445409,-0.07558134,10.082903861999512,1.2231844663619995,-0.6687783598899841,-31.065753936767578,-40.22089385986328, 7.68593692779541
276,1088586239,0.65867287,-0.023313815,-0.7481824,-0.07635279,10.363020896911621,0.9040495753288269,-0.5588731169700623,-17.65593147277832,-39.7604866027832, 10.843794822692871
277,1088602906,0.65439236,-0.025244953,-0.75199777,-0.07505277,10.476489067077637,0.8672786355018616,-0.5058203935623169,-0.7246517539024353,-40.0352668762207, 13.192779541015625
278,1088619573,0.6500536,-0.026277097,-0.7559918,-0.07222355,10.696867942810059,0.759299635887146,-0.5344117283821106,11.311066627502441,-40.96788024902344, 15.362127304077148
279,1088636240,0.645465,-0.026798964,-0.76027495,-0.06810849,10.987228393554688,0.5879156589508057,-0.4477839767932892,20.3756103515625,-43.56806945800781, 18.277130126953125
280,1088652907,0.6405349,-0.027138686,-0.76488036,-0.06274355,11.609077453613281,0.4654909372329712,-0.2832557260990143,27.806621551513672,-46.967655181884766, 22.645828247070312
281,1088669574,0.63513416,-0.027586585,-0.76987404,-0.05601404,12.245513916015625,0.009590605273842812,-0.1611851453781128,34.58659362792969,-51.50845718383789, 28.94080924987793
282,1088686241,0.62916666,-0.02771094,-0.7753125,-0.04766749,12.15841293334961,-0.5075173377990723,0.06276566535234451,44.61983108520508,-56.700984954833984, 33.96750259399414
283,1088702908,0.62241614,-0.027463494,-0.7812951,-0.037708323,11.933476448059082,-1.1233463287353516,0.019950278103351593,54.846309661865234,-63.49750900268555, 38.57172775268555
284,1088719575,0.61500186,-0.026391948,-0.7876614,-0.025803922,11.622114181518555,-1.0357004404067993,-0.026808172464370728,68.78270721435547,-68.94544982910156, 42.184242248535156
285,1088736242,0.6070553,-0.020592593,-0.7943497,-0.008267009,10.91308879852295,-1.0310988426208496,0.1808905303478241,119.22684478759766,-73.46305847167969, 40.22531509399414
286,1088752909,0.59784657,-0.013182941,-0.8014131,0.011956933,11.913432121276855,-2.5939271450042725,0.6509673595428467,140.45335388183594,-82.30974578857422, 42.522499084472656
287,1088769576,0.5876152,-0.0050605726,-0.80836487,0.035060618,12.278410911560059,-1.9727469682693481,1.547033667564392,159.1367645263672,-87.9373779296875, 50.496307373046875
288,1088786243,0.57570463,0.0013834989,-0.8156843,0.0567572,11.616170883178711,-0.7553656101226807,1.7356923818588257,144.34898376464844,-98.47311401367188, 54.54310989379883
289,1088802910,0.56162125,0.005273723,-0.8238588,0.076228306,11.505209922790527,-0.296499639749527,2.0699944496154785,121.4146728515625,-113.23900604248047, 60.97775650024414
290,1088819577,0.546307,0.007193197,-0.8324457,0.092364706,10.868439674377441,0.40944093465805054,0.03032943606376648,94.7135238647461,-121.07614135742188, 60.01103973388672
291,1088836244,0.5301075,0.006298874,-0.84163463,0.10294623,11.23934268951416,-0.6173950433731079,-3.855823516845703,52.00149154663086,-127.00555419921875, 55.94444274902344
292,1088852911,0.5134041,0.0033656547,-0.8510663,0.10996226,12.984975814819336,-0.9587798118591309,-4.983049392700195,23.789461135864258,-129.52528381347656, 55.173587799072266
293,1088869578,0.49669918,0.0015975315,-0.8600985,0.11626875,12.723438262939453,1.7807234525680542,-3.4078292846679688,24.06312370300293,-129.03639221191406, 45.902164459228516
294,1088886245,0.48083436,0.00083199143,-0.8681394,0.1230113,11.889213562011719,0.5537834763526917,-1.9931772947311401,30.90204429626465,-121.55317687988281, 40.92937469482422
295,1088902912,0.46649086,0.0025164783,-0.874507,0.13273104,10.75986099243164,0.3034904897212982,-1.2140178680419922,58.20922088623047,-109.10905456542969, 34.970394134521484
296,1088919579,0.45493165,0.006246835,-0.8788698,0.14347948,9.687047004699707,1.7109943628311157,0.6233702301979065,72.76297760009766,-87.90497589111328, 23.511524200439453
297,1088936246,0.4478925,0.013258758,-0.87993956,0.15787046,7.320991039276123,0.7081069946289062,0.8640449643135071,108.13223266601562,-53.5185546875, 10.645988464355469
298,1088952913,0.44629622,0.02255224,-0.87739336,0.1746198,7.169754505157471,2.3526103496551514,4.265429973602295,132.8743896484375,-11.81206226348877, -1.988028645515442
299,1088969580,0.44904065,0.032201648,-0.87227476,0.19095169,6.037736892700195,0.7493239641189575,4.284063339233398,133.8748779296875,21.6041259765625, -10.820520401000977
300,1088986247,0.45605552,0.041634105,-0.8650165,0.20500351,6.099482536315918,1.0647073984146118,3.8207716941833496,121.36664581298828,53.45723342895508, -22.48796272277832
301,1089002914,0.46693438,0.050256,-0.85655576,0.21391383,6.487996578216553,1.1792526245117188,3.610020399093628,88.8101806640625,79.74626922607422, -39.43252182006836
302,1089019581,0.48148704,0.057605457,-0.8469692,0.21793453,7.024289131164551,-0.08291637897491455,2.776768684387207,56.291866302490234,105.0394515991211, -53.29886245727539
303,1089036248,0.49931002,0.06412938,-0.8359335,0.21861464,7.529536724090576,-0.40362313389778137,2.0372819900512695,34.9454460144043,128.66519165039062, -64.94966888427734
304,1089052915,0.52006096,0.06980063,-0.8231926,0.21683773,8.127872467041016,-0.8872048258781433,1.504884958267212,19.13274574279785,151.42945861816406, -73.5866928100586
305,1089069582,0.5432558,0.07485447,-0.80840844,0.21388295,9.07605266571045,-1.3828718662261963,0.7760226130485535,12.091602325439453,172.81930541992188, -78.90450286865234
306,1089086249,0.5682385,0.07965409,-0.7915382,0.21030411,10.014699935913086,-1.3514659404754639,0.12285982072353363,9.779163360595703,190.5169219970703, -83.51997375488281
307,1089102916,0.59447014,0.083753064,-0.7729264,0.20536701,10.67263126373291,-1.2859877347946167,-0.17824313044548035,1.4459800720214844,204.32723999023438, -87.7752914428711
308,1089119583,0.6215587,0.08670904,-0.75292194,0.19812874,11.278693199157715,-1.1051945686340332,-0.3918684720993042,-14.017205238342285,214.8158416748047, -93.1360092163086
309,1089136250,0.64913195,0.08800301,-0.7318194,0.18794589,12.095271110534668,-1.2834824323654175,-0.6238933801651001,-35.18501663208008,222.51318359375, -98.47985076904297
310,1089152917,0.6766422,0.08758838,-0.7098974,0.17472716,12.904976844787598,-0.7370504140853882,-1.0179595947265625,-57.00685119628906,226.26641845703125, -103.9496841430664
311,1089169584,0.70349723,0.085388795,-0.6875063,0.15854196,13.695247650146484,-0.4966740906238556,-1.586890697479248,-78.83638000488281,225.707763671875, -108.6620864868164
312,1089186251,0.729111,0.08219714,-0.6647001,0.14076513,14.186650276184082,-0.49385759234428406,-2.2080745697021484,-89.96621704101562,222.154296875, -110.71131134033203
313,1089202918,0.75296974,0.078633055,-0.64180684,0.12221935,14.533913612365723,-0.4554266929626465,-3.017381429672241,-94.24935150146484,214.71337890625, -111.37750244140625
314,1089219585,0.7746656,0.07464349,-0.6194189,0.103158824,14.297243118286133,-0.39799731969833374,-4.454868316650391,-97.9542007446289,202.90321350097656, -110.23889923095703
315,1089236252,0.7936111,0.070110835,-0.5985812,0.083465934,13.319286346435547,0.15635153651237488,-6.764578819274902,-103.20116424560547,183.31826782226562, -108.70771026611328
316,1089252919,0.8094261,0.064309314,-0.58032197,0.0626122,12.544626235961914,0.10830195248126984,-9.293764114379883,-114.85475158691406,156.90965270996094, -106.91807556152344
317,1089269586,0.82163393,0.056806583,-0.5657176,0.04068063,11.777949333190918,-0.6207500696182251,-10.48505687713623,-128.5907440185547,122.8448486328125, -103.08657836914062
318,1089286253,0.82979274,0.048770152,-0.55554175,0.02094598,11.494614601135254,-2.291538715362549,-11.140887260437012,-122.70423889160156,83.48799133300781, -85.85729217529297
319,1089302920,0.83387077,0.03855252,-0.5506008,0.0034508477,11.096247673034668,-3.656459093093872,-12.043787002563477,-125.96131134033203,39.47944259643555, -62.53761672973633
320,1089319587,0.8335064,0.029627496,-0.55164224,-0.008967692,10.816731452941895,-4.352448463439941,-12.280416488647461,-98.26937866210938,-9.962449073791504, -36.76480484008789
321,1089336254,0.8297367,0.022541516,-0.55746096,-0.01632362,10.233221054077148,-4.023799419403076,-10.244453430175781,-67.51387786865234,-48.78984069824219, -14.083481788635254
322,1089352921,0.8243202,0.018568572,-0.5654974,-0.019088825,10.839323997497559,-2.1550939083099365,-1.5231819152832031,-31.630210876464844,-66.45636749267578, 0.23791448771953583
323,1089369588,0.82066303,0.01720794,-0.57081646,-0.019616773,9.869207382202148,0.8945929408073425,10.210577011108398,-8.687670707702637,-43.53477096557617, 2.5911457538604736
324,1089386255,0.81799376,0.012343621,-0.5747916,-0.018676985,11.675919532775879,-0.41156959533691406,9.836544036865234,-22.979135513305664,-32.537513732910156, 24.602962493896484
325,1089402922,0.81230175,0.010561035,-0.58278954,-0.020266648,13.640216827392578,7.111338138580322,-2.609213352203369,-14.852051734924316,-67.05514526367188, -1.86546790599823
326,1089419589,0.80626446,0.00070868677,-0.5911103,-0.022933299,15.48148250579834,-7.463231086730957,-0.49432697892189026,-64.20320892333984,-71.36094665527344, 24.531368255615234
327,1089436256,0.80002075,-0.00025925972,-0.5995856,-0.02154323,10.979779243469238,-2.6631476879119873,3.0459887981414795,1.601623773574829,-71.58556365966797, 10.753390312194824
328,1089452923,0.7940807,0.0009162266,-0.6074474,-0.021049948,9.611571311950684,-2.58170223236084,1.8843129873275757,9.617908477783203,-66.67483520507812, -3.011845350265503
329,1089469590,0.78867304,0.003376297,-0.61443925,-0.02116446,9.211630821228027,-0.2434299737215042,2.0477046966552734,13.971949577331543,-59.54231643676758, -11.659252166748047
330,1089486257,0.7837241,0.0052562216,-0.6206914,-0.022160148,9.851563453674316,0.7220471501350403,1.7707194089889526,6.983821392059326,-53.726009368896484, -13.937317848205566
331,1089502924,0.7791865,0.00564849,-0.6262955,-0.024301292,9.961845397949219,0.9410735964775085,1.8489123582839966,-6.0378265380859375,-48.76780700683594, -13.709528923034668
332,1089519591,0.77497584,0.0051680943,-0.6313986,-0.026869955,9.657147407531738,0.6170313954353333,1.7319952249526978,-12.65373706817627,-44.8598747253418, -12.193473815917969
333,1089536258,0.7710414,0.0047639795,-0.6361125,-0.028875055,9.834722518920898,0.5269383192062378,1.6197046041488647,-9.884289741516113,-41.57234573364258, -9.476518630981445
334,1089552925,0.767338,0.003924709,-0.64048845,-0.030852588,9.976696014404297,0.9127983450889587,1.6263164281845093,-12.1452054977417,-38.87393569946289, -7.386542320251465
335,1089569592,0.7638467,0.003362417,-0.6445788,-0.03232886,9.838149070739746,0.30726006627082825,1.407121181488037,-8.543632507324219,-36.376861572265625, -5.915449142456055
336,1089586259,0.76051223,0.0044554165,-0.64850795,-0.032231588,9.686150550842285,0.18121860921382904,1.4639347791671753,7.083690643310547,-34.44651794433594, -4.955413341522217
337,1089602926,0.7573218,0.0059084943,-0.6522453,-0.031704906,9.767160415649414,0.6073563098907471,1.4641567468643188,10.835222244262695,-32.7216682434082, -4.290452480316162
338,1089619593,0.7542314,0.0068330467,-0.6558067,-0.03171855,9.88388442993164,0.4811212420463562,1.4348787069320679,5.617570877075195,-31.50901222229004, -4.715917587280273
339,1089636260,0.7512964,0.00798339,-0.6591659,-0.03147651,9.982627868652344,0.3752271234989166,1.2586485147476196,7.889896392822266,-29.7121639251709, -4.382232189178467
340,1089652927,0.7485406,0.009216766,-0.6622919,-0.031172171,9.921645164489746,0.6078847050666809,1.1557623147964478,8.541547775268555,-27.685195922851562, -4.4104180335998535
341,1089669594,0.7458231,0.009977639,-0.66533154,-0.031346213,9.81017017364502,0.6926718354225159,1.2029064893722534,3.9108071327209473,-27.208635330200195, -4.715771675109863
342,1089686261,0.7430512,0.010412619,-0.66839623,-0.03182916,9.67402458190918,0.9205682277679443,1.2042839527130127,0.8361737132072449,-27.687864303588867, -4.8159565925598145
343,1089702928,0.74023783,0.010046776,-0.6714627,-0.03294028,9.663466453552246,1.0503756999969482,1.1546998023986816,-6.137870788574219,-28.11956024169922, -4.349254131317139
344,1089719595,0.73743546,0.008712268,-0.6744724,-0.03464393,9.74537467956543,0.9720954895019531,1.0263303518295288,-13.816485404968262,-28.04912757873535, -2.889122486114502
345,1089736262,0.7346848,0.00711575,-0.67740166,-0.036262397,9.728963851928711,0.898361086845398,0.8967466354370117,-16.84430694580078,-27.569486618041992, -1.4941351413726807
346,1089752929,0.73191357,0.0056890966,-0.6803463,-0.0374039,9.67451286315918,0.865035891532898,0.8366219401359558,-13.623786926269531,-27.67749786376953, 0.15523269772529602
347,1089769596,0.72901726,0.004524309,-0.68342626,-0.037973594,9.521056175231934,1.1177995204925537,0.7951692342758179,-9.53207778930664,-28.855077743530273, 1.8054766654968262
348,1089786263,0.72606635,0.0031227511,-0.6865342,-0.038585324,9.716509819030762,0.8032922744750977,0.5086994171142578,-10.815652847290039,-29.31656265258789, 2.722824811935425
349,1089802930,0.7231202,0.0017892555,-0.68960595,-0.03921521,9.802675247192383,0.7839064598083496,0.4929426610469818,-10.583215713500977,-29.09785270690918, 2.3262622356414795
350,1089819597,0.7202379,0.00014817208,-0.69256574,-0.040128376,9.848495483398438,0.6467123627662659,0.41234979033470154,-13.360026359558105,-28.321033477783203, 2.4183528423309326
351,1089836264,0.71741414,-0.0016528725,-0.6954367,-0.041014057,9.841078758239746,0.5953466296195984,0.37402454018592834,-13.961005210876465,-27.644969940185547, 3.351849317550659
352,1089852931,0.71455497,-0.0031578806,-0.69833523,-0.0415864,9.783282279968262,0.6072766780853271,0.36930760741233826,-10.997526168823242,-27.872161865234375, 3.483203887939453
353,1089869598,0.71167916,-0.004295312,-0.70123965,-0.04192221,9.819897651672363,0.7523318529129028,0.31137940287590027,-8.010600090026855,-27.880094528198242, 2.8902928829193115
354,1089886265,0.7087743,-0.0054926663,-0.70413005,-0.042542543,9.70940113067627,0.9348778128623962,0.2168276160955429,-8.175776481628418,-27.90255355834961, 1.8735934495925903
355,1089902932,0.7058196,-0.007016312,-0.70702684,-0.043391064,9.757780075073242,0.7729560732841492,0.1376599669456482,-10.870115280151367,-28.265127182006836, 2.3284006118774414
356,1089919599,0.7027264,-0.0094644865,-0.7099968,-0.044616096,9.900601387023926,0.1834588646888733,0.08181482553482056,-17.171388626098633,-29.55445098876953, 4.951563835144043
357,1089936266,0.6994146,-0.01217736,-0.71316063,-0.045529593,9.899572372436523,0.46975797414779663,0.10114067792892456,-16.88408660888672,-31.66180992126465, 7.666639804840088
358,1089952933,0.69590896,-0.015223652,-0.7164494,-0.04668546,10.035382270812988,0.4280281960964203,-0.06370817124843597,-19.652732849121094,-33.299625396728516, 8.06424617767334
359,1089969600,0.6922368,-0.018713754,-0.7198128,-0.04824474,10.098067283630371,0.3244200050830841,-0.2746559679508209,-23.756454467773438,-34.58065414428711, 8.258271217346191
360,1089986267,0.6882593,-0.022748088,-0.72336787,-0.050205447,10.160865783691406,0.3884798586368561,-0.24806730449199677,-28.30903434753418,-37.13411331176758, 8.914026260375977
361,1090002934,0.68380845,-0.027451396,-0.72724444,-0.052610774,10.403454780578613,0.4665396511554718,-0.2838072180747986,-33.648563385009766,-41.17290496826172, 9.922982215881348
362,1090019601,0.6788651,-0.03266761,-0.73145086,-0.055268735,10.375675201416016,0.7442392706871033,-0.5067046284675598,-37.29655456542969,-45.327491760253906, 11.059401512145996
363,1090036268,0.67353296,-0.038068537,-0.73591655,-0.05771412,10.248800277709961,0.7490233182907104,-0.4773980677127838,-37.078529357910156,-48.61219024658203, 12.776320457458496
364,1090052935,0.6678225,-0.04352772,-0.74063945,-0.05976369,10.52424144744873,0.5588721036911011,-0.6344732642173767,-35.34190368652344,-51.84691619873047, 14.688309669494629
365,1090069602,0.6617543,-0.048831675,-0.74560285,-0.06142634,10.614139556884766,0.20461072027683258,-0.6118766069412231,-32.66657638549805,-54.827239990234375, 15.456135749816895
366,1090086269,0.65530276,-0.05368587,-0.7508698,-0.062375322,11.061785697937012,-0.04193202033638954,-0.3857118487358093,-26.96198272705078,-58.22691345214844, 16.13268280029297
367,1090102936,0.64900047,-0.056438673,-0.7562664,-0.060614716,12.191673278808594,-0.5071253776550293,-0.13707804679870605,-3.3949179649353027,-58.14522171020508, 17.506000518798828
368,1090119603,0.6438037,-0.052575864,-0.76167196,-0.051073167,12.431511878967285,-0.6138063073158264,0.3864147663116455,67.01573181152344,-52.70736312866211, 18.280317306518555
369,1090136270,0.6381826,-0.04778428,-0.7673887,-0.039425846,12.674195289611816,-0.9354648590087891,0.8133741617202759,82.11128997802734,-56.75601577758789, 22.47244644165039
370,1090152937,0.63155156,-0.04277315,-0.7737391,-0.025316976,12.980743408203125,-1.1294337511062622,1.1398429870605469,95.90251922607422,-65.62992858886719, 31.629636764526367
371,1090169604,0.6232536,-0.03913768,-0.7809836,-0.009372012,13.706395149230957,-0.9256068468093872,1.4286834001541138,99.3624267578125,-79.17940521240234, 46.365234375
372,1090186271,0.6132836,-0.037829224,-0.7889306,0.0063869697,12.89115047454834,-0.1713445782661438,1.3667100667953491,87.98460388183594,-91.28956604003906, 57.76730728149414
373,1090202938,0.601516,-0.03773537,-0.7976659,0.021992756,12.435770034790039,-0.21552175283432007,2.2891886234283447,81.52969360351562,-104.29194641113281, 63.58955383300781
374,1090219605,0.58797723,-0.038403418,-0.8070911,0.03757706,12.407779693603516,-0.4727746546268463,2.228856086730957,77.69532012939453,-116.76536560058594, 67.77572631835938
375,1090236272,0.5729093,-0.039346613,-0.81701493,0.052091826,11.195111274719238,0.41129666566848755,1.8714053630828857,70.11302185058594,-126.94014739990234, 65.24930572509766
376,1090252939,0.5568413,-0.041109663,-0.82711905,0.06412401,10.485763549804688,-0.6205579042434692,-0.14273223280906677,52.59973907470703,-132.324951171875, 60.39683532714844
377,1090269606,0.53995526,-0.042638797,-0.8373497,0.07399815,11.134171485900879,-0.6387725472450256,-3.709615707397461,40.934051513671875,-136.9667205810547, 51.13505172729492
378,1090286273,0.5223935,-0.042261586,-0.84752256,0.08381429,12.703130722045898,0.6340063214302063,-5.026271820068359,47.51175308227539,-141.59300231933594, 40.31249237060547
379,1090302940,0.5043303,-0.039459903,-0.8573473,0.09512881,12.536331176757812,1.4070676565170288,-3.2968459129333496,65.01614379882812,-145.09658813476562, 31.972381591796875
380,1090319607,0.48716527,-0.03391497,-0.8658079,0.1090711,12.409451484680176,0.7526006102561951,-1.2540167570114136,91.16812896728516,-137.5867919921875, 24.716651916503906
381,1090336274,0.47187033,-0.02520379,-0.87222284,0.12621568,11.08740234375,0.32043078541755676,0.19673745334148407,122.8182601928711,-122.74337768554688, 15.688033103942871
382,1090352941,0.45972395,-0.014215511,-0.8761659,0.14417069,9.775609016418457,1.1812281608581543,2.812091588973999,137.7609100341797,-97.97638702392578, 2.3763999938964844
383,1090369608,0.4525322,-0.0006895844,-0.8765132,0.16413087,8.486611366271973,1.3652595281600952,4.050790309906006,161.91778564453125,-59.501651763916016, -11.109357833862305
384,1090386275,0.45091352,0.013632582,-0.8736395,0.18233244,6.8928937911987305,1.8359503746032715,6.339940071105957,157.4579315185547,-16.80984115600586, -27.628564834594727
385,1090402942,0.4540431,0.026726494,-0.8685395,0.19690049,6.393261909484863,0.6897299885749817,6.013795375823975,134.16452026367188,19.782909393310547, -37.64997863769531
386,1090419609,0.4618525,0.0387993,-0.86159253,0.20699121,6.654697895050049,0.7033607959747314,5.480189323425293,105.87140655517578,54.026771545410156, -52.18473434448242
387,1090436276,0.4737388,0.04982843,-0.8531722,0.21257013,7.178900241851807,0.23685044050216675,4.46004581451416,76.83378601074219,83.1113510131836, -66.50788879394531
388,1090452943,0.4894336,0.060078304,-0.8430123,0.21488547,7.889023303985596,-0.5998807549476624,3.425585985183716,56.382774353027344,111.11700439453125, -78.71627807617188
389,1090469610,0.50851256,0.06979829,-0.8308864,0.21487439,8.431477546691895,-1.0050030946731567,2.940624237060547,42.615760803222656,137.1525421142578, -89.27930450439453
390,1090486277,0.53057194,0.07849665,-0.8167207,0.21283576,8.983662605285645,-1.6462877988815308,2.486736297607422,29.037370681762695,161.83352661132812, -95.9118881225586
391,1090502944,0.5550803,0.08618408,-0.8003593,0.20948318,9.738466262817383,-2.025052309036255,1.6384990215301514,19.855173110961914,184.35403442382812, -99.8002700805664
392,1090519611,0.5812685,0.09298574,-0.78199196,0.20486441,10.405937194824219,-1.7834080457687378,0.7756543159484863,11.39322280883789,201.77178955078125, -103.3726806640625
393,1090536278,0.6085816,0.09862236,-0.7619998,0.19813736,10.966793060302734,-1.4144721031188965,0.2325197160243988,-3.035735607147217,214.60533142089844, -108.16571807861328
394,1090552945,0.6365128,0.1029378,-0.7406508,0.18892299,11.389236450195312,-1.0680830478668213,-0.17293599247932434,-20.170774459838867,223.63587951660156, -113.42269897460938
395,1090569612,0.66459113,0.10629927,-0.7180398,0.17730834,11.941435813903809,-0.5154862999916077,-0.49344778060913086,-35.036441802978516,229.45339965820312, -120.16448974609375
396,1090586279,0.69234526,0.10939876,-0.69412655,0.16394688,12.718951225280762,-0.41887542605400085,-0.8121094703674316,-43.03218078613281,232.85647583007812, -127.4203872680664
397,1090602946,0.7192882,0.11312623,-0.66882396,0.15000592,13.726369857788086,-0.835191011428833,-1.3218218088150024,-40.62828826904297,234.471435546875, -133.3189239501953
398,1090619613,0.7448915,0.11723298,-0.6426363,0.1356907,14.417098999023438,-0.5479267835617065,-1.754430890083313,-38.51436233520508,232.0311737060547, -136.23556518554688
399,1090636280,0.7687923,0.12118265,-0.6161199,0.1211195,14.766143798828125,-0.6474315524101257,-2.222179889678955,-38.7663459777832,226.1629180908203, -135.54251098632812
400,1090652947,0.79062474,0.12447607,-0.59007293,0.10598314,15.031634330749512,-0.4266018867492676,-3.1053998470306396,-43.29463195800781,215.03353881835938, -133.6522216796875
401,1090669614,0.8101506,0.1259897,-0.5654584,0.0896632,14.515481948852539,-0.42247045040130615,-4.607022762298584,-56.8411865234375,198.21734619140625, -129.97450256347656
402,1090686281,0.82669216,0.12605423,-0.543377,0.07370338,13.034831047058105,-0.7638181447982788,-6.706952095031738,-62.48881912231445,173.76405334472656, -118.31521606445312
403,1090702948,0.8398737,0.12407091,-0.52528125,0.05743056,12.776457786560059,-0.5147278904914856,-8.270092964172363,-74.40709686279297,139.3858184814453, -107.30305480957031
404,1090719615,0.8494273,0.11968863,-0.51232904,0.040831715,12.51700496673584,-2.4249792098999023,-9.375986099243164,-88.3799057006836,97.32460021972656, -94.71735382080078
405,1090736282,0.85493404,0.113766134,-0.50547886,0.025226627,11.444859504699707,-3.8421237468719482,-10.142359733581543,-92.25989532470703,48.761741638183594, -77.3564224243164
406,1090752949,0.8563509,0.10719511,-0.5049816,0.012892656,10.5701322555542,-4.098791122436523,-10.188655853271484,-82.60822296142578,-0.042787425220012665, -50.227378845214844
407,1090769616,0.85443795,0.09881232,-0.5100533,0.004178019,10.406410217285156,-3.659858465194702,-9.268813133239746,-78.75187683105469,-41.4881477355957, -18.257532119750977
408,1090786283,0.8504058,0.08804185,-0.51870596,-0.0017998384,10.783935546875,-2.7271018028259277,-7.694129943847656,-81.84819030761719,-67.96084594726562, 8.66272258758545
409,1090802950,0.84451437,0.07889388,-0.52966774,-0.0048854547,10.740962982177734,-1.7219213247299194,-4.550527572631836,-60.89386749267578,-86.26414489746094, 21.14504051208496
410,1090819617,0.83931226,0.073392436,-0.53862655,-0.0070850463,9.421143531799316,3.496624708175659,6.343597412109375,-36.93482208251953,-71.48199462890625, 11.934843063354492
411,1090836284,0.83597237,0.06815263,-0.54447734,-0.007069983,11.887176513671875,2.6595587730407715,17.363019943237305,-28.312650680541992,-45.545616149902344, 22.287673950195312
412,1090852951,0.83177036,0.058787134,-0.55197394,-0.005197331,13.332062721252441,-1.5654371976852417,5.236709117889404,-44.577171325683594,-57.64505386352539, 49.150367736816406
413,1090869618,0.8245622,0.052141823,-0.563306,-0.008060151,15.265554428100586,7.237192630767822,-3.1084911823272705,-45.634639739990234,-92.81499481201172, 13.174838066101074
414,1090886285,0.81705135,0.03869901,-0.5751137,-0.013179507,11.849540710449219,-2.133208751678467,1.3457945585250854,-92.79119110107422,-97.8323974609375, 26.904224395751953
415,1090902952,0.8095596,0.0295848,-0.58608776,-0.015463082,9.527480125427246,-4.323745250701904,1.283949851989746,-57.333580017089844,-91.92021179199219, 25.486112594604492
416,1090919619,0.80224985,0.027788995,-0.5961715,-0.0142326495,10.0590181350708,-2.5035805702209473,0.5393337607383728,-2.563488245010376,-84.73725128173828, 15.3665132522583
417,1090936286,0.795502,0.027292157,-0.6051964,-0.01300524,10.492639541625977,0.049710147082805634,1.6664351224899292,1.4299036264419556,-76.63365936279297, 8.800944328308105
418,1090952953,0.78945047,0.02519868,-0.61314684,-0.013567647,11.041860580444336,-0.39421388506889343,1.5097179412841797,-14.665176391601562,-68.31536102294922, 5.693129062652588
419,1090969620,0.78402954,0.023492113,-0.6201141,-0.014312647,10.613971710205078,-1.1626554727554321,1.660064935684204,-13.463204383850098,-60.308433532714844, 3.036663770675659
420,1090986287,0.77909976,0.023452727,-0.62630147,-0.014147493,9.727197647094727,-0.6288602352142334,1.8087712526321411,1.79005765914917,-53.57467269897461, 1.5510759353637695
421,1091002954,0.774601,0.024339195,-0.6318381,-0.013479892,9.964265823364258,-0.520828902721405,1.8503090143203735,8.779587745666504,-48.07196807861328, 0.18853025138378143
422,1091019621,0.77039325,0.026589634,-0.63689494,-0.012334325,10.415109634399414,-0.4196750521659851,1.8137614727020264,18.026792526245117,-44.05528259277344, -3.248356580734253
423,1091036288,0.7665703,0.030533908,-0.64134634,-0.010606912,10.31428337097168,-0.4982011318206787,1.4775278568267822,29.42384147644043,-38.92204284667969, -7.665805816650391
424,1091052955,0.7632027,0.03526152,-0.6451382,-0.008660197,9.7683687210083,0.5408681035041809,1.407127022743225,34.3746337890625,-33.34331512451172, -10.074468612670898
425,1091069622,0.7603144,0.039434273,-0.648318,-0.007129046,9.722026824951172,0.9326704144477844,1.3631563186645508,29.467113494873047,-28.147327423095703, -9.91232967376709
426,1091086289,0.7577321,0.043324474,-0.65110326,-0.00546925,9.695357322692871,0.8131723999977112,1.4585275650024414,28.459182739257812,-24.708187103271484, -8.068861961364746
427,1091102956,0.7551198,0.046729416,-0.65390676,-0.0040757367,9.613234519958496,1.208577275276184,1.578583002090454,24.749128341674805,-25.043834686279297, -7.2763824462890625
428,1091119623,0.7524999,0.049009014,-0.6567572,-0.0035045524,9.649662017822266,1.530696988105774,1.4631402492523193,15.21351432800293,-25.62778091430664, -6.465793132781982
429,1091136290,0.74985373,0.050336048,-0.6596775,-0.0033798104,9.596320152282715,1.4628758430480957,1.4245985746383667,8.280203819274902,-26.29041862487793, -4.443648338317871
430,1091152957,0.7471996,0.05109506,-0.6626243,-0.0033419107,9.574979782104492,1.4560277462005615,1.256526231765747,4.961493968963623,-26.515708923339844, -2.2989892959594727
431,1091169624,0.74447525,0.051136836,-0.6656791,-0.0036392529,9.526056289672852,1.6033785343170166,1.2819979190826416,-0.22252371907234192,-27.532609939575195, -0.7104213237762451
432,1091186291,0.7416352,0.05039255,-0.66889477,-0.004185124,9.430118560791016,1.4515529870986938,1.1989134550094604,-5.337652206420898,-29.001182556152344, 1.676567554473877
433,1091202958,0.73863566,0.049266983,-0.6722876,-0.0044329814,9.431378364562988,1.36566960811615,1.1149359941482544,-5.85026741027832,-30.553966522216797, 5.012967109680176
434,1091219625,0.7355625,0.047775116,-0.6757541,-0.00466935,9.63286304473877,1.1103490591049194,0.8749580979347229,-7.628988265991211,-31.282928466796875, 6.793083190917969
435,1091236292,0.7325121,0.04597031,-0.67918104,-0.0050848504,9.80880069732666,0.7783412337303162,0.7681828737258911,-10.052305221557617,-31.052764892578125, 7.332861423492432
436,1091252959,0.7295664,0.04447474,-0.6824445,-0.0049512405,9.97131633758545,0.5214401483535767,0.692263662815094,-5.968189716339111,-29.562175750732422, 8.608284950256348
437,1091269626,0.7266254,0.043276396,-0.6856559,-0.004335529,9.872591018676758,0.6783106327056885,0.7526691555976868,-2.2173497676849365,-29.125883102416992, 9.616440773010254
438,1091286293,0.7236388,0.042017665,-0.6888895,-0.0036098892,9.816024780273438,0.7705531120300293,0.6612052917480469,-1.986835241317749,-29.427350997924805, 10.456747055053711
439,1091302960,0.72060275,0.040429045,-0.6921619,-0.0030397605,9.831807136535645,0.8565365672111511,0.5720215439796448,-4.34807825088501,-29.91345977783203, 11.257479667663574
440,1091319627,0.71750367,0.038508892,-0.6954844,-0.002658723,9.765477180480957,0.793928861618042,0.43200474977493286,-6.871414661407471,-30.526321411132812, 11.913558006286621
441,1091336294,0.7142863,0.036231875,-0.6989105,-0.0025857468,9.73521900177002,0.8469265103340149,0.3504141867160797,-10.070996284484863,-31.69536590576172, 12.127942085266113
442,1091352961,0.71091855,0.033498794,-0.7024699,-0.003004831,9.626855850219727,1.0030981302261353,0.2883789539337158,-14.63438892364502,-33.208404541015625, 11.93639087677002
443,1091369628,0.7073931,0.03002117,-0.70617086,-0.004094452,9.83965015411377,0.48641297221183777,0.10720229148864746,-21.472505569458008,-34.835784912109375, 12.28814697265625
444,1091386295,0.7036554,0.026121577,-0.71003985,-0.0055084713,9.954093933105469,0.4698614180088043,0.09617552161216736,-25.05061149597168,-36.7666015625, 12.78886890411377
445,1091402962,0.69967157,0.021772835,-0.7140945,-0.007399741,10.150505065917969,0.3053915798664093,-0.01158187910914421,-29.501558303833008,-38.973243713378906, 12.697769165039062
446,1091419629,0.6953368,0.017047787,-0.718415,-0.009818706,10.2643461227417,0.4170580208301544,-0.18779408931732178,-33.836341857910156,-42.07718276977539, 12.028985977172852
447,1091436296,0.6905703,0.012370887,-0.72305554,-0.012263618,10.354022979736328,0.5162907838821411,-0.2764338254928589,-33.66219711303711,-45.742401123046875, 11.676578521728516
448,1091452963,0.68533456,0.0077593364,-0.7280482,-0.014225157,10.452866554260254,0.44648438692092896,-0.10784630477428436,-30.878530502319336,-49.70332336425781, 13.638893127441406
449,1091469630,0.6797045,0.0034207962,-0.7333122,-0.015600487,10.865705490112305,0.2289210855960846,0.02215082198381424,-26.608694076538086,-52.903499603271484, 15.01169204711914
450,1091486297,0.67374456,0.00022084672,-0.7388044,-0.015373877,10.92407512664795,0.19268831610679626,0.06725458800792694,-13.179523468017578,-55.47938919067383, 16.72732925415039
451,1091502964,0.6673877,-0.0025989881,-0.7445792,-0.013740347,11.318283081054688,-0.09651757776737213,0.27757328748703003,-4.24086856842041,-58.770450592041016, 21.272144317626953
452,1091519631,0.6603989,-0.0054511637,-0.750817,-0.010849786,12.033260345458984,-0.21158911287784576,0.4326290488243103,2.0780770778656006,-64.1661376953125, 27.13623046875
453,1091536298,0.6526549,-0.008530532,-0.75757927,-0.0065196482,12.978981018066406,-0.44383275508880615,0.7978398203849792,8.488958358764648,-70.52959442138672, 34.76776885986328
454,1091552965,0.64431196,-0.009904207,-0.7646978,0.0012247731,13.707212448120117,-1.0948638916015625,1.2207093238830566,33.90764236450195,-75.38880157470703, 41.15449523925781
455,1091569632,0.6361501,-0.0051671937,-0.77134866,0.017540729,14.945145606994629,-1.6138596534729004,1.9288809299468994,106.0628890991211,-73.02325439453125, 47.02544021606445
456,1091586299,0.62681067,0.0007486692,-0.7782776,0.037309006,12.626380920410156,-1.8049280643463135,2.266883373260498,129.45407104492188,-80.78012084960938, 56.00275421142578
457,1091602966,0.6147877,0.00455921,-0.78653014,0.05818746,13.785585403442383,-1.4718903303146362,3.5284018516540527,125.99166870117188,-100.32966613769531, 72.74771118164062
458,1091619633,0.6000602,0.0039255936,-0.7963469,0.07578842,12.97553539276123,0.06966614723205566,3.921947479248047,88.93087005615234,-119.9321517944336, 84.06108093261719
459,1091636300,0.5833532,0.0012756325,-0.8070538,0.09144242,12.566987991333008,0.058049336075782776,3.1678123474121094,69.53529357910156,-133.4862518310547, 88.13895416259766
460,1091652967,0.56556565,-0.001390508,-0.81803113,0.10468368,11.134686470031738,2.316117286682129,1.5243396759033203,55.91682434082031,-140.6145782470703, 79.24750518798828
461,1091669634,0.54698586,-0.0047004013,-0.8295027,0.112737596,11.156254768371582,1.1523600816726685,-4.200656890869141,23.87710189819336,-146.50245666503906, 63.287330627441406
462,1091686301,0.52815396,-0.0067502665,-0.84071034,0.11922254,13.166869163513184,1.1034489870071411,-5.8218092918396,19.874164581298828,-147.8683319091797, 50.42243957519531
463,1091702968,0.5097613,-0.004844803,-0.85066503,0.12840956,12.206853866577148,1.5432844161987305,-3.54463791847229,50.921260833740234,-144.14056396484375, 37.090606689453125
464,1091719635,0.49282965,0.0004521748,-0.85840553,0.14233345,11.207569122314453,0.3643864393234253,-0.45857441425323486,92.53474426269531,-130.994140625, 32.6655387878418
465,1091736302,0.47819072,0.008195026,-0.86362344,0.15943962,10.281982421875,1.4148547649383545,1.5468097925186157,122.07537078857422,-111.3198013305664, 26.78219223022461
466,1091752969,0.46818,0.017758446,-0.86579764,0.17574643,8.096162796020508,2.299455404281616,4.017446994781494,126.393798828125,-75.89744567871094, 8.126452445983887
467,1091769636,0.46387124,0.029030183,-0.86424166,0.19252858,7.630709171295166,3.871049165725708,5.724208831787109,138.54000854492188,-31.986732482910156, -7.827198028564453
468,1091786303,0.46489784,0.03925398,-0.8604203,0.20495439,5.858663082122803,3.0974152088165283,5.972231388092041,111.24942016601562,7.419000148773193, -22.968278884887695
469,1091802970,0.470522,0.04768611,-0.85527587,0.21175052,6.12447452545166,2.572845220565796,5.2178544998168945,72.83927917480469,39.815277099609375, -37.16696548461914
470,1091819637,0.48062998,0.054848697,-0.8487488,0.21356992,6.67186164855957,1.929832100868225,4.461976528167725,40.00999069213867,70.83795166015625, -52.75748825073242
471,1091836304,0.494874,0.060593095,-0.84074444,0.21113262,7.764029502868652,1.0490760803222656,3.5227773189544678,11.089317321777344,100.30229949951172, -65.158935546875
472,1091852971,0.51262426,0.065600805,-0.83089817,0.20620722,8.847524642944336,0.5438587069511414,2.5032052993774414,-4.590966701507568,126.8421630859375, -75.21099090576172
473,1091869638,0.53328675,0.07017637,-0.8189927,0.19982906,9.468871116638184,0.22275832295417786,1.7668277025222778,-12.813556671142578,150.6718292236328, -82.91155242919922
474,1091886305,0.5564317,0.07436799,-0.80479455,0.1927671,9.820594787597656,-0.05836908519268036,0.9678868651390076,-16.124675750732422,173.2368621826172, -87.76815032958984
475,1091902972,0.58152246,0.07818667,-0.78832436,0.18510307,10.199419021606445,-0.0642998144030571,0.012331247329711914,-18.872573852539062,192.8726806640625, -91.74635314941406
476,1091919639,0.60787624,0.08189379,-0.76979834,0.17660816,10.591031074523926,0.21733145415782928,-0.7581920623779297,-21.889427185058594,207.63067626953125, -97.17591094970703
477,1091936306,0.63491434,0.08543454,-0.74957156,0.16651528,11.05291748046875,0.6821610927581787,-1.058115005493164,-29.36699676513672,217.6686248779297, -104.76312255859375
478,1091952973,0.6621868,0.08876867,-0.72788715,0.15430214,11.689377784729004,1.1234489679336548,-1.1453516483306885,-39.66804122924805,224.238525390625, -114.07855224609375
479,1091969640,0.68919593,0.09213128,-0.7049189,0.14003648,12.583388328552246,1.4044760465621948,-1.319905400276184,-48.290283203125,227.49411010742188, -124.0704116821289
480,1091986307,0.71543497,0.096117906,-0.6807547,0.1244483,13.508419036865234,1.1622010469436646,-1.6800670623779297,-50.10468292236328,228.005859375, -133.37843322753906
481,1092002974,0.74033296,0.10086663,-0.655815,0.10788729,14.230416297912598,0.9959412813186646,-1.6564152240753174,-49.359920501708984,224.27145385742188, -141.10040283203125
482,1092019641,0.76370376,0.1059908,-0.63029,0.090869315,14.625428199768066,0.6960791349411011,-2.0200889110565186,-48.01723861694336,219.79782104492188, -144.40032958984375
483,1092036308,0.78526974,0.11156777,-0.604513,0.07394786,14.94597339630127,0.500798761844635,-2.831874370574951,-43.75029754638672,213.1245880126953, -144.92445373535156
484,1092052975,0.80464023,0.118222825,-0.5790277,0.05748475,14.592268943786621,0.6133031845092773,-4.157829761505127,-34.49159622192383,202.2769012451172, -145.6072540283203
485,1092069642,0.8212341,0.12605962,-0.5549284,0.041691665,13.755334854125977,0.30310866236686707,-5.6117262840271,-23.58251953125,183.69215393066406, -144.39784240722656
486,1092086309,0.8344661,0.13356632,-0.5340313,0.025238555,12.940641403198242,0.9277456402778625,-6.843791484832764,-25.97819709777832,152.37693786621094, -143.14598083496094
487,1092102976,0.8444742,0.13800733,-0.517465,0.0068913326,13.075185775756836,-1.116296648979187,-8.038518905639648,-48.32944107055664,114.56134796142578, -138.23890686035156
488,1092119643,0.8509024,0.13917047,-0.50641686,-0.011780693,11.990255355834961,-3.6464061737060547,-9.214883804321289,-65.39520263671875,69.71688079833984, -123.09137725830078
489,1092136310,0.8536201,0.13710621,-0.50175786,-0.027818318,11.353641510009766,-4.59964656829834,-9.897958755493164,-71.0458984375,21.768535614013672, -90.67892456054688
490,1092152977,0.85358065,0.12814619,-0.5031949,-0.04211849,10.976414680480957,-3.5037057399749756,-10.380575180053711,-101.76992797851562,-23.109174728393555, -51.52845001220703
491,1092169644,0.8513193,0.111264475,-0.5095994,-0.05643076,10.883005142211914,-2.810900926589966,-9.210716247558594,-144.9274444580078,-62.16543197631836, -20.500118255615234
492,1092186311,0.84689474,0.09095426,-0.5193453,-0.06911619,10.251346588134766,-3.26961612701416,-7.586038589477539,-156.35983276367188,-89.30953979492188, 2.725803852081299
493,1092202978,0.84094316,0.07130562,-0.5302967,-0.0807184,11.22397232055664,-0.08281603455543518,0.0034812986850738525,-147.11656188964844,-100.7215805053711, 6.6758599281311035
494,1092219645,0.83509225,0.05343415,-0.539589,-0.09278901,9.517167091369629,3.9992618560791016,7.4086127281188965,-139.51536560058594,-89.98224639892578, -3.2705724239349365
495,1092236312,0.83056575,0.036682863,-0.54603314,-0.103261255,11.80217456817627,1.645557165145874,15.11427116394043,-129.44696044921875,-67.44754791259766, 1.5811586380004883
496,1092252979,0.8266462,0.01977555,-0.55202264,-0.10740565,12.873096466064453,-7.61815881729126,9.622614860534668,-107.0334243774414,-61.16556167602539, 38.62616729736328
497,1092269646,0.81996304,0.012789103,-0.56222934,-0.10674879,13.28451919555664,1.5733548402786255,-2.0085105895996094,-28.905628204345703,-87.68238067626953, 26.725820541381836
498,1092286313,0.8118393,0.00143856,-0.5729773,-0.11230295,14.198647499084473,-1.606054663658142,-0.22641567885875702,-77.00285339355469,-100.01331329345703, 7.572737693786621
499,1092302980,0.8046215,-0.0026606473,-0.58366585,-0.109139316,12.188840866088867,-7.689034938812256,0.09096485376358032,-2.2363667488098145,-90.39685821533203, 28.344554901123047
500,1092319647,0.7971338,-0.0011875406,-0.5945121,-0.1055075,10.099534034729004,1.0987963676452637,2.3027234077453613,30.588212966918945,-88.16504669189453, 8.300019264221191
501,1092336314,0.7903493,-0.0022439065,-0.6037772,-0.10390472,10.099336624145508,1.3142095804214478,1.6777020692825317,7.288055896759033,-78.44908905029297, 8.043877601623535
502,1092352981,0.7841954,-0.004838349,-0.61175966,-0.10375186,10.032671928405762,1.2378698587417603,1.716996431350708,-7.99744987487793,-69.94082641601562, 7.025296688079834
503,1092369648,0.77881074,-0.006440432,-0.6187674,-0.102661885,9.646687507629395,0.42055657505989075,1.5101343393325806,0.6245162487030029,-60.778194427490234, 8.49008846282959
504,1092386315,0.77390856,-0.0063453233,-0.6253018,-0.10011554,9.649550437927246,0.856967568397522,1.8520044088363647,15.595520973205566,-55.06365203857422, 9.427742958068848
505,1092402982,0.76928467,-0.0054349625,-0.63148034,-0.09697703,10.057982444763184,0.8761081695556641,1.7706458568572998,22.247337341308594,-51.44791030883789, 9.281463623046875
506,1092419649,0.76495117,-0.003779065,-0.63726956,-0.09339917,9.433090209960938,1.0490798950195312,1.7562870979309082,23.689603805541992,-48.04652404785156, 7.425384044647217
507,1092436316,0.7608088,-0.0019576037,-0.6427199,-0.089874975,9.465353012084961,1.2410218715667725,1.6736303567886353,24.003070831298828,-45.33572769165039, 6.5889739990234375
508,1092452983,0.756888,-0.0011736983,-0.64769286,-0.08725542,9.727709770202637,1.7439422607421875,1.5840740203857422,14.306723594665527,-42.492366790771484, 6.656834125518799
509,1092469650,0.7532748,-0.0012483714,-0.65214276,-0.085356206,9.717813491821289,1.4109495878219604,1.3237459659576416,6.380550384521484,-38.90544891357422, 6.998818397521973
510,1092486317,0.74992234,-0.0013486375,-0.6562343,-0.083493955,9.710987091064453,1.496571660041809,1.1634992361068726,5.80684232711792,-35.90092468261719, 7.119281768798828
511,1092502984,0.7467259,-0.0016234551,-0.6600608,-0.0819608,9.580585479736328,1.5144219398498535,1.2347371578216553,3.848573923110962,-33.87557601928711, 6.477177619934082
512,1092519651,0.74368405,-0.0021850138,-0.6636536,-0.080582276,9.80871295928955,0.8437453508377075,1.218374490737915,1.5731061697006226,-32.13321304321289, 7.124705791473389
513,1092536318,0.7406555,-0.0028840995,-0.66717213,-0.07938881,9.721887588500977,0.8453348875045776,1.357986569404602,-0.30968430638313293,-31.790836334228516, 6.796362400054932
514,1092552985,0.73752755,-0.0038835336,-0.67072564,-0.07852026,9.744129180908203,1.020904541015625,1.2897820472717285,-3.0340793132781982,-32.56215286254883, 6.555333614349365
515,1092569652,0.7342979,-0.00517335,-0.67431355,-0.07798182,9.723402976989746,1.1767487525939941,1.0709835290908813,-5.791337013244629,-33.33798599243164, 6.242116928100586
516,1092586319,0.7309446,-0.007124492,-0.6779194,-0.07806886,9.661324501037598,1.2131972312927246,1.0400867462158203,-11.746525764465332,-34.31372833251953, 6.167356014251709
517,1092602986,0.7275136,-0.009089159,-0.68159497,-0.077908196,9.711136817932129,0.965637743473053,1.010804295539856,-10.513168334960938,-35.03812789916992, 7.484163761138916
518,1092619653,0.72396153,-0.011053246,-0.6853798,-0.07753782,9.643061637878418,1.1778761148452759,0.8904306888580322,-6.512791156768799,-35.96006393432617, 8.90513801574707
519,1092636320,0.72026074,-0.013302913,-0.6892772,-0.07710007,9.707596778869629,1.3893033266067505,0.8316234946250916,-7.566456317901611,-37.38685607910156, 10.503358840942383
520,1092652987,0.716512,-0.016198259,-0.69312996,-0.07693751,9.73571491241455,1.3065818548202515,0.5639771819114685,-12.094402313232422,-37.71882247924805, 12.18546199798584
521,1092669654,0.7127697,-0.019351145,-0.69692165,-0.07671399,9.865880966186523,0.8674820065498352,0.4193117022514343,-13.102477073669434,-37.538963317871094, 13.729242324829102
522,1092686321,0.7090327,-0.022099543,-0.7007047,-0.07614029,9.633926391601562,1.1725212335586548,0.44758108258247375,-9.444931983947754,-37.30982971191406, 13.51356315612793
523,1092702988,0.7049898,-0.024834732,-0.70476186,-0.07539033,9.477752685546875,1.4570239782333374,0.2948642671108246,-8.432307243347168,-40.148006439208984, 14.112364768981934
524,1092719655,0.7007561,-0.027788978,-0.7088605,-0.07540293,9.3194580078125,2.5845324993133545,0.2048911154270172,-13.198151588439941,-41.26332473754883, 11.378887176513672
525,1092736322,0.69652957,-0.03248442,-0.71259534,-0.0774566,9.661561965942383,0.9136735796928406,-0.1707993447780609,-31.718578338623047,-39.99469757080078, 10.11996078491211
526,1092752989,0.69249517,-0.03850268,-0.7159752,-0.07967253,10.496603012084961,-1.050417184829712,-0.6979793310165405,-38.99333953857422,-38.02577209472656, 16.009136199951172
527,1092769656,0.6880678,-0.044318933,-0.7196541,-0.08183233,9.968022346496582,-0.04119691252708435,0.014332417398691177,-37.697105407714844,-41.28947067260742, 14.976583480834961
528,1092786323,0.68300086,-0.050306324,-0.7237306,-0.08481282,10.23519229888916,-0.07635872066020966,-0.04935549944639206,-42.539161682128906,-46.18916702270508, 11.457297325134277
529,1092802990,0.67723614,-0.05623434,-0.72831327,-0.08802711,10.60823917388916,0.1538849025964737,-0.15658923983573914,-43.3703498840332,-51.92918014526367, 9.479358673095703
530,1092819657,0.67077273,-0.062335774,-0.73336625,-0.09139039,10.86287784576416,0.5519052743911743,-0.31540578603744507,-44.90873336791992,-57.67236328125, 9.048428535461426
531,1092836324,0.6638918,-0.06824594,-0.73875713,-0.09395828,10.848294258117676,0.6700823903083801,-0.30184265971183777,-39.981346130371094,-61.564395904541016, 11.346972465515137
532,1092852991,0.6566151,-0.073646925,-0.74461,-0.09481013,10.95407485961914,0.7746913433074951,-0.17267194390296936,-28.827905654907227,-66.16767120361328, 16.123857498168945
533,1092869658,0.6487038,-0.07854228,-0.75115454,-0.09371089,11.286323547363281,0.5925695896148682,0.06711789965629578,-16.424123764038086,-73.20755767822266, 21.58274269104004
534,1092886325,0.6399169,-0.083107464,-0.758571,-0.090385586,11.730175018310547,0.07523081451654434,0.4252280294895172,-3.363281488418579,-82.62284851074219, 28.772899627685547
535,1092902992,0.629923,-0.08755726,-0.76699555,-0.085139796,12.098044395446777,-0.4872366189956665,0.7060656547546387,7.098487854003906,-94.39869689941406, 35.2931022644043
536,1092919659,0.61833316,-0.09217032,-0.7765544,-0.07830938,12.64167594909668,-0.7688204646110535,0.9098307490348816,14.450983047485352,-108.80097198486328, 41.395851135253906
537,1092936326,0.60683924,-0.09276567,-0.7867407,-0.06465083,15.472931861877441,-1.7654610872268677,1.3233931064605713,68.38899230957031,-113.14970397949219, 48.62309265136719
538,1092952993,0.5963931,-0.088257685,-0.79670435,-0.042285018,14.640239715576172,-0.6143993735313416,2.061950445175171,137.35711669921875,-109.88250732421875, 57.9493408203125
539,1092969660,0.58500063,-0.08219148,-0.8067178,-0.015016075,15.97793197631836,-1.7974416017532349,2.8972949981689453,170.05535888671875,-117.84342956542969, 69.22239685058594
540,1092986327,0.5709979,-0.077680014,-0.81715417,0.013643643,15.242505073547363,-0.02298577129840851,4.557280540466309,170.08139038085938,-135.03038024902344, 82.93852233886719
541,1093002994,0.55410814,-0.07587408,-0.82810086,0.038165033,13.463501930236816,-0.024121001362800598,3.871824264526367,134.6076202392578,-150.8560333251953, 81.9103775024414
542,1093019661,0.5358352,-0.07543812,-0.83891594,0.05839667,10.920193672180176,-0.8431378602981567,1.7274903059005737,104.2643051147461,-155.68710327148438, 73.82000732421875
543,1093036328,0.51670504,-0.07673515,-0.8497009,0.07166695,9.367645263671875,-0.04815419018268585,-4.615196228027344,57.282474517822266,-156.2460174560547, 58.54048538208008
544,1093052995,0.49772272,-0.07762063,-0.8601507,0.07992501,12.280322074890137,-0.3046381175518036,-7.329719066619873,29.71118927001953,-151.73609924316406, 38.446876525878906
545,1093069662,0.47985247,-0.073998936,-0.8694052,0.09165422,12.959253311157227,0.3538316786289215,-5.14567756652832,66.92987823486328,-145.3857879638672, 23.715225219726562
546,1093086329,0.46361822,-0.066538185,-0.87693775,0.10775552,12.077971458435059,0.55086749792099,-1.0462123155593872,107.66913604736328,-134.57821655273438, 15.063681602478027
547,1093102996,0.45025396,-0.056648187,-0.88205624,0.1266467,10.554408073425293,0.1827429085969925,1.611790657043457,135.35220336914062,-112.68701171875, 8.318604469299316
548,1093119663,0.44130015,-0.044367816,-0.8840508,0.14744432,7.553038120269775,0.14815354347229004,2.9125173091888428,158.75802612304688,-79.13119506835938, -2.8670833110809326
549,1093136330,0.43804342,-0.029800912,-0.8823704,0.16926962,6.977847099304199,3.5445327758789062,6.298341751098633,177.40957641601562,-36.013465881347656, -18.271121978759766
550,1093152997,0.43977606,-0.016352488,-0.8783372,0.18669151,4.772176742553711,1.6010745763778687,6.470843315124512,151.0892791748047,3.5007355213165283, -30.01990509033203
551,1093169664,0.4462771,-0.0050038197,-0.8725305,0.19875102,4.799292087554932,0.6265344023704529,5.542754650115967,115.1586685180664,40.920616149902344, -39.43984603881836
552,1093186331,0.4571215,0.00559659,-0.86536235,0.20532173,5.331617832183838,1.1431916952133179,4.801854610443115,81.93464660644531,72.33248138427734, -57.65641403198242
553,1093202998,0.47180018,0.01555613,-0.85697305,0.20678526,6.275246620178223,0.6038689613342285,3.523329019546509,51.10544204711914,99.66041564941406, -75.33137512207031
554,1093219665,0.4900394,0.025002157,-0.84705824,0.20427641,7.135034084320068,-0.41776689887046814,2.618438959121704,27.81757164001465,125.86799621582031, -90.39988708496094
555,1093236332,0.51165986,0.033803005,-0.8351497,0.19896397,8.029032707214355,-0.9648196697235107,2.1468324661254883,11.53038215637207,152.67955017089844, -101.17339324951172
556,1093252999,0.53608394,0.04189699,-0.82102716,0.19176403,9.08326244354248,-1.3115342855453491,1.3810884952545166,0.5748682618141174,177.07583618164062, -108.1026382446289
557,1093269666,0.5625461,0.049607646,-0.8045145,0.18394977,9.941606521606445,-1.832355260848999,0.5142068266868591,-1.7473978996276855,197.7040557861328, -111.58024597167969
558,1093286333,0.5901125,0.05755383,-0.7857713,0.17612018,10.479153633117676,-2.503922939300537,-2.2520222663879395,1.5196382999420166,212.12704467773438, -115.10538482666016
559,1093303000,0.61850303,0.06585719,-0.7647634,0.16808917,12.52651309967041,-1.7716591358184814,-0.5624852776527405,4.295101165771484,225.27359008789062, -119.75923919677734
560,1093319667,0.6470348,0.07399971,-0.7419316,0.15939763,11.807538032531738,-1.5282387733459473,0.10022011399269104,2.180208206176758,233.66075134277344, -122.7169418334961
561,1093336334,0.6755208,0.07980724,-0.718248,0.14636427,12.123764991760254,-0.05344269797205925,-0.4544723331928253,-29.40774917602539,237.56878662109375, -130.5169219970703
562,1093353001,0.7038433,0.082887866,-0.69380265,0.12795353,14.083861351013184,1.257209300994873,-0.5591171383857727,-67.7786636352539,240.10519409179688, -142.2930908203125
563,1093369668,0.7315335,0.084725074,-0.66800165,0.107024305,15.35841178894043,0.6624042987823486,-0.8783609867095947,-84.25580596923828,243.32485961914062, -148.77346801757812
564,1093386335,0.7578824,0.086880624,-0.6408698,0.08574469,17.20807456970215,0.6668670773506165,-1.8145751953125,-82.49701690673828,243.4443359375, -151.80105590820312
565,1093403002,0.7820137,0.089144886,-0.61349016,0.06432678,17.323862075805664,1.021052360534668,-3.823373794555664,-81.06157684326172,234.85488891601562, -151.85606384277344
566,1093419669,0.8029525,0.09133885,-0.5874056,0.043351218,15.18802261352539,0.3838137686252594,-7.946122646331787,-78.18586730957031,214.78489685058594, -146.9871063232422
567,1093436336,0.8200072,0.09135784,-0.5645722,0.022365518,15.020015716552734,-0.6585915684700012,-10.138959884643555,-88.76728057861328,181.88253784179688, -135.07664489746094
568,1093453003,0.83280873,0.083913065,-0.5471627,-0.0010465239,14.037606239318848,-2.7297263145446777,-12.487491607666016,-138.44383239746094,134.53221130371094, -115.75530242919922
569,1093469670,0.8400218,0.07124249,-0.5373398,-0.023534277,12.389080047607422,-6.293630123138428,-15.812609672546387,-161.61959838867188,70.69355773925781, -86.51329803466797
570,1093486337,0.8416436,0.056592528,-0.5353871,-0.042355947,10.83882999420166,-6.844492435455322,-15.491806983947754,-155.4991455078125,6.214692115783691, -55.14656448364258
571,1093503004,0.83825415,0.042121053,-0.54085606,-0.0550508,10.907224655151367,-6.5003743171691895,-14.634206771850586,-127.80270385742188,-52.59000778198242, -18.98544692993164
572,1093519671,0.8313944,0.028830932,-0.5515489,-0.061205782,11.752599716186523,-5.285429954528809,-10.689559936523438,-93.69931030273438,-93.114990234375, 14.453229904174805
573,1093536338,0.82515824,0.0218564,-0.5610215,-0.062379442,11.845786094665527,1.2356094121932983,5.350013732910156,-39.34333419799805,-80.01283264160156, 18.949682235717773
574,1093553005,0.8214608,0.017421514,-0.5669975,-0.058420226,11.140960693359375,1.0677909851074219,14.182571411132812,-7.0133795738220215,-48.53947067260742, 38.84174346923828
575,1093569672,0.8154834,0.013164528,-0.57609934,-0.05406759,13.268860816955566,4.81729793548584,-2.3022570610046387,-2.931422472000122,-75.05796813964844, 39.8343391418457
576,1093586339,0.8082907,0.0020879337,-0.5859346,-0.057817243,15.094676971435547,-0.8944399356842041,-0.11157578974962234,-72.88882446289062,-87.20761108398438, 21.06960678100586
577,1093603006,0.801388,-0.0047711576,-0.59553504,-0.055611633,9.8282470703125,-2.4646506309509277,1.805422067642212,-25.55323600769043,-82.94020080566406, 37.27574920654297
578,1093619673,0.7945308,-0.009690656,-0.60469264,-0.054532804,10.612295150756836,-3.7591466903686523,1.3491250276565552,-19.64239501953125,-79.537841796875, 23.135154724121094
579,1093636340,0.7878399,-0.0088032335,-0.6136533,-0.051583413,9.879643440246582,-1.8834401369094849,1.232425570487976,19.796430587768555,-75.71709442138672, 9.25150203704834
580,1093653007,0.7815439,-0.006728696,-0.6219056,-0.048758626,10.169168472290039,-0.46740949153900146,1.7968987226486206,25.47284507751465,-69.78877258300781, 3.7313241958618164
581,1093669674,0.77555794,-0.0057975617,-0.62942785,-0.047929883,10.325906753540039,0.6871060132980347,1.961949110031128,10.561795234680176,-64.83977508544922, -1.973501443862915
582,1093686341,0.77004886,-0.0070006973,-0.63605016,-0.04915358,9.88389778137207,0.5536445379257202,1.7481669187545776,-9.980189323425293,-58.60883712768555, -3.4821407794952393
583,1093703008,0.7650519,-0.009312455,-0.64182895,-0.051619295,9.929208755493164,0.2971876561641693,1.4682315587997437,-21.543970108032227,-52.229854583740234, -4.989654064178467
584,1093719675,0.76065135,-0.011402139,-0.64680547,-0.05405955,10.108742713928223,0.16167549788951874,1.1874427795410156,-20.51076889038086,-45.31026840209961, -5.567763805389404
585,1093736342,0.75670636,-0.013255894,-0.6511662,-0.05659088,10.079522132873535,0.4882058799266815,1.3197672367095947,-19.876724243164062,-39.97541046142578, -6.872692108154297
586,1093753009,0.7530229,-0.014989189,-0.6551437,-0.05931847,9.953182220458984,0.33578774333000183,1.314834713935852,-20.255319595336914,-36.75476837158203, -8.290857315063477
587,1093769676,0.7495767,-0.016465781,-0.6588001,-0.062017776,9.913654327392578,0.20625127851963043,1.2024184465408325,-18.905349731445312,-33.93214797973633, -9.166886329650879
588,1093786343,0.7463593,-0.018456468,-0.6620877,-0.06517084,10.0340576171875,0.5318565964698792,1.2171591520309448,-23.742849349975586,-31.17221450805664, -9.035045623779297
589,1093803010,0.7433684,-0.0201666,-0.6651173,-0.06793898,9.886903762817383,0.4011084735393524,1.1523044109344482,-20.638103485107422,-28.749950408935547, -8.197675704956055
590,1093819677,0.74055547,-0.019984145,-0.66815156,-0.06893309,9.92000675201416,0.25750404596328735,1.088775634765625,-2.826484441757202,-27.330503463745117, -7.700248718261719
591,1093836344,0.7378275,-0.018977128,-0.6711678,-0.069169015,9.825682640075684,0.6701653003692627,1.1238027811050415,4.857583045959473,-26.5730037689209, -7.5852460861206055
592,1093853011,0.73505527,-0.018444132,-0.6741504,-0.06981977,9.757796287536621,0.9904420375823975,1.2296977043151855,0.5172690153121948,-26.787546157836914, -7.515566349029541
593,1093869678,0.73211735,-0.018251382,-0.67726344,-0.070607774,9.727853775024414,1.10393488407135,1.1222712993621826,-1.7962497472763062,-28.37345314025879, -6.7221503257751465
594,1093886345,0.72911745,-0.016883684,-0.68059576,-0.06994459,9.640564918518066,0.9380025863647461,1.143655776977539,10.974663734436035,-29.38881492614746, -4.939772129058838
595,1093903012,0.7259038,-0.015543095,-0.68416154,-0.06888429,9.346397399902344,1.1927070617675781,0.98188716173172,12.785533905029297,-31.631494522094727, -2.9478416442871094
596,1093919679,0.7225463,-0.0153368255,-0.68773615,-0.06863562,9.513934135437012,1.184640645980835,0.7366808652877808,3.2966039180755615,-32.81451416015625, -1.7252395153045654
597,1093936346,0.71904004,-0.015852896,-0.69138056,-0.068725415,9.525019645690918,1.4416533708572388,0.5772027969360352,-1.8733973503112793,-34.17949676513672, -0.06190614774823189
598,1093953013,0.7152738,-0.01696443,-0.6951957,-0.06927285,9.324244499206543,1.8410818576812744,0.5077378749847412,-6.938385486602783,-36.501380920410156, 0.37364625930786133
599,1093969680,0.71120006,-0.019445134,-0.6991035,-0.071210794,9.217100143432617,2.0996665954589844,0.5117437243461609,-17.868955612182617,-38.7987174987793, 0.20483246445655823
600,1093986347,0.70718944,-0.024338668,-0.70269525,-0.074231036,10.27869701385498,-0.28938430547714233,-0.030603352934122086,-37.53148651123047,-38.12657928466797, 6.3211565017700195
601,1094003014,0.7031039,-0.028937845,-0.7063751,-0.07643089,9.70668888092041,0.28479981422424316,0.3815253674983978,-33.102935791015625,-38.956298828125, 8.741679191589355
602,1094019681,0.69879997,-0.033426147,-0.71019477,-0.078642964,10.042340278625488,0.12358922511339188,0.18206410109996796,-34.049163818359375,-40.70058059692383, 7.901539325714111
603,1094036348,0.6942865,-0.037499703,-0.7141808,-0.0806581,9.977567672729492,0.17392005026340485,0.09808805584907532,-31.509868621826172,-42.36433029174805, 6.669428825378418
604,1094053015,0.68953085,-0.041403133,-0.7183462,-0.08253376,10.05495834350586,0.19682982563972473,-0.056669700890779495,-30.268707275390625,-44.36338424682617, 6.339343070983887
605,1094069682,0.6845295,-0.04524913,-0.72267056,-0.08437497,9.97326946258545,0.4314180016517639,-0.14061863720417023,-30.08945655822754,-46.31854248046875, 6.064249515533447
606,1094086349,0.67938817,-0.049404968,-0.72698563,-0.08650309,10.178824424743652,0.629447340965271,-0.28436535596847534,-32.93879318237305,-47.05913543701172, 6.225348472595215
607,1094103016,0.67415476,-0.053663023,-0.7312815,-0.08867505,10.301031112670898,0.6881796717643738,-0.4998472332954407,-33.324214935302734,-47.4641227722168, 6.536792278289795
608,1094119683,0.66886145,-0.05765501,-0.7355718,-0.09074464,10.483532905578613,0.5316372513771057,-0.8402369022369385,-31.5988826751709,-47.61560821533203, 5.683837413787842
609,1094136350,0.6635102,-0.06087869,-0.7399803,-0.09207348,10.258880615234375,0.4764154553413391,-0.5641816258430481,-23.961994171142578,-48.25774002075195, 5.160686492919922
610,1094153017,0.6580232,-0.06323746,-0.7446824,-0.09195055,10.592364311218262,0.5903155207633972,-0.5405278205871582,-12.178943634033203,-50.34366989135742, 7.20445442199707
611,1094169684,0.6522413,-0.06514211,-0.74975675,-0.0905687,10.811118125915527,0.7677884101867676,-0.4761506915092468,-1.1168407201766968,-53.740570068359375, 10.157572746276855
612,1094186351,0.64605844,-0.06660475,-0.7552852,-0.08784424,10.98142147064209,0.4858741760253906,-0.29231029748916626,7.890958786010742,-58.18145751953125, 13.449203491210938
613,1094203018,0.63938093,-0.06779111,-0.76131207,-0.08366818,11.26855754852295,-0.10900526493787766,-0.3218136727809906,16.732210159301758,-63.47715759277344, 17.935579299926758
614,1094219685,0.63199735,-0.068835706,-0.7679559,-0.07800623,11.43562126159668,-0.47182485461235046,-0.151968851685524,25.159400939941406,-70.51244354248047, 23.02718734741211
615,1094236352,0.6236742,-0.06993303,-0.77535826,-0.07042438,12.18803596496582,-0.4737844169139862,0.18284250795841217,35.029014587402344,-79.72671508789062, 30.778608322143555
616,1094253019,0.6139902,-0.07165079,-0.7836979,-0.060827196,13.298931121826172,-0.503512978553772,0.7413604855537415,42.9114990234375,-92.2969741821289, 41.61357498168945
617,1094269686,0.6030405,-0.07458473,-0.7926648,-0.049615834,13.880061149597168,-0.653779923915863,0.8047506213188171,46.1138916015625,-103.10400390625, 54.13961410522461
618,1094286353,0.59117424,-0.078186944,-0.8019293,-0.03618491,15.045920372009277,-1.071808099746704,1.261304259300232,55.06971740722656,-110.7403564453125, 66.51818084716797
619,1094303020,0.57845074,-0.08042256,-0.81149065,-0.020247295,14.182613372802734,-1.3466134071350098,2.6436002254486084,74.05601501464844,-117.73233032226562, 68.79857635498047
620,1094319687,0.5648152,-0.07893625,-0.8214308,0.0020596571,15.551934242248535,-2.5247573852539062,3.4210588932037354,123.94591522216797,-127.39823150634766, 73.03373718261719
621,1094336354,0.5510188,-0.069916315,-0.83089465,0.033229735,13.785118103027344,-0.5919699668884277,4.866912364959717,203.1918182373047,-131.4620819091797, 65.17478942871094
622,1094353021,0.53502804,-0.06121005,-0.84037846,0.06134155,11.673256874084473,1.5002777576446533,2.4134364128112793,183.45620727539062,-142.61276245117188, 55.8995361328125
623,1094369688,0.5160754,-0.058102496,-0.85102105,0.07780508,9.96759033203125,0.8570476770401001,-4.1726837158203125,93.8019027709961,-156.7705535888672, 46.200836181640625
624,1094386355,0.49604616,-0.059198976,-0.8618449,0.08750574,13.571414947509766,-1.448199987411499,-7.73474645614624,38.79488754272461,-158.75448608398438, 47.33344268798828
625,1094403022,0.47607172,-0.0566534,-0.872138,0.09757875,14.557943344116211,2.1524202823638916,-4.264852523803711,53.775672912597656,-158.94924926757812, 27.21989631652832
626,1094419689,0.45776066,-0.050259966,-0.88082653,0.109881714,11.916015625,2.4683473110198975,0.5501797199249268,81.49763488769531,-147.19801330566406, 11.000992774963379
627,1094436356,0.44270855,-0.04113073,-0.8866618,0.12707672,9.856011390686035,-0.05040082335472107,2.283564329147339,123.04327392578125,-122.28900909423828, 8.402876853942871
628,1094453023,0.43219778,-0.029113516,-0.8889214,0.14891772,8.680784225463867,-0.18558016419410706,2.4380180835723877,164.57467651367188,-87.60641479492188, 2.017843008041382
629,1094469690,0.42821392,-0.013706459,-0.886916,0.17269973,8.67824649810791,3.7984280586242676,7.652982711791992,192.18936157226562,-38.9370002746582, -18.721845626831055
630,1094486357,0.42980513,0.0009548293,-0.8820332,0.19309089,5.706977844238281,1.4587771892547607,7.369294166564941,173.2599334716797,4.6667914390563965, -30.431081771850586
631,1094503024,0.43656775,0.013612315,-0.8752494,0.20775469,5.185388088226318,1.460190773010254,6.098327159881592,135.07821655273438,44.21844482421875, -42.03255081176758
632,1094519691,0.44815373,0.024680426,-0.86743426,0.21472521,5.7752532958984375,1.5894988775253296,5.537011623382568,85.02006530761719,77.8471450805664, -62.50634765625
633,1094536358,0.46409047,0.034300227,-0.85837376,0.21595846,6.602270603179932,0.007863787934184074,4.164851665496826,47.43291091918945,108.75394439697266, -78.14742279052734
634,1094553025,0.48381624,0.04381126,-0.84731954,0.21459813,7.569106101989746,-0.4953829050064087,3.0644125938415527,33.834930419921875,136.99168395996094, -91.86016082763672
635,1094569692,0.50689614,0.053363927,-0.83387095,0.2118205,8.478504180908203,-1.0827008485794067,2.3487319946289062,28.22939682006836,163.97976684570312, -102.47584533691406
636,1094586359,0.5328668,0.062872976,-0.81770873,0.20845248,9.299418449401855,-1.43784761428833,1.647728443145752,27.57319450378418,189.83566284179688, -109.48271179199219
637,1094603026,0.56106496,0.07235083,-0.79886866,0.20440215,10.15099048614502,-1.2066768407821655,0.9467597007751465,26.489543914794922,211.9042510986328, -116.15599822998047
638,1094619693,0.59072334,0.081435665,-0.7777679,0.19872423,10.832817077636719,-0.9234364628791809,0.2675858438014984,18.47589874267578,228.3787078857422, -123.45075225830078
639,1094636360,0.62137336,0.08943003,-0.7548425,0.19002692,11.67481517791748,-0.3836701214313507,0.002945929765701294,-0.1718045026063919,240.8897705078125, -132.26109313964844
640,1094653027,0.65261847,0.095843166,-0.73032063,0.17758119,12.641231536865234,0.22638005018234253,-0.160611093044281,-24.666439056396484,250.5614471435547, -141.83360290527344
641,1094669694,0.6838303,0.10077674,-0.7043867,0.16143066,13.503506660461426,0.9281898140907288,-0.4318787455558777,-48.1662712097168,256.1004638671875, -151.9267120361328
642,1094686361,0.714485,0.10504974,-0.6768228,0.14278196,15.05173110961914,0.7291262149810791,-0.43748873472213745,-61.180606842041016,260.0810852050781, -160.9949493408203
643,1094703028,0.74413997,0.10981155,-0.6472163,0.12372645,17.149778366088867,0.12642309069633484,-0.8257578611373901,-57.93773651123047,264.7130126953125, -165.7781524658203
644,1094719695,0.7722539,0.115075186,-0.61594784,0.10483287,18.810029983520508,0.44727784395217896,-2.3777639865875244,-52.064910888671875,266.0931396484375, -167.15118408203125
645,1094736362,0.79779184,0.11927644,-0.5850218,0.08396979,18.415523529052734,1.4687960147857666,-5.023946762084961,-64.2551040649414,252.63665771484375, -171.00930786132812
646,1094753029,0.8197634,0.11963326,-0.55667496,0.061557252,15.79014778137207,0.5035179257392883,-8.456022262573242,-90.14729309082031,225.18128967285156, -159.88836669921875
647,1094769696,0.8366609,0.11827842,-0.5334098,0.03850733,14.867504119873047,1.4229954481124878,-10.83027458190918,-100.21562194824219,177.43495178222656, -150.6316680908203
648,1094786363,0.8491567,0.11335455,-0.51564074,0.01408075,13.801085472106934,-2.3432297706604004,-11.772635459899902,-123.68852233886719,129.64793395996094, -139.85195922851562
649,1094803030,0.85626185,0.10914237,-0.50482374,-0.0075110025,11.756844520568848,-3.5894806385040283,-13.393555641174316,-105.9577407836914,72.24429321289062, -119.94033813476562
650,1094819697,0.85814035,0.105465956,-0.50185764,-0.02472102,10.916788101196289,-5.565523147583008,-13.325333595275879,-83.27462005615234,11.36841106414795, -90.4447021484375
651,1094836364,0.8563005,0.09942,-0.5055661,-0.035610728,10.961454391479492,-6.046998500823975,-11.064872741699219,-71.62301635742188,-36.4930305480957, -40.849979400634766
652,1094853031,0.8520962,0.08884031,-0.5140075,-0.042849194,9.963144302368164,-4.019773960113525,-9.65153694152832,-82.84939575195312,-71.04490661621094, -1.0168795585632324
653,1094869698,0.846472,0.07603161,-0.524816,-0.04767319,9.62112045288086,-4.5300188064575195,-6.622073173522949,-85.81659698486328,-88.98855590820312, 21.98242950439453
654,1094886365,0.83984745,0.067265175,-0.53642064,-0.0488327,10.30179214477539,-2.671769618988037,1.1841728687286377,-48.27717971801758,-93.896240234375, 28.758371353149414
655,1094903032,0.8345635,0.062404945,-0.5452472,-0.048116975,9.176877975463867,0.7647004127502441,11.797431945800781,-20.344032287597656,-70.71027374267578, 24.307344436645508
656,1094919699,0.8308802,0.057023074,-0.55171967,-0.044631,12.253571510314941,0.5255535840988159,21.31822395324707,-14.396496772766113,-50.275962829589844, 41.677345275878906
657,1094936366,0.8235757,0.055695396,-0.5629392,-0.041481756,14.746180534362793,6.980271339416504,-8.665164947509766,10.394464492797852,-90.19245910644531, 25.116334915161133
658,1094953033,0.8152389,0.03945651,-0.5756319,-0.049765874,19.639667510986328,-0.5827673673629761,-2.498046636581421,-117.51687622070312,-111.03217315673828, 18.417190551757812
659,1094969700,0.8066046,0.02933755,-0.5885294,-0.04649246,14.113383293151855,-8.187722206115723,0.2773854434490204,-37.31571578979492,-108.03929138183594, 58.911678314208984
660,1094986367,0.79779893,0.026790237,-0.6007184,-0.044007972,8.02405071258545,0.10101335495710373,2.6470375061035156,1.3088661432266235,-102.50955200195312, 23.60209083557129
661,1095003034,0.7898198,0.023390988,-0.61137897,-0.043052316,9.316407203674316,0.9899826645851135,1.3862602710723877,-10.292742729187012,-91.27099609375, 18.702451705932617
662,1095019701,0.78306204,0.018668845,-0.6201348,-0.043572757,9.809592247009277,0.6580306887626648,1.3381427526474,-24.443649291992188,-76.42556762695312, 16.312122344970703
663,1095036368,0.77732,0.014100584,-0.6273819,-0.04434945,10.459450721740723,0.12400728464126587,1.4100028276443481,-25.289907455444336,-63.96213912963867, 14.394248008728027
664,1095053035,0.77217215,0.010374516,-0.6337507,-0.044754244,10.19025707244873,-0.6940481662750244,1.4074978828430176,-19.5101261138916,-56.41874313354492, 12.845596313476562
665,1095069702,0.7673224,0.008843692,-0.63969624,-0.04389493,9.91308307647705,-0.30898717045783997,1.5373127460479736,-2.498441219329834,-52.114845275878906, 10.043831825256348
666,1095086369,0.7628854,0.007990074,-0.64504606,-0.043100853,9.789828300476074,0.6112545728683472,1.5451968908309937,0.5826358795166016,-46.96823501586914, 6.8042778968811035
667,1095103036,0.75889724,0.0059658843,-0.64968026,-0.044216394,10.066781997680664,0.505518913269043,1.5604197978973389,-14.262773513793945,-41.68836212158203, 2.0789778232574463
668,1095119703,0.7551594,0.004352468,-0.65390855,-0.046035025,9.992624282836914,-0.07037302851676941,1.3057085275650024,-15.39478588104248,-38.3701057434082, -3.359753131866455
669,1095136370,0.7516258,0.0026249788,-0.65779716,-0.048526738,9.939085006713867,0.6640110015869141,1.4739540815353394,-19.12830352783203,-35.75550079345703, -6.287724494934082
670,1095153037,0.748174,0.00033569842,-0.661492,-0.051613312,9.723134994506836,0.7969872951507568,1.4847384691238403,-24.78890037536621,-34.596858978271484, -6.789663314819336
671,1095169704,0.7446996,-0.0022520893,-0.6651585,-0.054604854,9.491018295288086,0.7386131286621094,1.38001549243927,-25.902908325195312,-34.674293518066406, -4.942041397094727
672,1095186371,0.7411421,-0.0050238967,-0.6688617,-0.05750928,9.545622825622559,0.934240460395813,1.329094409942627,-26.43462562561035,-35.32703399658203, -3.677790880203247
673,1095203038,0.73757964,-0.008272392,-0.67246836,-0.060782377,9.731060981750488,0.9158832430839539,1.140234351158142,-30.59724998474121,-35.049156188964844, -3.3523948192596436
674,1095219705,0.7339721,-0.011815634,-0.67603314,-0.06422438,9.713574409484863,0.9613724946975708,1.1337385177612305,-32.892478942871094,-35.172332763671875, -2.8524200916290283
675,1095236372,0.73020667,-0.01559911,-0.6796815,-0.067736045,9.61160659790039,1.12081778049469,1.0717016458511353,-34.40435791015625,-36.442501068115234, -2.15344500541687
676,1095253039,0.72620803,-0.019809691,-0.6834749,-0.07135597,9.547975540161133,1.13564133644104,0.9058777689933777,-37.01087188720703,-38.46339797973633, -0.8130192756652832
677,1095269706,0.72199625,-0.024308942,-0.68739283,-0.07497935,9.538097381591797,1.0975192785263062,0.8110915422439575,-38.43506622314453,-40.24139404296875, 0.4164990484714508
678,1095286373,0.7175593,-0.028644472,-0.69147646,-0.07841325,9.509352684020996,1.2505147457122803,0.7745814323425293,-36.67754364013672,-42.08909225463867, 0.450833261013031
679,1095303040,0.7128701,-0.03322539,-0.69571066,-0.08184777,9.585222244262695,0.9646772146224976,0.593783974647522,-37.85872268676758,-44.17752456665039, 1.4608184099197388
680,1095319707,0.70806754,-0.037372198,-0.7000959,-0.08431795,9.842726707458496,0.8597705364227295,0.5394940376281738,-31.057546615600586,-45.44875717163086, 4.02116584777832
681,1095336374,0.703115,-0.041676056,-0.70461255,-0.0861036,10.107650756835938,0.03018563985824585,0.17766836285591125,-28.486867904663086,-47.09157180786133, 7.995174407958984
682,1095353041,0.69834495,-0.045171037,-0.7090582,-0.08666285,10.072425842285156,0.217340350151062,0.1478670835494995,-18.624296188354492,-45.74699020385742, 10.130110740661621
