PacketCounter,SampleTimeFine,Quat_W,Quat_X,Quat_Y,Quat_Z,Acc_X,Acc_Y,Acc_Z,Gyr_X,Gyr_Y,Gyr_Z 
2,2475504339,0.7033346,0.3122915,-0.5987748,0.2219539,9.622684478759766,1.7125886678695679,0.8355927467346191,-5.270824909210205,-0.6041908264160156, 2.046128273010254
3,2475521006,0.7032581,0.3119319,-0.5990525,0.22195229,9.647916793823242,1.7031275033950806,0.8432469964027405,-4.615945816040039,-0.29494303464889526, 1.8883919715881348
4,2475537673,0.70317864,0.31167278,-0.59924,0.22206181,9.641996383666992,1.687577486038208,0.8336253762245178,-3.7890918254852295,0.07776656001806259, 1.8571830987930298
5,2475554340,0.70308584,0.31142467,-0.59942305,0.22220996,9.65066909790039,1.68373441696167,0.8401051759719849,-3.3798654079437256,0.13534393906593323, 1.860884666442871
6,2475571007,0.7030188,0.3111572,-0.59958,0.22237314,9.628266334533691,1.6818606853485107,0.8382542729377747,-3.0769174098968506,0.2536105215549469, 1.931959629058838
7,2475587674,0.70294636,0.310914,-0.5997266,0.22254676,9.62887954711914,1.695296049118042,0.8698829412460327,-2.7044448852539062,0.12420237809419632, 2.0014595985412598
8,2475604341,0.7029253,0.31060126,-0.5998882,0.22261453,9.605177879333496,1.6806259155273438,0.8768082857131958,-2.7638025283813477,-0.1463637799024582, 2.0514044761657715
9,2475621008,0.70286006,0.3103511,-0.6000477,0.22273895,9.60948371887207,1.6905570030212402,0.8922525644302368,-2.688462495803833,-0.6830266118049622, 2.1526129245758057
10,2475637675,0.7027652,0.31008622,-0.60025567,0.22284739,9.628538131713867,1.6848477125167847,0.8914945721626282,-2.5486299991607666,-1.2464419603347778, 2.431061267852783
11,2475654342,0.7026222,0.3098308,-0.6005117,0.2229637,9.632089614868164,1.6640174388885498,0.9041557312011719,-2.801568031311035,-1.856728434562683, 2.6148581504821777
12,2475671009,0.70242846,0.30954564,-0.60085976,0.22303265,9.64024829864502,1.6705631017684937,0.8807064294815063,-2.610997438430786,-2.5922744274139404, 2.7821991443634033
13,2475687676,0.7022055,0.30921292,-0.6012827,0.2230566,9.618939399719238,1.6657682657241821,0.8769192695617676,-2.7699623107910156,-3.033324718475342, 2.9991893768310547
14,2475704343,0.70192736,0.30889395,-0.60175437,0.22310185,9.617868423461914,1.662650227546692,0.8497732281684875,-2.9828808307647705,-3.5339767932891846, 3.214784860610962
15,2475721010,0.7016294,0.3085545,-0.6022527,0.22316381,9.642369270324707,1.6387125253677368,0.8212509751319885,-2.9577033519744873,-3.6030921936035156, 3.4929637908935547
16,2475737677,0.7013483,0.30821112,-0.60272604,0.2232445,9.670060157775879,1.5920350551605225,0.7473295331001282,-2.9454989433288574,-3.2707037925720215, 3.483001232147217
17,2475754344,0.7010943,0.30787906,-0.60314953,0.22335605,9.675468444824219,1.5539321899414062,0.7600427269935608,-2.63248610496521,-2.6375701427459717, 3.338685989379883
18,2475771011,0.7008749,0.307592,-0.60348314,0.22353888,9.712395668029785,1.5463577508926392,0.7521730065345764,-2.3327789306640625,-1.9095548391342163, 3.098451614379883
19,2475787678,0.7006734,0.30732808,-0.60376734,0.2237663,9.691695213317871,1.5255765914916992,0.742081880569458,-2.100933074951172,-1.4632153511047363, 2.9751780033111572
20,2475804345,0.70050186,0.30705395,-0.60401577,0.22400932,9.673038482666016,1.542542815208435,0.7424523830413818,-1.9154843091964722,-1.016324758529663, 2.900017499923706
21,2475821012,0.70033634,0.30681503,-0.604229,0.22427896,9.666899681091309,1.5473486185073853,0.756999671459198,-1.6927942037582397,-0.7897034883499146, 2.763603687286377
22,2475837679,0.70018417,0.30655178,-0.6044443,0.22453336,9.65928840637207,1.5526710748672485,0.7196129560470581,-1.7710543870925903,-0.7056427597999573, 2.7836334705352783
23,2475854346,0.70004535,0.3062736,-0.60465324,0.22478323,9.657647132873535,1.5273927450180054,0.7424172759056091,-1.722876787185669,-0.5359713435173035, 2.817685127258301
24,2475871013,0.69988763,0.30603233,-0.6048402,0.2251,9.664790153503418,1.5226523876190186,0.7380741238594055,-1.3918325901031494,-0.4482991099357605, 2.9493601322174072
25,2475887680,0.69974685,0.30578434,-0.60501385,0.22540773,9.670793533325195,1.5263487100601196,0.7721862196922302,-1.2652032375335693,-0.2800620496273041, 2.8970203399658203
26,2475904347,0.6996098,0.3055259,-0.60518366,0.22572741,9.647650718688965,1.5076011419296265,0.7688598036766052,-1.408263087272644,-0.25006961822509766, 2.9824259281158447
27,2475921014,0.6994635,0.30527267,-0.60535985,0.22605118,9.650729179382324,1.503584861755371,0.7865604758262634,-1.429764747619629,-0.3508555293083191, 3.0061686038970947
28,2475937681,0.6992911,0.3050024,-0.605583,0.22635086,9.661351203918457,1.5173813104629517,0.8012465238571167,-1.4409959316253662,-0.7091771960258484, 3.122091770172119
29,2475954348,0.69907445,0.30472407,-0.60587573,0.2266115,9.636761665344238,1.5274608135223389,0.8129421472549438,-1.635806679725647,-1.329376220703125, 3.2039763927459717
30,2475971015,0.6988223,0.3044378,-0.60622203,0.22684771,9.638511657714844,1.5032976865768433,0.7919386625289917,-1.863925814628601,-1.824072241783142, 3.310396432876587
31,2475987682,0.6985461,0.30411816,-0.60662365,0.22705401,9.662130355834961,1.4745327234268188,0.7714352607727051,-2.062206745147705,-2.2049336433410645, 3.485985040664673
32,2476004349,0.6982567,0.30380094,-0.6070318,0.22727771,9.681443214416504,1.4615745544433594,0.7593598961830139,-1.8948663473129272,-2.2599494457244873, 3.6024069786071777
33,2476021016,0.69794667,0.30352142,-0.6074175,0.22757213,9.689554214477539,1.4417444467544556,0.7362729907035828,-1.5525778532028198,-2.1866204738616943, 3.753688335418701
34,2476037683,0.697652,0.30322117,-0.6078035,0.22784519,9.674359321594238,1.4538928270339966,0.7288290858268738,-1.7746272087097168,-2.1327953338623047, 3.7103137969970703
35,2476054350,0.69737726,0.30288744,-0.6081878,0.22810537,9.670549392700195,1.3894505500793457,0.729617714881897,-1.9346938133239746,-1.9990330934524536, 3.7683136463165283
36,2476071017,0.6971249,0.30254224,-0.6085565,0.22835131,9.673973083496094,1.3988049030303955,0.7276246547698975,-1.9303525686264038,-1.822241187095642, 3.6776316165924072
37,2476087684,0.6968991,0.30219403,-0.60889983,0.22858636,9.66585636138916,1.3650330305099487,0.6813564896583557,-2.194739580154419,-1.6359728574752808, 3.523545742034912
38,2476104351,0.69664544,0.30221808,-0.6090029,0.22905196,9.691474914550781,1.422268033027649,0.5899962782859802,1.0574522018432617,-0.6849347949028015, 2.6079041957855225
39,2476121018,0.69587857,0.3050549,-0.6076462,0.23121576,9.735122680664062,1.7026634216308594,0.3109188675880432,24.95770835876465,3.290785074234009, -3.253704071044922
40,2476137685,0.69422853,0.3137094,-0.60266477,0.2375465,9.942584037780762,1.408028483390808,1.2108064889907837,78.16344451904297,16.611225128173828, -13.70202350616455
41,2476154352,0.6921548,0.32012624,-0.5995194,0.24293585,9.074106216430664,1.1927675008773804,0.6738705039024353,62.93949890136719,7.770024299621582, -4.190911769866943
42,2476171019,0.6904883,0.32386604,-0.5980814,0.24624269,9.434195518493652,1.482555627822876,0.7507715225219727,38.55750274658203,1.314495325088501, 0.0020810426212847233
43,2476187686,0.68925583,0.3258069,-0.59765476,0.24816397,9.848897933959961,1.3167829513549805,0.6837306618690491,21.931791305541992,-1.7142096757888794, 2.3663036823272705
44,2476204353,0.68823886,0.32703057,-0.59756184,0.2495961,9.863260269165039,1.4129194021224976,0.5958119630813599,15.482423782348633,-2.2759463787078857, 3.3189926147460938
45,2476221020,0.6873057,0.3279534,-0.5976281,0.25079504,9.665822982788086,1.5575565099716187,0.6587592363357544,12.621337890625,-2.6722514629364014, 3.638958692550659
46,2476237687,0.6864288,0.32855806,-0.5978882,0.2517835,9.565363883972168,1.5077815055847168,0.6009654402732849,9.76281452178955,-3.289158344268799, 4.311162948608398
47,2476254354,0.68562806,0.3289716,-0.5981933,0.2526989,9.562361717224121,1.4789245128631592,0.6646553874015808,8.377334594726562,-3.00688099861145, 4.740611553192139
48,2476271021,0.6848758,0.32927528,-0.5985486,0.25350103,9.726893424987793,1.555181860923767,0.7417216300964355,7.143224239349365,-3.128848075866699, 4.691844463348389
49,2476287688,0.6843218,0.32913095,-0.5990979,0.2538863,9.851367950439453,1.4750198125839233,0.6704699993133545,2.604651689529419,-3.406860589981079, 4.692599296569824
50,2476304355,0.6840556,0.3285705,-0.5996641,0.2539928,9.956907272338867,1.4166145324707031,0.5354109406471252,-1.2801228761672974,-2.2312119007110596, 4.625750541687012
51,2476321022,0.68402946,0.32769063,-0.6001602,0.2540289,9.884512901306152,1.3788502216339111,0.46924707293510437,-3.5295839309692383,-0.5027260780334473, 5.022554874420166
52,2476337689,0.6841548,0.32658944,-0.60061026,0.25404528,9.797477722167969,1.4284563064575195,0.5047483444213867,-4.9466328620910645,0.7022299766540527, 5.4616851806640625
53,2476354356,0.68439615,0.325215,-0.60112053,0.25395176,9.769309997558594,1.4524723291397095,0.5844190120697021,-7.130129337310791,1.1333303451538086, 6.006711959838867
54,2476371023,0.68479776,0.32331163,-0.6018405,0.25359386,9.705655097961426,1.4776575565338135,0.6590161323547363,-11.385942459106445,1.1469696760177612, 7.155124187469482
55,2476387690,0.6853149,0.3207213,-0.60295016,0.2528487,9.636116027832031,1.4948585033416748,0.7490692734718323,-17.334095001220703,0.08948448300361633, 8.850217819213867
56,2476404357,0.6858471,0.31743497,-0.60457057,0.25168067,9.6293306350708,1.5524787902832031,0.7713284492492676,-23.524023056030273,-2.037520408630371, 10.855960845947266
57,2476421024,0.6863472,0.31355953,-0.60660636,0.25027347,9.645218849182129,1.4385780096054077,0.778305172920227,-28.092605590820312,-3.681441307067871, 13.17017936706543
58,2476437691,0.6866116,0.30957505,-0.60889125,0.24895658,9.692893981933594,1.3345378637313843,0.8621046543121338,-28.617698669433594,-5.544887542724609, 14.98806095123291
59,2476454358,0.6865324,0.30563182,-0.6114353,0.24780913,9.699740409851074,1.256881594657898,0.8653861284255981,-27.59004020690918,-7.974364757537842, 16.75725555419922
60,2476471025,0.6859979,0.30203032,-0.6141382,0.24702027,9.614897727966309,1.226830244064331,0.8754784464836121,-24.40287971496582,-10.57403564453125, 18.09027099609375
61,2476487692,0.68498284,0.29881153,-0.6170322,0.24653937,9.628500938415527,1.206464409828186,0.9194266200065613,-20.839576721191406,-13.57354736328125, 19.14006996154785
62,2476504359,0.6835275,0.29592267,-0.6201269,0.24629827,9.625170707702637,1.1815134286880493,0.884419322013855,-17.932180404663086,-16.51805877685547, 20.03425407409668
63,2476521026,0.6816179,0.2934973,-0.62334156,0.24637724,9.601363182067871,1.12828528881073,0.8341745138168335,-13.772059440612793,-19.198293685913086, 20.594581604003906
64,2476537693,0.6793098,0.2916326,-0.6265533,0.2468191,9.710674285888672,1.0340020656585693,0.7011052370071411,-8.780766487121582,-21.142776489257812, 20.587278366088867
65,2476554360,0.67665976,0.2903711,-0.62966955,0.24765456,9.695775985717773,0.9035505652427673,0.5263686180114746,-3.3624846935272217,-22.417818069458008, 20.237895965576172
66,2476571027,0.6733766,0.29130372,-0.6318363,0.24997824,9.760696411132812,0.9571427702903748,0.43130725622177124,16.187402725219727,-21.507709503173828, 16.856435775756836
67,2476587694,0.6695716,0.2947675,-0.6327101,0.25389764,9.820860862731934,0.8059524297714233,0.3735896646976471,38.07144546508789,-18.94394874572754, 11.579318046569824
68,2476604361,0.66508275,0.30044565,-0.6325653,0.2593425,9.634858131408691,0.555496871471405,0.342572420835495,58.0638427734375,-18.001508712768555, 8.107634544372559
69,2476621028,0.66041625,0.30524668,-0.63306093,0.26440236,9.660560607910156,0.3655349314212799,0.09843707084655762,51.56804275512695,-20.939146041870117, 11.785850524902344
70,2476637695,0.65627366,0.3083761,-0.6342202,0.26827967,9.901400566101074,0.4616146981716156,-0.22129127383232117,36.599143981933594,-21.091793060302734, 14.098946571350098
71,2476654362,0.6528425,0.3104085,-0.6354865,0.2712939,9.863729476928711,0.3929580748081207,-0.47730788588523865,26.264507293701172,-18.225906372070312, 13.882506370544434
72,2476671029,0.649879,0.31221405,-0.63641936,0.27413556,9.911564826965332,0.19398927688598633,-0.8699812293052673,24.232196807861328,-14.558754920959473, 12.490452766418457
73,2476687696,0.6475854,0.31353834,-0.6370803,0.2765063,9.91952133178711,0.1384286880493164,-0.9321949481964111,19.149816513061523,-10.412814140319824, 10.601829528808594
74,2476704363,0.6458722,0.31456244,-0.6374106,0.27858096,9.842684745788574,0.15781690180301666,-0.787361741065979,16.0089111328125,-6.362496852874756, 8.735599517822266
75,2476721030,0.64458895,0.31541786,-0.6374339,0.2805258,9.81711196899414,0.2804069221019745,-0.5775269269943237,14.239104270935059,-3.005845308303833, 7.374012470245361
76,2476737697,0.6436408,0.3161826,-0.6372703,0.28220895,9.812734603881836,0.22365154325962067,-0.5125638246536255,12.560225486755371,-1.0445632934570312, 5.535055160522461
77,2476754364,0.6429538,0.31681582,-0.6370089,0.28365105,9.80925178527832,0.3027230501174927,-0.29299309849739075,10.593295097351074,0.30053311586380005, 4.300278186798096
78,2476771031,0.64243925,0.31731963,-0.6367415,0.28485188,9.763278007507324,0.31146255135536194,-0.14070764183998108,8.733850479125977,0.8244409561157227, 3.435041666030884
79,2476787698,0.6420372,0.3176157,-0.63659126,0.28576234,9.731823921203613,0.41858023405075073,-0.005874944850802422,6.043580055236816,0.5673789978027344, 3.0862603187561035
80,2476804365,0.64184165,0.31755984,-0.636614,0.28621283,9.705010414123535,0.5284450650215149,0.015351980924606323,1.7960076332092285,0.3794073760509491, 2.567603349685669
81,2476821032,0.6416989,0.31732187,-0.6367945,0.28639498,9.647507667541504,0.5566973090171814,-0.09495558589696884,-0.6616784930229187,-0.33379754424095154, 2.4349546432495117
82,2476837699,0.6416309,0.3168854,-0.6370964,0.28635964,9.663904190063477,0.4275064468383789,-0.21085967123508453,-2.6531810760498047,-0.6267555356025696, 2.4738857746124268
83,2476854366,0.6415831,0.316388,-0.637415,0.2863075,9.680766105651855,0.4254084527492523,-0.203110471367836,-3.2613162994384766,-0.5298755168914795, 2.672499418258667
84,2476871033,0.6415436,0.3158387,-0.63776714,0.28621802,9.670860290527344,0.5025555491447449,-0.17122603952884674,-3.6838114261627197,-0.6174070239067078, 2.7941858768463135
85,2476887700,0.6415038,0.31524825,-0.63818324,0.286031,9.745779037475586,0.4523259997367859,-0.1955995410680771,-4.580601692199707,-1.0343691110610962, 2.702364444732666
86,2476904367,0.6415105,0.31451285,-0.6386935,0.28568628,9.755743026733398,0.39680805802345276,-0.18106526136398315,-6.133384704589844,-1.2980902194976807, 2.762643814086914
87,2476921034,0.64165485,0.31346875,-0.63935786,0.28502244,9.810330390930176,0.35979947447776794,-0.18992620706558228,-9.47188663482666,-1.4529707431793213, 2.778498888015747
88,2476937701,0.64201677,0.31197363,-0.64022565,0.2838984,9.87270736694336,0.35522136092185974,-0.17307975888252258,-14.99318790435791,-1.5209600925445557, 2.7556536197662354
89,2476954368,0.64269084,0.30973062,-0.64145833,0.2820406,9.859169960021973,0.32703837752342224,-0.18000805377960205,-22.94100570678711,-1.8699226379394531, 2.986849784851074
90,2476971035,0.6436314,0.30670878,-0.6430702,0.27951553,9.83664321899414,0.2516563832759857,-0.23003196716308594,-30.79764747619629,-2.29158878326416, 3.7639718055725098
91,2476987702,0.64466375,0.3032266,-0.6449145,0.27667245,9.778346061706543,0.2126552164554596,-0.216749370098114,-34.74428939819336,-2.7011654376983643, 4.690083026885986
92,2477004369,0.6456751,0.29956627,-0.64687437,0.27371028,9.749421119689941,0.16523563861846924,-0.2247772514820099,-36.231563568115234,-3.2146012783050537, 5.224484443664551
93,2477021036,0.64642906,0.29634255,-0.64871234,0.27107763,9.708858489990234,0.03887180611491203,-0.2777025103569031,-32.056732177734375,-3.9573304653167725, 4.9687347412109375
94,2477037703,0.64702547,0.29361722,-0.6502926,0.26882422,9.714599609375,0.1423511654138565,-0.30143001675605774,-27.302265167236328,-3.663010358810425, 4.179588317871094
95,2477054370,0.64752513,0.29144457,-0.65154564,0.26694524,9.751986503601074,0.22745996713638306,-0.30268368124961853,-22.33692741394043,-2.896301746368408, 2.882605791091919
96,2477071037,0.6479075,0.28986916,-0.6524885,0.26542535,9.753987312316895,0.21304991841316223,-0.3033759891986847,-17.22250747680664,-2.409273624420166, 1.3964505195617676
97,2477087704,0.6482246,0.28863654,-0.6532498,0.2641188,9.782485008239746,0.24342012405395508,-0.2734476923942566,-14.240748405456543,-2.0871291160583496, 0.5629739761352539
98,2477104371,0.64842176,0.28785712,-0.65379953,0.2631235,9.800827980041504,0.3284660279750824,-0.22948239743709564,-10.191027641296387,-1.885504961013794, -0.28845030069351196
99,2477121038,0.64856875,0.28725785,-0.65429157,0.2621912,9.882745742797852,0.38846689462661743,-0.18147426843643188,-8.913451194763184,-2.05798077583313, -0.8346668481826782
100,2477137705,0.64864373,0.28680795,-0.6547551,0.26133975,9.892131805419922,0.33565524220466614,-0.22252283990383148,-7.650604248046875,-2.3696744441986084, -1.063503384590149
101,2477154372,0.64866537,0.28653118,-0.6551487,0.2606019,9.879511833190918,0.3334542512893677,-0.22285883128643036,-6.101189136505127,-2.387104034423828, -1.3738782405853271
102,2477171039,0.6486675,0.2863445,-0.6554906,0.259941,9.86352252960205,0.3059893548488617,-0.2446257472038269,-5.229869842529297,-2.257772445678711, -1.4981893301010132
103,2477187706,0.6486678,0.28615823,-0.65584546,0.25924987,9.830554008483887,0.3756093680858612,-0.24560251832008362,-5.399208068847656,-2.3878464698791504, -1.603803277015686
104,2477204373,0.64869875,0.2859661,-0.6561887,0.2585145,9.790010452270508,0.34533724188804626,-0.2945648431777954,-5.622206687927246,-2.2752535343170166, -1.846240758895874
105,2477221040,0.64871526,0.2858912,-0.6564701,0.25784037,9.81026840209961,0.2956358790397644,-0.35424306988716125,-4.721470832824707,-2.1533749103546143, -2.1929595470428467
106,2477237707,0.64875865,0.28582567,-0.6567206,0.25716522,9.766303062438965,0.3153470754623413,-0.3476923406124115,-4.66112756729126,-1.9070833921432495, -2.348787307739258
107,2477254374,0.648887,0.28567278,-0.6569608,0.2563965,9.790441513061523,0.337249755859375,-0.37541452050209045,-5.618927955627441,-1.503965139389038, -2.5413694381713867
108,2477271041,0.649043,0.28560033,-0.657102,0.25572014,9.830626487731934,0.3213638663291931,-0.39602214097976685,-4.707371234893799,-0.8918342590332031, -2.7351291179656982
109,2477287708,0.64921075,0.2856352,-0.65714175,0.25515267,9.890460968017578,0.36093541979789734,-0.329987496137619,-3.62894868850708,-0.3566440939903259, -2.9522738456726074
110,2477304375,0.6494309,0.28568467,-0.6570996,0.25464493,9.867566108703613,0.3385296165943146,-0.3555578589439392,-3.2258942127227783,0.33918261528015137, -3.0037038326263428
111,2477321042,0.6497085,0.285749,-0.6569893,0.2541493,9.809536933898926,0.3327125012874603,-0.3817279040813446,-3.1210999488830566,0.902969479560852, -3.251558303833008
112,2477337709,0.6500142,0.2858191,-0.65684897,0.25365102,9.809252738952637,0.34332188963890076,-0.3085780441761017,-3.1197168827056885,1.1532695293426514, -3.398895025253296
113,2477354376,0.65032077,0.28588343,-0.6567143,0.2531408,9.794132232666016,0.3383405804634094,-0.29973191022872925,-3.2601635456085205,1.1161565780639648, -3.417015552520752
114,2477371043,0.6505732,0.28600326,-0.6565948,0.252666,9.787923812866211,0.38538241386413574,-0.261068195104599,-2.7595508098602295,0.7768075466156006, -3.3882017135620117
115,2477387710,0.6508002,0.28605604,-0.6565596,0.25211212,9.797159194946289,0.4142615795135498,-0.26165828108787537,-3.4907169342041016,0.24377529323101044, -3.2301719188690186
116,2477404377,0.6509772,0.28616288,-0.65650994,0.2516632,9.805882453918457,0.46764272451400757,-0.3099450469017029,-2.6965184211730957,0.19067378342151642, -2.943232774734497
117,2477421044,0.6511538,0.28620496,-0.6564995,0.25118563,9.80174732208252,0.5007860064506531,-0.3000316619873047,-2.466925621032715,0.0987817794084549, -2.7158939838409424
118,2477437711,0.65127754,0.2862581,-0.65652287,0.2507424,9.81254768371582,0.5027698278427124,-0.30609357357025146,-2.2170095443725586,-0.24134844541549683, -2.4476006031036377
119,2477454378,0.65135956,0.2862818,-0.65661246,0.25026748,9.804912567138672,0.5043944120407104,-0.26431170105934143,-2.523939847946167,-0.7377867102622986, -2.2486672401428223
120,2477471045,0.65138185,0.28628495,-0.6567661,0.24980193,9.765997886657715,0.5059459805488586,-0.29129648208618164,-2.5665972232818604,-1.2424848079681396, -1.8789728879928589
121,2477487712,0.651354,0.28629246,-0.6569704,0.24932848,9.760202407836914,0.46494439244270325,-0.32822319865226746,-2.5710668563842773,-1.7186890840530396, -1.743085265159607
122,2477504379,0.6513215,0.28627932,-0.657195,0.2488364,9.794209480285645,0.4696531891822815,-0.344772607088089,-2.77374005317688,-1.8293614387512207, -1.6832408905029297
123,2477521046,0.65129346,0.28625298,-0.6574389,0.2482951,9.808526039123535,0.4797768294811249,-0.3507741689682007,-3.097317934036255,-1.9676059484481812, -1.8118679523468018
124,2477537713,0.6513012,0.28621677,-0.6576404,0.24778232,9.811699867248535,0.4117601811885834,-0.34339848160743713,-3.011131763458252,-1.5399510860443115, -1.7817989587783813
125,2477554380,0.6513043,0.28622043,-0.6578151,0.24730544,9.7921781539917,0.4204479157924652,-0.3631344437599182,-2.6158246994018555,-1.4364241361618042, -1.8488013744354248
126,2477571047,0.65131295,0.2862293,-0.65797424,0.24684848,9.782190322875977,0.47208496928215027,-0.33738574385643005,-2.4867496490478516,-1.3086808919906616, -1.8261853456497192
127,2477587714,0.6513181,0.28622654,-0.65814394,0.24638546,9.77390193939209,0.4980778694152832,-0.34929218888282776,-2.577444314956665,-1.36329984664917, -1.773371934890747
128,2477604381,0.6513027,0.2862171,-0.6583398,0.24591368,9.768831253051758,0.5239878296852112,-0.36987999081611633,-2.6510679721832275,-1.5776525735855103, -1.6939598321914673
129,2477621048,0.6512893,0.2861986,-0.658531,0.24545805,9.782965660095215,0.5230147838592529,-0.3536968231201172,-2.6149544715881348,-1.4982534646987915, -1.5898572206497192
130,2477637715,0.6512607,0.28618047,-0.6587382,0.24499872,9.780192375183105,0.5152926445007324,-0.3806696832180023,-2.6272990703582764,-1.6454492807388306, -1.5482362508773804
131,2477654382,0.65124226,0.286141,-0.65894485,0.24453765,9.791882514953613,0.5009135603904724,-0.39413800835609436,-2.7504453659057617,-1.5617344379425049, -1.4752914905548096
132,2477671049,0.6512007,0.28612316,-0.65916204,0.24408314,9.791622161865234,0.53131502866745,-0.3745096027851105,-2.5963590145111084,-1.7343255281448364, -1.4835642576217651
133,2477687716,0.65115744,0.28608096,-0.65939057,0.24363086,9.79743480682373,0.5211111307144165,-0.4131140410900116,-2.711193561553955,-1.746056079864502, -1.3355357646942139
134,2477704383,0.65112984,0.28603807,-0.6596016,0.24318333,9.775510787963867,0.4885609447956085,-0.40493500232696533,-2.6944942474365234,-1.5823780298233032, -1.3702921867370605
135,2477721050,0.65111446,0.28600338,-0.659788,0.24275893,9.771493911743164,0.5029494762420654,-0.4373582899570465,-2.5361056327819824,-1.382343053817749, -1.3736220598220825
136,2477737717,0.6510904,0.28597265,-0.65997666,0.24234655,9.747904777526855,0.542856752872467,-0.4280959963798523,-2.4509692192077637,-1.4105043411254883, -1.3192590475082397
137,2477754384,0.6510903,0.28589022,-0.66017246,0.24191026,9.760173797607422,0.5203390717506409,-0.4117978811264038,-2.850245237350464,-1.290687918663025, -1.2155530452728271
138,2477771051,0.65110314,0.28581664,-0.6603481,0.24148324,9.799402236938477,0.5652781128883362,-0.42793115973472595,-2.7604215145111084,-1.1361281871795654, -1.2747312784194946
139,2477787718,0.6511062,0.2857307,-0.6605391,0.24105398,9.79899787902832,0.5678321719169617,-0.4118872880935669,-2.8323676586151123,-1.2297040224075317, -1.1793239116668701
140,2477804385,0.65111566,0.28563708,-0.6607249,0.24062985,9.791464805603027,0.5468693971633911,-0.4303168058395386,-2.8469927310943604,-1.153006911277771, -1.1397908926010132
141,2477821052,0.6511261,0.2855543,-0.6609038,0.24020815,9.807486534118652,0.5566254258155823,-0.4121500253677368,-2.7791829109191895,-1.1288925409317017, -1.1912721395492554
142,2477837719,0.65113634,0.28549498,-0.6610643,0.23980865,9.806411743164062,0.5156043767929077,-0.47605907917022705,-2.542367935180664,-1.04086172580719, -1.2334179878234863
143,2477854386,0.6511795,0.28544173,-0.6611839,0.23942508,9.788252830505371,0.5414577722549438,-0.4686761796474457,-2.4403398036956787,-0.6814514994621277, -1.3256621360778809
144,2477871053,0.6512575,0.28540626,-0.6612511,0.23906906,9.803175926208496,0.5711500644683838,-0.5038949847221375,-2.218533515930176,-0.26014819741249084, -1.442789077758789
145,2477887720,0.65138376,0.28536046,-0.6612687,0.2387307,9.788516998291016,0.5738381743431091,-0.4834456741809845,-2.197774648666382,0.23928025364875793, -1.4922088384628296
146,2477904387,0.6515345,0.28530812,-0.6612612,0.23840281,9.797264099121094,0.5569931864738464,-0.46484243869781494,-2.186697006225586,0.4996589720249176, -1.5032093524932861
147,2477921054,0.65170026,0.28523713,-0.66125214,0.23805942,9.781874656677246,0.553159773349762,-0.45647892355918884,-2.3679580688476562,0.5789558291435242, -1.5155161619186401
148,2477937721,0.6518755,0.28516677,-0.6612291,0.23772763,9.786520004272461,0.5500145554542542,-0.4386787414550781,-2.307960271835327,0.7092989087104797, -1.50926673412323
149,2477954388,0.6520517,0.28511092,-0.66119033,0.23741858,9.800368309020996,0.5923693180084229,-0.43005478382110596,-2.1167104244232178,0.8068832755088806, -1.506423830986023
150,2477971055,0.6522029,0.28505456,-0.6611762,0.23711073,9.800286293029785,0.6151599287986755,-0.4324672520160675,-2.1047747135162354,0.587945818901062, -1.4080451726913452
151,2477987722,0.65233904,0.28498393,-0.6611693,0.23684043,9.797605514526367,0.5979475975036621,-0.4386729896068573,-1.980310082435608,0.5856792330741882, -1.1332467794418335
152,2478004389,0.6524601,0.28494072,-0.6611551,0.236598,9.777214050292969,0.5875505208969116,-0.42154255509376526,-1.689465045928955,0.5623460412025452, -1.121195912361145
153,2478021056,0.65256023,0.2849028,-0.6611515,0.23637763,9.76411247253418,0.6033865213394165,-0.4179980456829071,-1.5417693853378296,0.45479828119277954, -0.9911858439445496
154,2478037723,0.652644,0.28484425,-0.661171,0.23616211,9.765838623046875,0.6175983548164368,-0.42806893587112427,-1.617928385734558,0.3212280571460724, -0.8024202585220337
155,2478054390,0.6527176,0.28477025,-0.6612054,0.23595196,9.771327018737793,0.6062813401222229,-0.4152209758758545,-1.6670539379119873,0.24614448845386505, -0.6603338718414307
156,2478071057,0.6527737,0.28470445,-0.661255,0.2357369,9.77059555053711,0.6189746260643005,-0.41825494170188904,-1.6431827545166016,0.07579438388347626, -0.6599880456924438
157,2478087724,0.65281546,0.28462657,-0.6613194,0.23553485,9.777732849121094,0.6178602576255798,-0.4223642945289612,-1.6344232559204102,-0.00934863556176424, -0.4930956959724426
158,2478104391,0.6528484,0.28454328,-0.66138256,0.23536667,9.77244758605957,0.6077401041984558,-0.4224534332752228,-1.4851137399673462,0.03293152526021004, -0.302895724773407
159,2478121058,0.65287143,0.28447175,-0.6614475,0.23520665,9.754758834838867,0.5804052948951721,-0.43816882371902466,-1.3791158199310303,-0.022641627117991447, -0.299143522977829
160,2478137725,0.65289104,0.28438842,-0.66151977,0.23504975,9.752063751220703,0.5909858345985413,-0.4714062809944153,-1.4229135513305664,-0.043131787329912186, -0.21270066499710083
161,2478154392,0.6529107,0.2843048,-0.6615906,0.23489678,9.768925666809082,0.6246938109397888,-0.4200207591056824,-1.4046003818511963,-0.02401190623641014, -0.19683358073234558
162,2478171059,0.6529293,0.28420007,-0.6616772,0.23472813,9.786399841308594,0.6301292777061462,-0.4579615890979767,-1.5935581922531128,-0.09544572234153748, -0.13705356419086456
163,2478187726,0.6529546,0.28408086,-0.66175926,0.23457035,9.787653923034668,0.6093313097953796,-0.418651282787323,-1.6150856018066406,0.0025036411825567484, -0.03981494531035423
164,2478204393,0.6529645,0.28398293,-0.6618328,0.23445411,9.786643028259277,0.5899616479873657,-0.4342428743839264,-1.2867307662963867,0.018524382263422012, 0.05844177305698395
165,2478221060,0.65295434,0.28389835,-0.6619053,0.23438007,9.786794662475586,0.6442809700965881,-0.4023211598396301,-0.9944258332252502,-0.005160958971828222, 0.2171124368906021
166,2478237727,0.65290505,0.28380316,-0.6620181,0.23431426,9.816893577575684,0.626935601234436,-0.4192623496055603,-0.9926841259002686,-0.33204299211502075, 0.44664064049720764
167,2478254394,0.6528648,0.28369924,-0.6621265,0.23424616,9.808581352233887,0.6089960932731628,-0.43137767910957336,-1.0526179075241089,-0.26076287031173706, 0.45438846945762634
168,2478271061,0.6528133,0.28360084,-0.6622399,0.23418799,9.778136253356934,0.6250426769256592,-0.42959657311439514,-0.9686466455459595,-0.32401344180107117, 0.5026684403419495
169,2478287728,0.6527563,0.28349635,-0.6623547,0.23414867,9.783198356628418,0.6311882734298706,-0.4770669937133789,-0.9017975926399231,-0.30739083886146545, 0.6282219886779785
170,2478304395,0.6527016,0.2833845,-0.6624636,0.23412846,9.796981811523438,0.6346899271011353,-0.4417484402656555,-0.843144416809082,-0.21669623255729675, 0.7341560125350952
171,2478321062,0.65265983,0.28324667,-0.6625696,0.23411201,9.767182350158691,0.6069102883338928,-0.42729243636131287,-0.9632296562194824,-0.09530486911535263, 0.8455712199211121
172,2478337729,0.652614,0.28309712,-0.6626791,0.23411067,9.764089584350586,0.5791794061660767,-0.45491695404052734,-0.9451982975006104,-0.08085929602384567, 0.9811393022537231
173,2478354396,0.6525904,0.2829633,-0.66275424,0.23412536,9.787145614624023,0.577420175075531,-0.4712691605091095,-0.7884486317634583,0.18225358426570892, 0.8781634569168091
174,2478371063,0.6525718,0.2828413,-0.66280776,0.23417304,9.795522689819336,0.5935254096984863,-0.445518434047699,-0.5608412623405457,0.3499782979488373, 0.9215641617774963
175,2478387730,0.6525447,0.28268942,-0.6628785,0.23423211,9.766992568969727,0.6039298176765442,-0.42842528223991394,-0.6538410186767578,0.3056427538394928, 1.1563942432403564
176,2478404397,0.65251,0.2825551,-0.6629386,0.23432073,9.781331062316895,0.5995668768882751,-0.43535786867141724,-0.4100337028503418,0.348377525806427, 1.2017669677734375
177,2478421064,0.6524831,0.28242037,-0.66298646,0.23442218,9.769485473632812,0.5846524238586426,-0.46324872970581055,-0.34746190905570984,0.4646335542201996, 1.2259070873260498
178,2478437731,0.6524682,0.28226882,-0.6630301,0.23452301,9.765140533447266,0.5417251586914062,-0.4546838104724884,-0.44240814447402954,0.5669307112693787, 1.272868037223816
179,2478454398,0.65244776,0.28214312,-0.66305125,0.2346713,9.797736167907715,0.5608980059623718,-0.44482675194740295,-0.06345545500516891,0.6942769289016724, 1.3313031196594238
180,2478471065,0.6524273,0.28201494,-0.6630736,0.2348191,9.780001640319824,0.5874789953231812,-0.42129606008529663,-0.07728632539510727,0.6933038234710693, 1.34245765209198
181,2478487732,0.65241027,0.28185108,-0.6631124,0.23495343,9.767237663269043,0.5698745250701904,-0.4483063519001007,-0.3312746286392212,0.6659749746322632, 1.4722756147384644
182,2478504399,0.6524174,0.28168613,-0.66311884,0.23511308,9.755536079406738,0.5603695511817932,-0.48833462595939636,-0.21710602939128876,0.9740445613861084, 1.4896794557571411
183,2478521066,0.6524446,0.28149667,-0.66311985,0.2352618,9.742362022399902,0.5714479088783264,-0.4416079819202423,-0.40585875511169434,1.1124553680419922, 1.509337067604065
184,2478537733,0.65248793,0.28127095,-0.6631287,0.23538697,9.772553443908691,0.563755989074707,-0.4562111496925354,-0.7194222211837769,1.1645516157150269, 1.5595123767852783
185,2478554400,0.6525334,0.28104275,-0.6631181,0.23556313,9.816022872924805,0.5611690282821655,-0.42078107595443726,-0.4714401960372925,1.3662327527999878, 1.7590547800064087
186,2478571067,0.6525652,0.28084007,-0.6631024,0.23576117,9.821646690368652,0.5285741090774536,-0.4331229329109192,-0.22274085879325867,1.3284858465194702, 1.7542331218719482
187,2478587734,0.6526344,0.2804958,-0.6631455,0.23585802,9.79118537902832,0.5694332718849182,-0.4122887849807739,-1.4860873222351074,1.269525408744812, 1.9980915784835815
188,2478604401,0.6526494,0.28022504,-0.66316533,0.23608246,9.788262367248535,0.5229833126068115,-0.3673272728919983,-0.4313691258430481,1.254196286201477, 2.280036211013794
189,2478621068,0.6526076,0.27996564,-0.66322106,0.23634869,9.788260459899902,0.5736091136932373,-0.3614436984062195,-0.13528627157211304,0.8936079740524292, 2.5769386291503906
190,2478637735,0.6525291,0.27967018,-0.6633331,0.23660135,9.778653144836426,0.5458024740219116,-0.3771798014640808,-0.3854711353778839,0.5031678676605225, 2.851442337036133
191,2478654402,0.6523981,0.27937612,-0.663482,0.23689182,9.786519050598145,0.5493161082267761,-0.3557233214378357,-0.16484332084655762,0.1675390601158142, 3.1728177070617676
192,2478671069,0.6521998,0.2790309,-0.66371125,0.23720291,9.782095909118652,0.5491707921028137,-0.3356195390224457,-0.29869529604911804,-0.3790295720100403, 3.7647533416748047
193,2478687736,0.6519185,0.27865568,-0.6640114,0.23757724,9.783187866210938,0.5623456835746765,-0.30870482325553894,-0.10246362537145615,-0.9103395938873291, 4.459766864776611
194,2478704403,0.6515012,0.2782904,-0.6644148,0.23802187,9.796807289123535,0.5745663046836853,-0.31449416279792786,0.3532824218273163,-1.8808046579360962, 5.153666019439697
195,2478721070,0.65094894,0.2779495,-0.66490054,0.23857337,9.8036527633667,0.5337712168693542,-0.28836002945899963,1.0749843120574951,-2.7060587406158447, 5.904476642608643
196,2478737737,0.6502129,0.27760988,-0.6655406,0.23919064,9.764887809753418,0.49900975823402405,-0.27450424432754517,1.48445463180542,-4.121160507202148, 6.793673992156982
197,2478754404,0.6492717,0.2772323,-0.66637355,0.23986597,9.730238914489746,0.5098580121994019,-0.26455065608024597,1.6587234735488892,-5.757377624511719, 7.935616970062256
198,2478771071,0.648066,0.2768667,-0.6674418,0.24057722,9.703031539916992,0.4870010018348694,-0.2123805731534958,1.9976314306259155,-7.979307174682617, 8.930352210998535
199,2478787738,0.6465857,0.2764567,-0.6687902,0.24128595,9.735774993896484,0.5265642404556274,-0.1831325739622116,1.838167428970337,-10.433865547180176, 10.116287231445312
200,2478804405,0.6447719,0.2760365,-0.67044973,0.24201454,9.795045852661133,0.4609718918800354,-0.18785931169986725,2.0100159645080566,-13.310547828674316, 11.403918266296387
201,2478821072,0.6426408,0.27570707,-0.6723279,0.24284591,9.891716003417969,0.408663809299469,-0.17573370039463043,3.1261558532714844,-15.715691566467285, 12.390602111816406
202,2478837739,0.64012086,0.27539238,-0.6745314,0.24374653,9.96373176574707,0.4515754282474518,-0.09567736089229584,3.705530881881714,-18.865171432495117, 13.899724960327148
203,2478854406,0.6370711,0.27521595,-0.67710716,0.2447924,9.878095626831055,0.44042590260505676,-0.134954571723938,5.363883972167969,-22.943788528442383, 15.499814987182617
204,2478871073,0.6335102,0.2751078,-0.6800718,0.24593414,9.925448417663574,0.3973602056503296,-0.240896537899971,6.431072235107422,-26.98756217956543, 17.208526611328125
205,2478887740,0.6295299,0.27505684,-0.6833286,0.24718124,10.007267951965332,0.3210480809211731,-0.3803666830062866,7.471290588378906,-30.144989013671875, 18.67359161376953
206,2478904407,0.6251329,0.27502126,-0.68688416,0.24852209,10.00145149230957,0.2600657641887665,-0.4512188136577606,8.262184143066406,-33.26657485961914, 20.289371490478516
207,2478921074,0.620227,0.27520394,-0.69066817,0.25011885,10.131258964538574,0.27551326155662537,-0.4775238037109375,10.982306480407715,-36.56435012817383, 21.670045852661133
208,2478937741,0.6148695,0.2755268,-0.6945902,0.2521221,10.366690635681152,0.2738232910633087,-0.7063547372817993,14.13023567199707,-38.79631042480469, 23.788143157958984
209,2478954408,0.60933805,0.27592272,-0.69846326,0.25440857,10.750439643859863,0.40321001410484314,-0.7192502617835999,16.20914077758789,-39.03249740600586, 24.86287498474121
210,2478971075,0.6034567,0.2777955,-0.7014729,0.25808218,11.087890625,0.17963601648807526,-0.7213399410247803,31.23638916015625,-37.07609939575195, 22.583768844604492
211,2478987742,0.5972414,0.28246495,-0.7027349,0.263971,11.30208683013916,0.7984640002250671,-0.9969494342803955,57.265785217285156,-32.20217514038086, 15.563069343566895
212,2479004409,0.59085375,0.29066232,-0.700999,0.27387664,11.14753532409668,0.8948967456817627,-0.21777693927288055,96.94605255126953,-19.351104736328125, 9.56158447265625
213,2479021076,0.5828441,0.29575384,-0.7022458,0.28226653,10.12458610534668,0.7417251467704773,-0.8118749260902405,74.6555404663086,-36.52981185913086, 27.457006454467773
214,2479037743,0.5744138,0.29774612,-0.7062807,0.28734085,10.924059867858887,0.936547040939331,-0.856433629989624,41.680747985839844,-50.491798400878906, 35.68071746826172
215,2479054410,0.56611305,0.29845732,-0.7112723,0.29074332,10.366718292236328,1.0406720638275146,-1.2048588991165161,26.361412048339844,-54.575077056884766, 37.077369689941406
216,2479071077,0.55741787,0.2988563,-0.7168814,0.29334685,10.415010452270508,0.9015183448791504,-2.142976760864258,20.832599639892578,-59.95205307006836, 37.63361358642578
217,2479087744,0.54879564,0.2988163,-0.72278506,0.29515237,10.498473167419434,0.6879814863204956,-2.7527084350585938,14.495865821838379,-61.467777252197266, 37.27608871459961
218,2479104411,0.5403641,0.29892218,-0.72842973,0.29672098,10.477001190185547,0.5528565645217896,-3.282895088195801,14.030264854431152,-60.29978561401367, 34.811344146728516
219,2479121078,0.53225976,0.29960707,-0.73332185,0.298622,10.69067096710205,0.7306644320487976,-2.662200689315796,18.739591598510742,-56.32013702392578, 31.002635955810547
220,2479137745,0.52536476,0.30037957,-0.73775226,0.29914284,9.881434440612793,2.7206249237060547,-0.7072590589523315,10.590288162231445,-51.55514907836914, 22.159303665161133
221,2479154412,0.5203369,0.3002355,-0.7426475,0.29594612,9.132315635681152,3.5201356410980225,-0.8112826347351074,-16.34077262878418,-49.64877700805664, 10.675422668457031
222,2479171079,0.5176897,0.29943824,-0.74724853,0.2897496,8.8778657913208,3.402711868286133,-0.25943678617477417,-38.24757766723633,-41.395347595214844, -1.9704325199127197
223,2479187746,0.51694155,0.2988622,-0.7507546,0.2825268,8.747878074645996,2.2791473865509033,-0.17571943998336792,-44.40334701538086,-30.419187545776367, -12.608294486999512
224,2479204413,0.5182609,0.2988362,-0.7527162,0.27481243,8.738086700439453,2.1194980144500732,0.18328210711479187,-46.192649841308594,-16.466899871826172, -24.257061004638672
225,2479221080,0.52143604,0.29933122,-0.7530964,0.2671183,8.598130226135254,1.6714105606079102,0.4430353343486786,-45.02250289916992,-2.321509599685669, -33.52222442626953
226,2479237747,0.5263166,0.30031848,-0.7518851,0.25974876,8.522562980651855,1.467115044593811,0.5112892389297485,-42.140968322753906,11.822773933410645, -41.22896957397461
227,2479254414,0.5328806,0.30170283,-0.7490841,0.25276068,8.535269737243652,1.363100290298462,0.4838806986808777,-39.35321044921875,26.202295303344727, -48.120269775390625
228,2479271081,0.54092026,0.30360734,-0.744675,0.24634911,8.538032531738281,1.5015326738357544,0.41718873381614685,-34.73465347290039,39.840179443359375, -54.52777099609375
229,2479287748,0.550526,0.3056835,-0.73880255,0.24010532,8.646808624267578,1.6037538051605225,0.2855243384838104,-34.01825714111328,53.22555923461914, -60.43111038208008
230,2479304415,0.5617247,0.30782595,-0.7314883,0.23373976,8.781707763671875,1.471176028251648,0.15180376172065735,-35.34801483154297,66.28744506835938, -66.8332290649414
231,2479321082,0.57470614,0.30968827,-0.7228336,0.22653612,8.981382369995117,1.8452080488204956,0.2921852171421051,-42.26249694824219,78.99654388427734, -74.32429504394531
232,2479337749,0.58964777,0.31086674,-0.7128558,0.21797955,9.308829307556152,2.08029842376709,0.43241217732429504,-53.80086135864258,92.03827667236328, -82.0997543334961
233,2479354416,0.60642,0.31114742,-0.7015354,0.20806569,9.79805850982666,1.936604619026184,0.3526284694671631,-65.99463653564453,104.78460693359375, -88.78106689453125
234,2479371083,0.62473524,0.31061983,-0.6887328,0.19715236,10.516145706176758,1.671048641204834,0.1214306429028511,-75.37274932861328,117.31907653808594, -94.41974639892578
235,2479387750,0.6440024,0.30936617,-0.67454344,0.18586405,11.15843391418457,1.5446505546569824,-0.09901130199432373,-80.43286895751953,127.87966918945312, -96.86888885498047
236,2479404417,0.6636071,0.30779108,-0.6589026,0.17532381,11.639585494995117,0.7249512672424316,-0.5054004192352295,-77.26714324951172,137.81373596191406, -95.63372802734375
237,2479421084,0.6819062,0.3079854,-0.64175665,0.16822092,11.97989273071289,-0.14898176491260529,-1.620141863822937,-49.06858444213867,143.89276123046875, -89.67112731933594
238,2479437751,0.6987411,0.30943662,-0.62401134,0.16315858,12.382363319396973,0.5448509454727173,-2.2471256256103516,-30.41482925415039,143.1790008544922, -85.36246490478516
239,2479454418,0.71509296,0.3099275,-0.606246,0.15828408,12.489238739013672,0.9860633015632629,-2.0809950828552246,-33.21956253051758,142.80430603027344, -79.95877075195312
240,2479471085,0.730608,0.30972618,-0.58870053,0.15399513,12.192526817321777,0.6413491368293762,-1.6489379405975342,-32.68703842163086,140.37362670898438, -72.92840576171875
241,2479487752,0.7447916,0.3097592,-0.5715081,0.15071228,11.663488388061523,0.6432945728302002,-1.8035517930984497,-25.01980209350586,135.24368286132812, -66.79524230957031
242,2479504419,0.75743985,0.3104227,-0.55506563,0.14773571,10.767352104187012,0.8927024006843567,-2.3006887435913086,-18.139223098754883,125.53243255615234, -64.64989471435547
243,2479521086,0.7683269,0.3116031,-0.5402096,0.14405471,9.865337371826172,1.0462572574615479,-3.058483123779297,-16.037431716918945,108.71464538574219, -65.23503875732422
244,2479537753,0.776963,0.3133189,-0.5278124,0.13990964,9.142049789428711,0.722390353679657,-3.450063467025757,-12.604288101196289,86.0687484741211, -62.28538513183594
245,2479554420,0.78317577,0.3144337,-0.51903135,0.13555343,8.552531242370605,0.2588479518890381,-3.907163619995117,-14.899221420288086,58.32390213012695, -51.2287483215332
246,2479571087,0.7877189,0.3126675,-0.5145963,0.13011436,8.142749786376953,0.08860721439123154,-4.334403038024902,-34.779144287109375,29.564599990844727, -35.96051788330078
247,2479587754,0.79019403,0.30727684,-0.5156945,0.123427615,7.761058330535889,-0.6246137619018555,-5.371983051300049,-59.391357421875,-6.893853187561035, -16.28426170349121
248,2479604421,0.78962,0.30057985,-0.5220392,0.11673867,7.873236656188965,-1.7287194728851318,-6.631017684936523,-64.57515716552734,-44.805946350097656, 1.8568650484085083
249,2479621088,0.78609544,0.29490197,-0.53144276,0.11250172,9.715394020080566,0.4929434657096863,-1.3535966873168945,-46.66762924194336,-67.40422821044922, 20.016233444213867
250,2479637755,0.7857215,0.28927487,-0.53606796,0.10767537,11.97614574432373,9.281319618225098,15.028761863708496,-51.25612258911133,-31.140623092651367, 4.400579929351807
251,2479654422,0.7840299,0.28395948,-0.5422483,0.10311101,8.348320960998535,-0.49631160497665405,4.439462661743164,-47.0200309753418,-44.5694580078125, 8.928125381469727
252,2479671089,0.77922547,0.28271547,-0.5497672,0.10313431,11.98915958404541,-1.9588944911956787,-1.2698915004730225,-2.7729451656341553,-57.407588958740234, 23.159053802490234
253,2479687756,0.7729923,0.28320166,-0.5582058,0.10337801,12.311463356018066,1.9970356225967407,3.3708324432373047,9.454621315002441,-68.36579132080078, 20.352407455444336
254,2479704423,0.76553124,0.283739,-0.5681476,0.10326469,10.043709754943848,1.5848562717437744,1.3095762729644775,9.69942569732666,-81.81863403320312, 21.968042373657227
255,2479721090,0.7580156,0.28416842,-0.5779643,0.10304827,10.311092376708984,1.6183263063430786,0.1716737151145935,8.919727325439453,-81.468505859375, 21.57019805908203
256,2479737757,0.7508727,0.28525794,-0.5867543,0.10265722,9.712469100952148,1.6186894178390503,0.7626019716262817,11.648360252380371,-75.37940216064453, 15.696470260620117
257,2479754424,0.7439007,0.2868667,-0.5947745,0.10277852,8.893659591674805,3.016925573348999,0.19772851467132568,16.59442710876465,-70.04945373535156, 14.55733585357666
258,2479771091,0.73709065,0.28901845,-0.60214907,0.102873646,8.960954666137695,3.823953151702881,-1.0537968873977661,19.38041877746582,-66.48418426513672, 10.82365894317627
259,2479787758,0.73053914,0.2902868,-0.6095884,0.102220505,9.935356140136719,3.314870595932007,-1.4407621622085571,11.21342945098877,-66.52484893798828, 10.675092697143555
260,2479804425,0.72453105,0.29059368,-0.6166599,0.10169333,10.177127838134766,2.072451591491699,-0.22064347565174103,6.0536789894104,-61.3831787109375, 14.231647491455078
261,2479821092,0.7184142,0.29191422,-0.62313116,0.10186046,9.342279434204102,2.003192663192749,-0.5545514225959778,14.671538352966309,-58.14341354370117, 12.230039596557617
262,2479837759,0.71254987,0.29364416,-0.62896216,0.10224179,9.716028213500977,2.193737268447876,-0.23198822140693665,17.537662506103516,-53.72026443481445, 10.041109085083008
263,2479854426,0.7068622,0.29560292,-0.6343788,0.10261093,9.760761260986328,2.323814868927002,-0.20522303879261017,18.53041648864746,-51.097023010253906, 8.005226135253906
264,2479871093,0.70132273,0.29755786,-0.6395852,0.1026525,9.654925346374512,2.4603703022003174,-0.2938194274902344,16.92201042175293,-50.08353042602539, 5.877782344818115
265,2479887760,0.69598496,0.29930952,-0.64462274,0.10237794,9.629566192626953,2.5338308811187744,-0.268222451210022,14.249418258666992,-48.88167190551758, 4.748183250427246
266,2479904427,0.69082606,0.30080593,-0.64950556,0.10207161,9.61446762084961,2.557760715484619,-0.602845311164856,12.621910095214844,-47.236148834228516, 5.275767803192139
267,2479921094,0.6857316,0.3024531,-0.6540944,0.102253675,9.57862663269043,2.6819891929626465,-0.8988864421844482,15.584752082824707,-44.642494201660156, 6.263167858123779
268,2479937761,0.68068814,0.30446014,-0.65827984,0.10313293,9.534432411193848,2.6564817428588867,-1.0436877012252808,20.586484909057617,-41.303314208984375, 7.056128978729248
269,2479954428,0.6757285,0.3066987,-0.6621242,0.10449593,9.558341979980469,2.9385063648223877,-1.00236976146698,23.91779899597168,-38.468719482421875, 7.497399806976318
270,2479971095,0.6710307,0.30876297,-0.665733,0.10575387,9.677734375,2.722642183303833,-1.1027923822402954,22.24266815185547,-36.27418518066406, 7.127734661102295
271,2479987762,0.6666414,0.31082577,-0.66898966,0.10691386,9.889626502990723,2.217250347137451,-1.379711627960205,21.384838104248047,-33.441837310791016, 5.711799144744873
272,2480004429,0.6626185,0.3129712,-0.67179114,0.10808874,9.983444213867188,1.980504035949707,-1.594531774520874,21.375595092773438,-29.692197799682617, 4.139089107513428
273,2480021096,0.6590198,0.3153668,-0.6739692,0.10955894,9.899260520935059,1.9652479887008667,-1.9062780141830444,23.419755935668945,-24.43306541442871, 2.6435554027557373
274,2480037763,0.65576863,0.31814367,-0.6754854,0.11168136,9.800125122070312,2.360605239868164,-1.7997134923934937,27.903345108032227,-18.680463790893555, 2.1072804927825928
275,2480054430,0.6528211,0.3209887,-0.6765713,0.11420644,9.71718692779541,2.5039336681365967,-1.8020235300064087,29.7397403717041,-14.491028785705566, 2.4187891483306885
276,2480071097,0.6502297,0.32377607,-0.6772714,0.11693891,9.542736053466797,2.4956772327423096,-1.7352954149246216,29.95820426940918,-10.592758178710938, 2.481264352798462
277,2480087764,0.6480094,0.32622415,-0.67778283,0.119470246,9.41855239868164,2.60697078704834,-1.6063146591186523,26.828500747680664,-8.191539764404297, 2.4393794536590576
278,2480104431,0.64619994,0.32808176,-0.67823887,0.12157748,9.37591552734375,2.725677967071533,-1.5941632986068726,21.345998764038086,-6.497760772705078, 2.842841625213623
279,2480121098,0.64469546,0.32939866,-0.6787284,0.12325999,9.330798149108887,2.8136672973632812,-1.6357226371765137,16.249618530273438,-5.732166767120361, 3.3072497844696045
280,2480137765,0.64337677,0.33042303,-0.67921054,0.124743864,9.300711631774902,2.552170753479004,-1.6086395978927612,13.614203453063965,-5.034371852874756, 3.6318771839141846
281,2480154432,0.6420095,0.33157057,-0.6796407,0.12638955,9.333090782165527,2.5080978870391846,-1.6422252655029297,15.071864128112793,-4.770957946777344, 3.70155668258667
282,2480171099,0.6404602,0.3329562,-0.6800785,0.12823853,9.3806791305542,2.5638647079467773,-1.454538345336914,17.48325538635254,-5.401916980743408, 3.6658544540405273
283,2480187766,0.63874346,0.3341389,-0.68079615,0.1299074,9.21022891998291,2.8430490493774414,-1.29435133934021,15.887568473815918,-7.6593194007873535, 4.615983486175537
284,2480204433,0.63668686,0.3348399,-0.6821611,0.13103159,8.96070671081543,3.2153923511505127,-1.1361026763916016,11.43229866027832,-12.928549766540527, 6.288878917694092
285,2480221100,0.63430285,0.3348472,-0.6842665,0.13159588,8.914700508117676,3.170121192932129,-1.2136479616165161,5.867922782897949,-18.388126373291016, 9.127848625183105
286,2480237767,0.63151646,0.33441657,-0.6870488,0.13159518,8.764312744140625,3.405540704727173,-1.2002543210983276,1.6244829893112183,-24.15369415283203, 10.684012413024902
287,2480254434,0.628518,0.33303,-0.6906979,0.13035965,8.656370162963867,3.6289141178131104,-1.1897001266479492,-8.642452239990234,-30.90910530090332, 12.070449829101562
288,2480271101,0.62539536,0.32983786,-0.6955723,0.127546,8.875239372253418,2.3857998847961426,-1.3055355548858643,-24.737045288085938,-38.805912017822266, 16.80192756652832
289,2480287768,0.62184393,0.32595906,-0.7010723,0.12473729,9.66872501373291,1.4267014265060425,-1.4368938207626343,-27.23571014404297,-42.95028305053711, 21.918460845947266
290,2480304435,0.61738867,0.3222181,-0.7071599,0.122198306,9.988081932067871,1.3792423009872437,-1.5724822282791138,-23.826799392700195,-49.35366439819336, 24.478593826293945
291,2480321102,0.6123679,0.31797725,-0.7138836,0.119444944,9.86845588684082,1.884612798690796,-1.3640224933624268,-26.275074005126953,-54.881248474121094, 27.860183715820312
292,2480337769,0.60679334,0.31315228,-0.7212323,0.116458885,9.883808135986328,2.2621402740478516,-1.5873527526855469,-29.175058364868164,-60.2919921875, 31.566967010498047
293,2480354436,0.60048527,0.3081983,-0.7290358,0.113750294,9.927534103393555,2.295654535293579,-1.7528188228607178,-27.11679458618164,-65.1548080444336, 34.94366455078125
294,2480371103,0.59328777,0.3037319,-0.73701775,0.112081766,9.970436096191406,2.3172006607055664,-1.8424776792526245,-18.13685417175293,-68.55609130859375, 37.88199996948242
295,2480387770,0.58534676,0.2998711,-0.7450648,0.111023076,9.959548950195312,2.211181640625,-2.024759531021118,-11.063796043395996,-71.81538391113281, 38.02606964111328
296,2480404437,0.57618374,0.29704142,-0.75332594,0.11081445,10.145126342773438,2.136674404144287,-2.103708267211914,-0.19563497602939606,-78.00479888916016, 37.554264068603516
297,2480421104,0.56582886,0.29461625,-0.7619913,0.11139468,10.903085708618164,2.874892234802246,-1.9952638149261475,7.628013610839844,-84.51783752441406, 40.33159637451172
298,2480437771,0.5541354,0.29251492,-0.771174,0.11251864,11.408599853515625,3.1348679065704346,-1.7868258953094482,14.07259750366211,-92.74945831298828, 42.85918426513672
299,2480454438,0.5408572,0.29133886,-0.7807332,0.11424405,11.860610961914062,2.0888266563415527,-1.4477086067199707,23.712244033813477,-102.17451477050781, 42.27255630493164
300,2480471105,0.5257846,0.29159755,-0.79042286,0.11727833,12.885088920593262,2.167428970336914,-0.986924409866333,39.58374786376953,-110.9057388305664, 41.12356185913086
301,2480487772,0.50926954,0.29372713,-0.7997682,0.12141134,14.222190856933594,1.6382372379302979,-0.4183960556983948,55.510894775390625,-116.9554443359375, 35.42177200317383
302,2480504439,0.49145585,0.2980178,-0.8083267,0.1275367,15.298309326171875,0.8876431584358215,0.7918848991394043,77.33220672607422,-119.31995391845703, 30.020566940307617
303,2480521106,0.47209513,0.30407754,-0.8161301,0.1363651,15.959966659545898,1.5093215703964233,1.9213653802871704,102.17918395996094,-121.64348602294922, 29.134872436523438
304,2480537773,0.45111874,0.31171864,-0.8231107,0.1476922,15.378564834594727,2.6648340225219727,2.410195827484131,125.50990295410156,-124.61677551269531, 28.212060928344727
305,2480554440,0.42836735,0.32185116,-0.82882696,0.16112116,13.843122482299805,1.8682385683059692,0.5928753614425659,150.2781982421875,-129.09559631347656, 19.828954696655273
306,2480571107,0.40441453,0.3277297,-0.83656853,0.17086945,12.234633445739746,-1.9800430536270142,-4.4225006103515625,117.2180404663086,-145.59385681152344, 39.14413833618164
307,2480587774,0.3830887,0.32739434,-0.8447996,0.17991817,13.434789657592773,-0.4547611474990845,-5.6451735496521,89.35911560058594,-126.22057342529297, 70.9559326171875
308,2480604441,0.36510694,0.32403997,-0.8528927,0.18512136,11.670754432678223,3.0027170181274414,-5.015205383300781,51.681427001953125,-111.46134185791016, 73.95280456542969
309,2480621108,0.34982684,0.3199416,-0.8600969,0.18839556,11.49799919128418,3.265819787979126,-4.809562683105469,33.66949462890625,-96.83473205566406, 68.16630554199219
310,2480637775,0.33687267,0.3167609,-0.86586726,0.19093017,8.782227516174316,3.9645233154296875,-3.787961959838867,28.31417465209961,-82.55711364746094, 54.91107940673828
311,2480654442,0.3290582,0.31657642,-0.8686744,0.19210882,5.490110397338867,7.098764896392822,-1.3278155326843262,19.975996017456055,-52.06264877319336, 20.85260009765625
312,2480671109,0.32906556,0.3173847,-0.8685979,0.19110619,7.74195671081543,4.956158638000488,1.0338292121887207,-3.8476431369781494,-4.9475932121276855, -6.451661586761475
313,2480687776,0.3321866,0.31911367,-0.86628973,0.19329192,6.944839000701904,1.870700716972351,0.3091889023780823,13.53194522857666,24.275712966918945, -13.565529823303223
314,2480704443,0.33977565,0.32142815,-0.8616505,0.19696632,6.441042900085449,3.3252456188201904,1.027125597000122,17.07529067993164,58.57053756713867, -24.63129997253418
315,2480721110,0.3529652,0.323079,-0.8552004,0.19916983,5.659979820251465,2.700256109237671,2.2608742713928223,-3.0425500869750977,93.50088500976562, -35.619834899902344
316,2480737777,0.3700974,0.3244091,-0.84676266,0.20194212,5.669112682342529,0.3634711503982544,1.6555781364440918,-6.467170238494873,123.07622528076172, -42.08394241333008
317,2480754444,0.39036798,0.32564837,-0.836151,0.20595731,5.785633087158203,0.17184734344482422,0.5461863875389099,-3.45225191116333,149.6640625, -47.56374740600586
318,2480771111,0.41436073,0.32655326,-0.8233131,0.20934363,5.981120586395264,1.3032091856002808,-0.08488871157169342,-13.158803939819336,176.02371215820312, -57.556495666503906
319,2480787778,0.4424781,0.32630157,-0.80839515,0.21033001,6.655631065368652,1.5554791688919067,-0.28948429226875305,-36.30004119873047,201.51458740234375, -68.41008758544922
320,2480804445,0.47383615,0.32520625,-0.79099655,0.2098703,7.460456848144531,1.167598009109497,-0.7107346057891846,-50.58008575439453,224.9911346435547, -78.33536529541016
321,2480821112,0.50750613,0.32360584,-0.77085304,0.20857465,8.506961822509766,1.5103363990783691,-1.2190120220184326,-57.979373931884766,245.31781005859375, -87.76721954345703
322,2480837779,0.5432471,0.32115018,-0.74794495,0.20572913,10.065733909606934,2.0359222888946533,-1.4814876317977905,-69.82263946533203,263.6870422363281, -97.74715423583984
323,2480854446,0.5810369,0.31787324,-0.721564,0.20173973,11.695283889770508,2.1815316677093506,-2.0158424377441406,-78.38209533691406,285.81353759765625, -108.34777069091797
324,2480871113,0.6200976,0.31384352,-0.6915478,0.19683477,14.251031875610352,2.3832690715789795,-3.0304365158081055,-83.6727294921875,305.6927795410156, -117.97366333007812
325,2480887780,0.65937275,0.30902752,-0.65829706,0.19072413,17.052995681762695,2.6483423709869385,-3.9893453121185303,-88.85694122314453,319.0152893066406, -126.65538024902344
326,2480904447,0.696954,0.30351973,-0.62290615,0.18471567,18.936750411987305,0.582979679107666,-6.310307502746582,-85.15293884277344,322.28399658203125, -125.41397857666016
327,2480921114,0.73046404,0.29995456,-0.58628887,0.1808748,19.068758010864258,1.9704796075820923,-8.651500701904297,-56.557376861572266,313.0168762207031, -120.84912109375
328,2480937781,0.76039505,0.294846,-0.5517982,0.1743125,19.012683868408203,3.6264376640319824,-10.214116096496582,-70.6371078491211,284.5705871582031, -119.56085205078125
329,2480954448,0.785511,0.2895023,-0.5211184,0.16612472,16.511167526245117,0.7362695932388306,-12.212267875671387,-72.96277618408203,243.79043579101562, -113.76028442382812
330,2480971115,0.80371875,0.2897613,-0.49441132,0.16010284,12.239850044250488,-2.709519386291504,-14.266416549682617,-25.84359359741211,195.97113037109375, -106.4963150024414
331,2480987782,0.814314,0.29503742,-0.4744823,0.15720433,9.644743919372559,-4.475003242492676,-15.322901725769043,20.087902069091797,133.82411193847656, -84.61681365966797
332,2481004449,0.81910264,0.29827675,-0.46491224,0.1547886,7.005029678344727,-3.0747365951538086,-15.51863956451416,10.732803344726562,60.52032470703125, -48.20613479614258
333,2481021116,0.81928045,0.29485083,-0.46819985,0.15044114,5.38044548034668,-3.1063218116760254,-14.921542167663574,-37.31550979614258,-23.10004425048828, -6.663662433624268
334,2481037783,0.81308717,0.28999224,-0.4826857,0.14767943,6.73814582824707,-4.033891677856445,-14.696198463439941,-39.03913497924805,-101.66877746582031, 36.052738189697266
335,2481054450,0.802863,0.28737155,-0.5014271,0.14628845,13.275620460510254,4.317502021789551,-2.4578371047973633,-18.330249786376953,-138.0857391357422, 48.73998260498047
336,2481071117,0.8023102,0.27459508,-0.5116289,0.13832021,16.897056579589844,19.491941452026367,29.986101150512695,-107.61133575439453,-60.30120849609375, 20.864723205566406
337,2481087784,0.8004959,0.2559861,-0.5276072,0.1237289,5.660055160522461,-6.9627790451049805,0.04802617430686951,-166.08740234375,-104.08395385742188, 17.262914657592773
338,2481104451,0.79220885,0.2488636,-0.5438265,0.12134888,15.251830101013184,-7.841828346252441,-9.145349502563477,-47.3181037902832,-117.17198181152344, 48.572776794433594
339,2481121118,0.78290623,0.24586952,-0.55887157,0.119455755,16.432613372802734,-0.7943350672721863,5.980243682861328,-20.311363220214844,-116.98416137695312, 34.40565872192383
340,2481137785,0.7727515,0.24527863,-0.5733586,0.11812991,9.572868347167969,-3.4609031677246094,-1.0913032293319702,-3.2660200595855713,-118.34898376464844, 27.914825439453125
341,2481154452,0.7626927,0.24677037,-0.58614033,0.11766471,10.44171142578125,3.9335453510284424,-0.7999584078788757,12.414811134338379,-109.14624786376953, 21.249982833862305
342,2481171119,0.7542941,0.24542224,-0.59812677,0.11425307,8.994675636291504,3.2435660362243652,-1.528564691543579,-16.53725814819336,-100.98590850830078, 14.604778289794922
343,2481187786,0.74608266,0.24360399,-0.60969317,0.11087382,10.01172161102295,2.8040096759796143,-2.307436227798462,-18.837018966674805,-97.61341857910156, 15.896340370178223
344,2481204453,0.7389815,0.23964344,-0.6206272,0.10630177,10.004462242126465,1.8521021604537964,-0.7161598205566406,-36.21187973022461,-90.0709457397461, 16.885395050048828
345,2481221120,0.7322189,0.23685773,-0.630238,0.10273621,9.403759956359863,0.6297987699508667,-1.028836727142334,-25.53518295288086,-81.12267303466797, 14.576714515686035
346,2481237787,0.72533816,0.23636977,-0.6386481,0.100715324,10.282563209533691,0.6844173073768616,-0.5827778577804565,-6.232182502746582,-74.71633911132812, 10.52491283416748
347,2481254454,0.7182183,0.23719159,-0.64656824,0.099262215,10.452272415161133,0.9488306045532227,-0.5716198682785034,3.5236384868621826,-73.3339614868164, 6.972505569458008
348,2481271121,0.7109351,0.23821205,-0.6543957,0.09794565,10.605508804321289,1.8997864723205566,-0.7266901731491089,5.443693161010742,-73.54378509521484, 6.7254157066345215
349,2481287788,0.704088,0.2378161,-0.6621853,0.09599592,10.092121124267578,2.5717179775238037,-0.7345560193061829,-5.012599945068359,-71.50434112548828, 9.660883903503418
350,2481304455,0.6981677,0.23580655,-0.6695033,0.093400404,9.995556831359863,2.6009578704833984,-0.9591078162193298,-16.962570190429688,-65.0160140991211, 12.520160675048828
351,2481321122,0.6933354,0.23295505,-0.67580736,0.09112294,10.07265853881836,2.088014602661133,-1.5475319623947144,-20.645706176757812,-54.10530090332031, 15.60102653503418
352,2481337789,0.6890657,0.23031135,-0.6812663,0.08956851,10.062125205993652,1.6260111331939697,-1.8157259225845337,-16.662792205810547,-46.450008392333984, 16.389179229736328
353,2481354456,0.6856007,0.22784048,-0.68574077,0.08832198,10.12116527557373,1.2668123245239258,-1.4951151609420776,-15.066232681274414,-37.64704132080078, 14.990438461303711
354,2481371123,0.68299073,0.2244253,-0.68972546,0.08623502,10.174032211303711,1.5930986404418945,-1.1525671482086182,-24.517454147338867,-32.066139221191406, 14.198075294494629
355,2481387790,0.6810799,0.22000459,-0.69335884,0.08356196,9.851801872253418,1.9045460224151611,-1.374365210533142,-32.88355255126953,-27.427213668823242, 15.264504432678223
356,2481404457,0.6795742,0.21600512,-0.6963327,0.081502795,9.6375732421875,1.5013569593429565,-1.5610272884368896,-28.21353530883789,-21.73616600036621, 14.910747528076172
357,2481421124,0.67807335,0.2132592,-0.69876206,0.08043364,9.52077865600586,1.5053192377090454,-1.4441540241241455,-17.313745498657227,-18.415054321289062, 12.729052543640137
358,2481437791,0.67637205,0.2115025,-0.7010081,0.07985025,9.433877944946289,1.4737809896469116,-1.3551713228225708,-9.967841148376465,-18.37236976623535, 10.088458061218262
359,2481454458,0.6744023,0.2105199,-0.7032193,0.07966593,9.493123054504395,1.4977338314056396,-1.3277587890625,-4.031701564788818,-19.36345100402832, 8.3143892288208
360,2481471125,0.6721117,0.21013278,-0.7055171,0.07972826,9.424455642700195,1.6141749620437622,-1.3178598880767822,0.34410083293914795,-21.300161361694336, 6.8839569091796875
361,2481487792,0.66957116,0.20991436,-0.7079906,0.079754345,9.435213088989258,1.6316337585449219,-1.174625039100647,1.2165480852127075,-23.482412338256836, 6.29373836517334
362,2481504459,0.6667991,0.20968908,-0.7106742,0.07970399,9.460745811462402,1.5180964469909668,-1.197383999824524,1.0376946926116943,-25.697782516479492, 6.409907817840576
363,2481521126,0.66370296,0.20969403,-0.7135681,0.079676636,9.531553268432617,1.474174976348877,-1.242150902748108,2.561028242111206,-28.352413177490234, 5.874950408935547
364,2481537793,0.66014266,0.2100282,-0.7167417,0.0798882,9.66303539276123,1.619123935699463,-1.3290363550186157,5.755086421966553,-31.753501892089844, 6.010151386260986
365,2481554460,0.6560578,0.2104643,-0.72031724,0.08023256,9.76729679107666,1.7152719497680664,-1.356554388999939,7.413075923919678,-36.03834915161133, 6.9824347496032715
366,2481571127,0.65125304,0.21099193,-0.7244582,0.08070479,9.552265167236328,1.6457456350326538,-1.2807120084762573,9.192851066589355,-42.03013610839844, 8.32508659362793
367,2481587794,0.6455755,0.2116175,-0.7292624,0.081409685,9.67241096496582,1.361569881439209,-1.1175845861434937,11.692338943481445,-49.07513427734375, 10.328654289245605
368,2481604461,0.63890785,0.21220602,-0.73484534,0.08227365,9.778979301452637,1.28546941280365,-0.8961440920829773,13.334184646606445,-57.256160736083984, 12.909290313720703
369,2481621128,0.63131315,0.21258599,-0.74113315,0.08350757,9.988723754882812,1.4231297969818115,-0.8377168774604797,15.244974136352539,-64.39082336425781, 17.141918182373047
370,2481637795,0.62282926,0.2123774,-0.7481726,0.084960945,10.025283813476562,1.7592792510986328,-1.081341028213501,14.68144416809082,-71.53904724121094, 22.704479217529297
371,2481654462,0.6134971,0.21141295,-0.75591916,0.0866783,10.4334135055542,2.2554163932800293,-1.1221346855163574,13.633143424987793,-78.11632537841797, 29.255117416381836
372,2481671129,0.60325366,0.21034,-0.7641417,0.08905444,10.954113006591797,2.1367459297180176,-1.4868179559707642,17.6474609375,-83.84963989257812, 33.839115142822266
373,2481687796,0.59187883,0.20926835,-0.77290297,0.092240356,11.17501449584961,1.484106421470642,-1.5206910371780396,23.2197322845459,-90.87017822265625, 38.66822052001953
374,2481704463,0.57938373,0.20791924,-0.7822138,0.096055746,11.875962257385254,1.7087217569351196,-1.0476112365722656,26.704410552978516,-97.99069213867188, 44.207054138183594
375,2481721130,0.5650322,0.20602678,-0.7926045,0.10035298,12.383342742919922,3.061777353286743,-0.8536102175712585,29.078933715820312,-111.24696350097656, 51.82207107543945
376,2481737797,0.54944915,0.2035961,-0.8036329,0.10406499,13.182958602905273,1.9477362632751465,-0.6896035671234131,25.114906311035156,-120.9127197265625, 54.244083404541016
377,2481754464,0.5322789,0.20151016,-0.8150104,0.1087732,14.202068328857422,3.079777479171753,-0.032117992639541626,33.90364074707031,-129.87815856933594, 57.73108673095703
378,2481771131,0.5139807,0.20113944,-0.82608694,0.11379005,15.824339866638184,3.006920576095581,0.325849711894989,43.71446228027344,-135.98106384277344, 49.68288040161133
379,2481787798,0.49501944,0.20373628,-0.8359981,0.120647244,17.30680274963379,2.12021803855896,1.890631914138794,66.49896240234375,-135.44171142578125, 38.246158599853516
380,2481804465,0.4754188,0.2102687,-0.84386414,0.13288443,17.56945037841797,2.204601764678955,2.8047194480895996,113.43045806884766,-127.9329833984375, 31.605772018432617
381,2481821132,0.45417753,0.22147307,-0.84952945,0.15156873,14.783864974975586,2.524437665939331,0.9792748689651489,170.52308654785156,-125.26385498046875, 23.898822784423828
382,2481837799,0.42901435,0.23511492,-0.85467815,0.17376444,10.807782173156738,1.8692295551300049,-4.165041923522949,205.1846923828125,-143.7959747314453, 23.945466995239258
383,2481854466,0.40251336,0.23980835,-0.8626225,0.19067813,12.808350563049316,-1.038877010345459,-7.550318241119385,146.56390380859375,-157.7471923828125, 67.08431243896484
384,2481871133,0.3816622,0.23906814,-0.869704,0.20198049,12.919695854187012,1.2270256280899048,-4.668137550354004,90.04412841796875,-123.9605484008789, 74.94868469238281
385,2481887800,0.36435637,0.23785712,-0.8757117,0.20928025,10.874326705932617,2.866868257522583,-3.5030882358551025,60.54053497314453,-105.87533569335938, 60.577659606933594
386,2481904467,0.34935808,0.23720923,-0.8807314,0.21446124,8.506589889526367,2.140998601913452,-3.261416435241699,46.8554573059082,-93.79270935058594, 46.952632904052734
387,2481921134,0.33928972,0.23763447,-0.88396096,0.21685593,5.995004177093506,5.223021984100342,-0.5722800493240356,27.171417236328125,-65.77100372314453, 23.577281951904297
388,2481937801,0.33720553,0.23823033,-0.88537943,0.21364179,5.879339694976807,6.649222373962402,1.4475536346435547,-16.841690063476562,-22.448875427246094, -5.395368576049805
389,2481954468,0.33931273,0.24037507,-0.88506335,0.20916642,4.9236860275268555,2.3942580223083496,-0.17859451472759247,-25.21830940246582,2.729142427444458, -26.732627868652344
390,2481971135,0.34577292,0.2437214,-0.8826719,0.20477407,5.704029083251953,3.0056545734405518,-0.19059592485427856,-26.11082649230957,32.46445083618164, -43.53877639770508
391,2481987802,0.3571826,0.24686548,-0.87881315,0.19790597,5.385768413543701,2.8967552185058594,0.4634750783443451,-47.8323974609375,62.119930267333984, -57.621360778808594
392,2482004469,0.3729437,0.24955806,-0.87333214,0.1895412,5.554545879364014,0.8639873266220093,0.4916026294231415,-63.15425109863281,90.465087890625, -67.24024963378906
393,2482021136,0.39229828,0.25297785,-0.8651447,0.18338436,5.778430461883545,-0.1602727323770523,0.6665217280387878,-50.67061996459961,121.81961822509766, -75.27288818359375
394,2482037803,0.41481847,0.2572972,-0.8541766,0.17918524,6.014734268188477,-0.08996722102165222,0.11736059933900833,-38.60085678100586,150.4200897216797, -84.1756362915039
395,2482054470,0.44063598,0.26165166,-0.84061325,0.17535327,6.715928077697754,0.20774780213832855,-0.24828018248081207,-38.98420715332031,177.7986297607422, -91.9897232055664
396,2482071137,0.46941617,0.26552597,-0.82454365,0.17109421,7.649411201477051,-0.05230354890227318,-0.8588813543319702,-45.2186164855957,202.33326721191406, -98.59014892578125
397,2482087804,0.5006962,0.26896074,-0.8057459,0.16654752,8.59096622467041,0.2278195172548294,-1.3940726518630981,-49.628440856933594,225.313720703125, -104.94911193847656
398,2482104471,0.53386104,0.27148974,-0.7844747,0.1608915,9.544766426086426,0.7140845656394958,-1.7129820585250854,-59.55078125,243.27035522460938, -110.48388671875
399,2482121138,0.5687216,0.2731813,-0.76037735,0.15412685,10.750528335571289,0.9999514222145081,-2.1110591888427734,-68.650146484375,261.6648254394531, -117.18883514404297
400,2482137805,0.6053761,0.27378887,-0.73292154,0.14624095,12.705011367797852,1.5209722518920898,-2.4760351181030273,-78.57377624511719,283.246337890625, -124.11801147460938
401,2482154472,0.6426659,0.2743418,-0.7017783,0.13865541,14.914484024047852,1.1871556043624878,-3.1942832469940186,-74.78031158447266,302.4446105957031, -130.17547607421875
402,2482171139,0.6793498,0.27545613,-0.6671306,0.13246009,17.072111129760742,1.278810739517212,-3.7074151039123535,-61.1170654296875,317.1222839355469, -132.77760314941406
403,2482187806,0.7149223,0.27583385,-0.62988704,0.12667006,18.75783920288086,1.9567838907241821,-4.354617118835449,-58.246707916259766,325.6205139160156, -131.41551208496094
404,2482204473,0.74731493,0.2771934,-0.59148145,0.121798836,19.77265167236328,1.6219419240951538,-6.533189296722412,-42.41449737548828,318.4714660644531, -130.5907745361328
405,2482221140,0.7750632,0.27944306,-0.55469817,0.11618675,20.021663665771484,1.2026309967041016,-10.721419334411621,-33.38850402832031,289.1114807128906, -131.0474090576172
406,2482237807,0.79760987,0.2832126,-0.5212949,0.10891039,16.21086883544922,1.038049340248108,-12.558717727661133,-24.382400512695312,246.89251708984375, -135.0869140625
407,2482254474,0.8146743,0.28791204,-0.49302247,0.10169663,12.523550987243652,-1.3741154670715332,-12.880926132202148,-12.270283699035645,198.57984924316406, -124.00190734863281
408,2482271141,0.82529813,0.2942018,-0.47223386,0.096564606,9.597308158874512,-3.696655750274658,-13.925500869750977,11.168534278869629,137.88516235351562, -98.44535827636719
409,2482287808,0.83072394,0.29757088,-0.4613383,0.09228841,7.699122428894043,-4.457274436950684,-16.33387565612793,1.2761200666427612,68.5957260131836, -60.687618255615234
410,2482304475,0.8308128,0.2943602,-0.46427208,0.08691562,4.398119926452637,-4.819499969482422,-16.117074966430664,-37.686378479003906,-25.32100486755371, -14.44674015045166
411,2482321142,0.8253042,0.28699064,-0.47925735,0.08259994,6.801089286804199,-4.31032133102417,-14.14750862121582,-53.982200622558594,-107.34783935546875, 32.57353973388672
412,2482337809,0.8176429,0.28222442,-0.4950006,0.08237041,16.135812759399414,7.635370254516602,9.324287414550781,-21.961299896240234,-112.10169982910156, 49.87221908569336
413,2482354476,0.8184608,0.2620599,-0.5065475,0.069693305,11.663848876953125,12.099056243896484,23.98274803161621,-164.9677276611328,-75.10980987548828, 19.38015365600586
414,2482371143,0.81308043,0.24610074,-0.524039,0.06098088,10.62771224975586,-13.591574668884277,-9.824458122253418,-119.1153335571289,-125.11260986328125, 40.78898239135742
415,2482387810,0.80354685,0.24212806,-0.5400197,0.06376703,18.63419532775879,-3.346724271774292,3.1899471282958984,-3.0332934856414795,-117.15031433105469, 60.9848747253418
416,2482404477,0.7933342,0.23902103,-0.5564118,0.062422052,12.486370086669922,-3.6931891441345215,0.33576980233192444,-12.645245552062988,-129.2022705078125, 35.88991928100586
417,2482421144,0.7816833,0.24129964,-0.5715061,0.06424564,11.074213981628418,2.324852228164673,-1.4509342908859253,31.764751434326172,-124.72991180419922, 31.026325225830078
418,2482437811,0.7712066,0.24251086,-0.585077,0.06414881,9.332376480102539,4.982458114624023,-1.5626015663146973,17.196807861328125,-114.634765625, 21.85892105102539
419,2482454478,0.76195645,0.24157669,-0.5976071,0.06268955,9.42883586883545,3.4750094413757324,-2.864765167236328,-1.2495790719985962,-105.50127410888672, 21.012290954589844
420,2482471145,0.7540865,0.23815563,-0.60909635,0.060316827,10.985844612121582,1.2491511106491089,-1.2723445892333984,-19.880414962768555,-94.81067657470703, 24.137529373168945
421,2482487812,0.74660933,0.2358184,-0.61928016,0.058799144,9.728294372558594,1.5947400331497192,-1.0789098739624023,-10.789046287536621,-85.44496154785156, 21.73305892944336
422,2482504479,0.7390963,0.23580484,-0.62821126,0.05902899,9.929109573364258,1.2902188301086426,-1.250954508781433,9.14621353149414,-77.27362823486328, 18.79903793334961
423,2482521146,0.7314134,0.2389712,-0.6357904,0.060819026,10.501224517822266,0.483283132314682,-0.8137439489364624,32.86586380004883,-69.90040588378906, 10.870396614074707
424,2482537813,0.7234685,0.24438283,-0.64253336,0.06341944,10.274985313415527,1.7025511264801025,-0.6948820948600769,48.477783203125,-66.45614624023438, 3.861891984939575
425,2482554480,0.7159881,0.24921833,-0.64881986,0.06546134,10.172297477722168,3.269859790802002,-0.9971052408218384,42.56415557861328,-62.8271484375, 2.6605539321899414
426,2482571147,0.7098129,0.25165588,-0.6545426,0.066407576,9.94406509399414,3.211928606033325,-0.8376298546791077,23.891454696655273,-55.03276824951172, 6.419873237609863
427,2482587814,0.70467556,0.25237668,-0.6597578,0.06677631,9.793557167053223,2.8727543354034424,-0.9749213457107544,11.355062484741211,-48.10590744018555, 9.985193252563477
428,2482604481,0.70030785,0.25234157,-0.6643332,0.06749079,9.738175392150879,2.585853338241577,-1.2606899738311768,8.224004745483398,-40.57328796386719, 13.633623123168945
429,2482621148,0.6964187,0.25221214,-0.6683386,0.06866262,9.753679275512695,2.100942373275757,-1.241658091545105,9.297555923461914,-34.80881881713867, 15.061890602111816
430,2482637815,0.69321626,0.25155476,-0.67181087,0.06958902,9.573320388793945,2.26003360748291,-1.2528173923492432,4.704833507537842,-29.281478881835938, 15.067397117614746
431,2482654482,0.6905105,0.2501902,-0.6750925,0.06964927,9.459117889404297,2.5726120471954346,-0.9393395185470581,-3.4296672344207764,-27.242473602294922, 13.642962455749512
432,2482671149,0.68792504,0.24863566,-0.678325,0.069395185,9.558993339538574,2.484966516494751,-1.1198385953903198,-5.968893051147461,-26.9052677154541, 12.896645545959473
433,2482687816,0.6852852,0.24739857,-0.6814608,0.06921239,9.32229995727539,2.3478286266326904,-1.2278112173080444,-3.991482734680176,-26.73567008972168, 11.619922637939453
434,2482704483,0.6823847,0.24669774,-0.684618,0.069213316,9.147079467773438,2.1811740398406982,-1.1576497554779053,-0.16623973846435547,-28.004741668701172, 10.1387357711792
435,2482721150,0.67931515,0.24620439,-0.6878444,0.06917601,9.248838424682617,2.2256717681884766,-1.191796064376831,0.8856837153434753,-29.29472541809082, 9.18532657623291
436,2482737817,0.6760047,0.24575183,-0.69126767,0.06909176,9.223791122436523,2.4343881607055664,-1.16366446018219,1.1737768650054932,-31.458301544189453, 9.2258882522583
437,2482754484,0.67238486,0.24527791,-0.69496435,0.069014624,9.362605094909668,2.2311408519744873,-1.1882586479187012,1.505911946296692,-34.18305587768555, 9.975263595581055
438,2482771151,0.6686413,0.2446536,-0.69880235,0.06884326,9.444936752319336,2.0865490436553955,-1.1807280778884888,0.5068456530570984,-35.52129364013672, 10.559916496276855
439,2482787818,0.66465646,0.24405333,-0.7028236,0.06862792,9.458977699279785,2.3367719650268555,-1.3471273183822632,0.7310223579406738,-37.6153450012207, 10.668508529663086
440,2482804485,0.6606178,0.24315257,-0.70699275,0.067992635,9.525728225708008,2.1744329929351807,-1.5377024412155151,-2.646357774734497,-39.11958694458008, 10.480233192443848
441,2482821152,0.6565474,0.2421638,-0.711189,0.06718019,9.493687629699707,2.0959670543670654,-1.5639963150024414,-3.862571954727173,-39.65714645385742, 10.167719841003418
442,2482837819,0.65213245,0.24123058,-0.71563226,0.06635262,9.42516803741455,2.0898001194000244,-1.5020171403884888,-3.222073793411255,-42.51408767700195, 10.402495384216309
443,2482854486,0.64718235,0.24035677,-0.72046614,0.065673426,9.406805992126465,1.9708054065704346,-1.3256027698516846,-1.5113279819488525,-46.68539047241211, 11.671052932739258
444,2482871153,0.641512,0.2392439,-0.7259393,0.065098666,9.523828506469727,2.0934579372406006,-1.2505459785461426,-1.1518793106079102,-52.82449722290039, 14.704874992370605
445,2482887820,0.6350581,0.23799361,-0.7320399,0.06464425,9.485360145568848,2.4548652172088623,-1.0804262161254883,-0.14333057403564453,-59.25096893310547, 17.307968139648438
446,2482904487,0.62757486,0.23666382,-0.7389015,0.06454179,9.783970832824707,2.1008152961730957,-1.4069530963897705,2.6349079608917236,-67.15081787109375, 20.952880859375
447,2482921154,0.6192176,0.23523986,-0.746343,0.064847365,10.062263488769531,1.8923709392547607,-1.5590450763702393,5.470418453216553,-73.39695739746094, 24.527297973632812
448,2482937821,0.6099099,0.23362961,-0.7544069,0.0655622,10.329025268554688,2.259661912918091,-1.8014674186706543,8.043561935424805,-80.18731689453125, 28.65851402282715
449,2482954488,0.5996237,0.23220071,-0.7629129,0.06707569,10.678772926330566,2.2673187255859375,-2.019040822982788,14.32588005065918,-85.923583984375, 32.22188949584961
450,2482971155,0.5882421,0.23117135,-0.77182984,0.06936091,10.91677474975586,1.9688153266906738,-2.053148031234741,21.586267471313477,-92.32405853271484, 34.472618103027344
451,2482987822,0.5757682,0.23030595,-0.7811767,0.07220922,11.372949600219727,1.8941532373428345,-1.699439525604248,26.775171279907227,-99.0538558959961, 37.08658981323242
452,2483004489,0.56200385,0.22885999,-0.79122615,0.075744405,12.329941749572754,3.372112512588501,-1.4033067226409912,29.86744499206543,-107.40302276611328, 44.67906951904297
453,2483021156,0.54635787,0.22801627,-0.80195904,0.07977665,12.909904479980469,3.2268025875091553,-1.0036890506744385,37.52003860473633,-119.83119201660156, 45.38591384887695
454,2483037823,0.5289296,0.22800829,-0.8130708,0.08463183,14.544486045837402,2.9930901527404785,-0.46807777881622314,47.80054473876953,-130.2726287841797, 45.44601058959961
455,2483054490,0.50948995,0.2327651,-0.8231698,0.09291414,16.511131286621094,3.4032297134399414,0.9323949813842773,88.05070495605469,-135.2667694091797, 30.858524322509766
456,2483071157,0.48883137,0.24080403,-0.83206576,0.10356095,18.324520111083984,2.726572036743164,3.0395870208740234,115.67741394042969,-136.3087615966797, 19.42123031616211
457,2483087824,0.46625412,0.25214633,-0.83943063,0.11994398,18.454151153564453,3.0057260990142822,4.484847545623779,163.9021453857422,-135.05947875976562, 18.634130477905273
458,2483104491,0.44165674,0.2621181,-0.8471264,0.13642369,15.485018730163574,2.421152353286743,2.5795462131500244,163.32192993164062,-146.55203247070312, 29.102725982666016
459,2483121158,0.4150827,0.26927644,-0.8559606,0.15009697,12.158507347106934,-2.358036756515503,-5.2621026039123535,140.94837951660156,-163.9947967529297, 40.87867736816406
460,2483137825,0.39101273,0.270336,-0.86420393,0.16486354,14.062946319580078,-3.4034204483032227,-8.6596040725708,125.9300537109375,-139.2550048828125, 76.21442413330078
461,2483154492,0.37170276,0.2685585,-0.8712424,0.17507432,11.955179214477539,2.9753267765045166,-4.5824103355407715,83.723876953125,-112.9789047241211, 73.1809310913086
462,2483171159,0.356171,0.26651952,-0.8769424,0.1818864,10.19140338897705,3.493210554122925,-3.2531673908233643,57.3454475402832,-92.90047454833984, 59.05119323730469
463,2483187826,0.34347618,0.26545894,-0.88110995,0.1876216,6.51123571395874,3.6780426502227783,-1.944201946258545,49.9849853515625,-75.25667572021484, 44.17033386230469
464,2483204493,0.33803785,0.265814,-0.8824073,0.19087118,4.726942539215088,7.309609889984131,0.4724888205528259,28.748502731323242,-30.889577865600586, 15.134042739868164
465,2483221160,0.33962896,0.26685676,-0.88163257,0.19016956,3.94948410987854,4.841999530792236,0.9959988594055176,-3.711935520172119,8.434375762939453, -11.216665267944336
466,2483237827,0.34630227,0.26861954,-0.87879175,0.18879673,4.7811713218688965,3.1752567291259766,0.49970144033432007,-12.698128700256348,41.88089370727539, -27.572856903076172
467,2483254494,0.35776109,0.27059925,-0.87413186,0.1862189,5.042300224304199,3.474307060241699,0.7340080738067627,-25.920148849487305,72.60870361328125, -41.318355560302734
468,2483271161,0.3739594,0.272036,-0.8679272,0.18125787,5.060947895050049,3.1744484901428223,0.9800429940223694,-48.40055847167969,101.14529418945312, -52.85224151611328
469,2483287828,0.39429668,0.272805,-0.8598269,0.17551751,5.410638809204102,1.563815712928772,0.7532817125320435,-60.13269805908203,130.08560180664062, -59.567718505859375
470,2483304495,0.4175955,0.27386948,-0.84934187,0.1709645,5.900295257568359,1.0634870529174805,0.36859646439552307,-54.980690002441406,155.92430114746094, -66.13937377929688
471,2483321162,0.4442197,0.27491084,-0.83626366,0.16660537,6.397955894470215,1.3655381202697754,-0.32852837443351746,-57.12340545654297,183.18202209472656, -74.23650360107422
472,2483337829,0.47396034,0.2757274,-0.82041705,0.16202724,7.057795524597168,1.4338068962097168,-0.8801169991493225,-61.78370666503906,209.4060821533203, -82.41036224365234
473,2483354496,0.5062752,0.27608147,-0.80175084,0.15703905,8.312572479248047,1.1559276580810547,-1.5212979316711426,-67.34163665771484,232.86456298828125, -89.3442611694336
474,2483371163,0.54048336,0.27609968,-0.780212,0.15138303,9.73607349395752,1.6712514162063599,-1.9018551111221313,-72.6856918334961,252.41107177734375, -97.30915832519531
475,2483387830,0.5761686,0.2754894,-0.7557596,0.14478806,11.109586715698242,1.869986653327942,-2.284580945968628,-79.83405303955078,270.05169677734375, -104.48762512207031
476,2483404497,0.613224,0.27440098,-0.7277779,0.13784255,12.912467002868652,2.1551785469055176,-2.4098715782165527,-82.63172912597656,290.9908752441406, -111.43607330322266
477,2483421164,0.6509426,0.27349293,-0.6958525,0.13139829,15.464852333068848,2.138105869293213,-2.8549957275390625,-76.88888549804688,311.7416687011719, -118.28726959228516
478,2483437831,0.6878518,0.2735135,-0.66040903,0.12614003,18.010896682739258,1.7291146516799927,-3.4390439987182617,-62.3588752746582,325.03692626953125, -123.30158233642578
479,2483454498,0.723216,0.27402535,-0.6221918,0.12143823,19.81665802001953,2.2669029235839844,-3.9076762199401855,-52.222023010253906,331.792236328125, -126.77850341796875
480,2483471165,0.7558879,0.2749895,-0.58252007,0.11698478,21.160429000854492,1.3238803148269653,-6.573300361633301,-42.64815902709961,327.6295471191406, -127.97527313232422
481,2483487832,0.78310806,0.2777287,-0.54497343,0.11230971,20.132038116455078,0.4588620960712433,-11.574785232543945,-25.748714447021484,292.92608642578125, -127.84786224365234
482,2483504499,0.80461985,0.28114912,-0.51237476,0.10495299,15.059253692626953,1.0125828981399536,-12.672370910644531,-25.11488914489746,239.29779052734375, -131.01748657226562
483,2483521166,0.8206314,0.28427547,-0.4860175,0.0976713,11.736419677734375,-3.2136635780334473,-13.00883674621582,-20.40738868713379,185.8101806640625, -113.55838012695312
484,2483537833,0.8299903,0.28863734,-0.46787685,0.09432173,9.193221092224121,-6.016544818878174,-15.567877769470215,7.1294732093811035,124.13467407226562, -75.02748107910156
485,2483554500,0.8333238,0.28907776,-0.46230808,0.09098219,6.102348327636719,-4.754702091217041,-17.517009735107422,-11.473503112792969,35.64701843261719, -33.57159423828125
486,2483571167,0.8316879,0.28199226,-0.47043473,0.086416855,4.509061336517334,-4.2682294845581055,-15.534356117248535,-57.24347686767578,-56.25877380371094, 13.600153923034668
487,2483587834,0.8241058,0.27315843,-0.48902598,0.08419329,8.437517166137695,-4.117733478546143,-14.256255149841309,-54.40917205810547,-129.6844940185547, 56.43750762939453
488,2483604501,0.81618744,0.27189663,-0.50242174,0.08650735,18.505571365356445,15.04410171508789,16.338212966918945,7.342253684997559,-97.15760803222656, 47.0809326171875
489,2483621168,0.8147873,0.25735447,-0.5136521,0.077798784,9.174605369567871,6.3354573249816895,13.003777503967285,-116.12499237060547,-75.24571990966797, 23.245807647705078
490,2483637835,0.8057682,0.25057214,-0.53128934,0.075390555,11.952509880065918,-10.157670974731445,-11.018965721130371,-40.303653717041016,-131.103515625, 46.59120559692383
491,2483654502,0.7950274,0.2480149,-0.54807353,0.077695996,19.10358238220215,0.4976482689380646,4.332212448120117,3.6794562339782715,-126.67378234863281, 56.607295989990234
492,2483671169,0.7840404,0.24506691,-0.56511587,0.07660215,10.505078315734863,-3.2215585708618164,-0.16997462511062622,-10.989654541015625,-134.60537719726562, 40.046932220458984
493,2483687836,0.77231157,0.2461295,-0.58037186,0.078260064,9.93099594116211,2.7861506938934326,-1.6160449981689453,23.501527786254883,-125.33140563964844, 36.6522331237793
494,2483704503,0.76207983,0.24634972,-0.59376,0.07743518,9.157893180847168,3.235006093978882,-3.619736433029175,7.583541393280029,-113.17627716064453, 22.87529945373535
495,2483721170,0.7532842,0.2450232,-0.6056205,0.075837925,11.205296516418457,1.2796990871429443,-1.590100646018982,-5.305763244628906,-99.77526092529297, 21.807153701782227
496,2483737837,0.74556494,0.24273232,-0.61632305,0.07321672,10.019400596618652,1.8044054508209229,-1.245922565460205,-15.780496597290039,-90.51182556152344, 18.010541915893555
497,2483754504,0.73822373,0.24126343,-0.62588596,0.071314685,10.043720245361328,1.3975799083709717,-1.1953834295272827,-8.580674171447754,-82.27806091308594, 16.12959861755371
498,2483771171,0.7310306,0.24163641,-0.6341652,0.07100441,10.492140769958496,0.8073814511299133,-1.297331690788269,8.000330924987793,-73.38884735107422, 14.085530281066895
499,2483787838,0.72369653,0.24417289,-0.6414715,0.07182118,10.40947151184082,1.5687462091445923,-1.2936739921569824,24.493505477905273,-68.29937744140625, 8.767359733581543
500,2483804505,0.7165602,0.24770007,-0.6479584,0.07305442,10.310713768005371,2.098066806793213,-1.1701730489730835,31.330638885498047,-63.14547348022461, 4.998937606811523
501,2483821172,0.71001554,0.25097468,-0.6537396,0.07426403,10.151917457580566,2.5065388679504395,-1.059226632118225,29.328548431396484,-56.9504508972168, 4.512710094451904
502,2483837839,0.70458966,0.25277415,-0.6588332,0.074821144,10.24427318572998,2.550459861755371,-0.9501103162765503,17.61820411682129,-48.94518280029297, 6.207393169403076
503,2483854506,0.7001446,0.25348622,-0.6632357,0.07524438,10.009151458740234,2.181668996810913,-1.2701711654663086,10.400468826293945,-40.83370590209961, 8.786347389221191
504,2483871173,0.6966975,0.25309592,-0.6670043,0.075242944,9.883649826049805,2.032104015350342,-1.4031739234924316,1.7496556043624878,-33.406681060791016, 10.153217315673828
505,2483887840,0.6942206,0.25157294,-0.67022765,0.07459723,9.755390167236328,1.9292651414871216,-1.576178789138794,-8.033039093017578,-26.884675979614258, 10.815824508666992
506,2483904507,0.69251186,0.24888065,-0.6731618,0.07307586,9.452982902526855,2.2595582008361816,-1.3295392990112305,-18.824796676635742,-22.88196563720703, 11.134961128234863
507,2483921174,0.6911152,0.24535696,-0.6761463,0.070617795,9.380592346191406,2.504411220550537,-1.2668570280075073,-27.67348289489746,-22.866275787353516, 10.460631370544434
508,2483937841,0.6898072,0.24215168,-0.6788671,0.0683296,9.463894844055176,2.205429792404175,-1.2313209772109985,-25.386760711669922,-21.073049545288086, 9.3092622756958
509,2483954508,0.6883204,0.2401413,-0.6812137,0.06705266,9.303688049316406,2.13712739944458,-1.0591847896575928,-14.521368026733398,-19.01392364501953, 7.995284557342529
510,2483971175,0.6865778,0.23928449,-0.6833012,0.06674041,9.29310131072998,2.334423065185547,-1.2030867338180542,-3.9964184761047363,-17.932178497314453, 6.853601932525635
511,2483987842,0.68464,0.23896657,-0.6853767,0.06650515,9.299336433410645,2.298884868621826,-1.130233645439148,-0.7582778334617615,-18.91856575012207, 4.7610039710998535
512,2484004509,0.6828629,0.23862568,-0.6872879,0.06627599,9.439343452453613,2.112978458404541,-0.8747693300247192,-1.0198731422424316,-17.374418258666992, 4.559929370880127
513,2484021176,0.68093395,0.23841242,-0.68926907,0.06631462,9.332921028137207,2.0952861309051514,-0.9608142971992493,1.068697452545166,-18.047740936279297, 5.402076244354248
514,2484037843,0.67838895,0.23819962,-0.6918602,0.06618202,9.35079574584961,2.167393445968628,-0.9578935503959656,0.9973030686378479,-24.111835479736328, 5.8831281661987305
515,2484054510,0.6751206,0.23791552,-0.6951762,0.06587371,9.409915924072266,2.1366031169891357,-0.9627668261528015,0.6904120445251465,-31.197736740112305, 6.924078464508057
516,2484071177,0.67121005,0.23773311,-0.6990267,0.0657494,9.581072807312012,1.9596662521362305,-1.0225611925125122,2.857450485229492,-36.50166320800781, 8.462075233459473
517,2484087844,0.66658497,0.23766306,-0.70344716,0.065908685,9.59596061706543,2.002739667892456,-0.9256236553192139,5.654752254486084,-42.162025451660156, 10.48927116394043
518,2484104511,0.6609806,0.23765758,-0.7086693,0.06642542,9.423215866088867,2.1551005840301514,-0.8820874094963074,8.923749923706055,-50.02729797363281, 13.573241233825684
519,2484121178,0.65444887,0.23732463,-0.71477413,0.06687839,9.473130226135254,2.407193183898926,-0.8358055949211121,8.244831085205078,-58.52143859863281, 16.75011444091797
520,2484137845,0.6469608,0.23665242,-0.7217376,0.067326784,9.678902626037598,2.3804523944854736,-0.9644127488136292,7.87083625793457,-66.9467544555664, 20.24486541748047
521,2484154512,0.63860416,0.2356243,-0.72941905,0.0679312,9.947354316711426,2.0306389331817627,-1.0001860857009888,8.151078224182129,-74.04241180419922, 24.282197952270508
522,2484171179,0.6291827,0.23441392,-0.7378448,0.06903231,10.216885566711426,2.14774227142334,-1.3097033500671387,11.229032516479492,-81.7720718383789, 29.08502197265625
523,2484187846,0.6186897,0.23308788,-0.74690217,0.07093332,10.630874633789062,2.656522274017334,-1.4806857109069824,16.22305679321289,-88.60731506347656, 34.66392135620117
524,2484204513,0.6073462,0.23203146,-0.75622815,0.07356636,11.163691520690918,2.1830148696899414,-1.7245789766311646,22.372814178466797,-93.08712005615234, 37.246185302734375
525,2484221180,0.5952517,0.23118737,-0.7657192,0.07683068,11.623119354248047,1.845697045326233,-1.6289865970611572,27.6661434173584,-96.79344177246094, 39.425968170166016
526,2484237847,0.58232147,0.22991024,-0.77556884,0.08085116,12.365715026855469,2.909588575363159,-1.3801615238189697,31.023235321044922,-101.24529266357422, 45.81455993652344
527,2484254514,0.567927,0.2285344,-0.78612363,0.08509758,12.734823226928711,2.836211919784546,-0.9618688821792603,33.77214050292969,-111.48397827148438, 49.181888580322266
528,2484271181,0.55205965,0.22719458,-0.79719764,0.089942,13.706354141235352,3.105133295059204,-0.2029118686914444,39.17509841918945,-120.57878112792969, 53.00653076171875
529,2484287848,0.5345524,0.22766769,-0.80822456,0.09589154,15.104846954345703,3.1089401245117188,0.2957287132740021,54.729393005371094,-128.81710815429688, 48.211490631103516
530,2484304515,0.515735,0.23175073,-0.81823796,0.103907324,17.00074005126953,2.022773265838623,1.962216854095459,82.2276611328125,-131.56150817871094, 35.02659225463867
531,2484321182,0.49582052,0.23905762,-0.8268785,0.11526698,17.837064743041992,1.956778645515442,3.8847389221191406,115.23079681396484,-129.90139770507812, 27.341455459594727
532,2484337849,0.4745364,0.24832791,-0.83431584,0.13063924,16.181806564331055,2.72969388961792,3.882267951965332,147.9798583984375,-128.6260528564453, 28.96605110168457
533,2484354516,0.45041454,0.26018167,-0.84089977,0.14940271,12.206326484680176,2.9642889499664307,1.2874926328659058,181.52072143554688,-138.72850036621094, 26.310060501098633
534,2484371183,0.4236454,0.266041,-0.8503541,0.16323535,11.088958740234375,-2.9028122425079346,-7.462244033813477,136.24974060058594,-165.63278198242188, 53.569923400878906
535,2484387850,0.40091455,0.26538458,-0.85884833,0.17668948,13.861555099487305,-0.41883566975593567,-6.912552356719971,108.71923065185547,-132.58941650390625, 84.27056121826172
536,2484404517,0.38267824,0.26247013,-0.8665944,0.1835271,12.542513847351074,2.8991875648498535,-5.098578929901123,56.12533187866211,-113.32138061523438, 72.53820037841797
537,2484421184,0.36647087,0.26034632,-0.8729893,0.18923478,10.598546981811523,3.7265572547912598,-3.9268486499786377,49.53855895996094,-100.73411560058594, 59.867523193359375
538,2484437851,0.35450372,0.25934386,-0.8778018,0.19113584,6.80034875869751,5.056009292602539,-0.8578983545303345,24.014034271240234,-79.58927917480469, 35.20730972290039
539,2484454518,0.35068414,0.25966406,-0.87923396,0.19116466,6.759018898010254,7.311070919036865,2.061056613922119,5.889278411865234,-27.27497673034668, 5.938314437866211
540,2484471185,0.35140452,0.26206186,-0.8781425,0.1915866,5.127329349517822,3.9848544597625732,0.7343535423278809,8.538778305053711,4.188020706176758, -16.127105712890625
541,2484487852,0.35670763,0.26615554,-0.87448376,0.19287273,5.97057580947876,3.4916610717773438,0.22926490008831024,13.007800102233887,37.3634147644043, -34.92947006225586
542,2484504519,0.36752152,0.27020276,-0.86890286,0.19216461,5.559906959533691,3.3749167919158936,1.013228416442871,-6.606437683105469,71.60749053955078, -50.3530158996582
543,2484521186,0.38301682,0.27376574,-0.8616515,0.1894956,5.156999111175537,2.089308023452759,1.835827112197876,-26.008975982666016,100.77776336669922, -61.69303512573242
544,2484537853,0.40273297,0.2772725,-0.851984,0.18721762,5.599113941192627,0.6626262068748474,1.4099457263946533,-28.62306785583496,132.94288635253906, -70.36833953857422
545,2484554520,0.42586043,0.2808921,-0.8398426,0.1854936,5.902883052825928,0.8011662364006042,0.7197880148887634,-28.376237869262695,160.6793212890625, -78.59832763671875
546,2484571187,0.4525973,0.28383708,-0.82547057,0.1821859,6.3185505867004395,1.2744704484939575,-0.0010833293199539185,-43.620391845703125,185.85459899902344, -88.24283599853516
547,2484587854,0.4831178,0.2853721,-0.80864614,0.17678356,6.996886730194092,1.1621522903442383,-0.43226128816604614,-64.20536041259766,212.64675903320312, -96.27565002441406
548,2484604521,0.51667774,0.28588837,-0.7888566,0.17034689,8.049625396728516,1.068759799003601,-0.7038257122039795,-75.70063018798828,238.61814880371094, -103.55208587646484
549,2484621188,0.5524822,0.28567407,-0.7657938,0.16344543,9.675407409667969,0.891595184803009,-1.2001006603240967,-81.39750671386719,262.3800048828125, -110.29680633544922
550,2484637855,0.59008396,0.28462988,-0.73920727,0.15607731,11.7791166305542,1.1314780712127686,-1.7034045457839966,-86.58042907714844,285.2671203613281, -116.63638305664062
551,2484654522,0.62943625,0.2826476,-0.70854086,0.14795646,13.522167205810547,1.7470916509628296,-2.171933174133301,-93.27702331542969,310.28411865234375, -124.78263854980469
552,2484671189,0.6696382,0.27988806,-0.67369115,0.13924254,16.630859375,1.6842283010482788,-2.9676637649536133,-96.93775177001953,332.20574951171875, -132.55447387695312
553,2484687856,0.7093148,0.27641395,-0.6352439,0.13012996,19.702388763427734,1.741439938545227,-3.5737247467041016,-97.64620971679688,346.2957763671875, -137.50259399414062
554,2484704523,0.74632734,0.27296317,-0.594623,0.12211124,21.742982864379883,1.1726560592651367,-5.8039445877075195,-85.76557922363281,347.3535461425781, -134.0186004638672
555,2484721190,0.7784466,0.27124366,-0.55426264,0.11507318,22.379098892211914,1.8516334295272827,-9.5020170211792,-63.95240783691406,326.42828369140625, -131.4856414794922
556,2484737857,0.80433387,0.2714219,-0.5175452,0.10735494,19.83625030517578,1.696703553199768,-13.278440475463867,-47.70084762573242,280.45904541015625, -130.65782165527344
557,2484754524,0.82361877,0.2749998,-0.4858133,0.10006849,13.906925201416016,-2.423978328704834,-16.416528701782227,-18.796140670776367,227.76976013183594, -126.22942352294922
558,2484771191,0.8348514,0.28334507,-0.46181822,0.09728175,9.349846839904785,-4.540293216705322,-16.910072326660156,33.047874450683594,162.37594604492188, -96.56876373291016
559,2484787858,0.83977824,0.2906254,-0.44837818,0.09626849,6.997405052185059,-4.1037421226501465,-17.242761611938477,37.70765686035156,86.0240249633789, -58.30580139160156
560,2484804525,0.839114,0.29220837,-0.4488857,0.094892494,4.319545269012451,-4.5484418869018555,-17.970081329345703,5.556045055389404,-8.604463577270508, -11.337390899658203
561,2484821192,0.8327381,0.2885036,-0.4632839,0.09317802,4.669908046722412,-3.9402365684509277,-16.132055282592773,-23.652957916259766,-103.5101089477539, 34.6105842590332
562,2484837859,0.8219059,0.28325662,-0.485477,0.09246293,11.867218017578125,0.8996469378471375,-8.196794509887695,-25.526247024536133,-159.2897491455078, 63.525630950927734
563,2484854526,0.8183409,0.2763409,-0.49595246,0.08936372,20.971664428710938,25.75635528564453,35.961544036865234,-49.657806396484375,-72.31948852539062, 28.161500930786133
564,2484871193,0.8176185,0.25162867,-0.51291996,0.07139505,4.247710227966309,-4.840954303741455,1.1247947216033936,-209.79954528808594,-116.64156341552734, 15.946625709533691
565,2484887860,0.808587,0.24088575,-0.5323726,0.06885973,15.36776351928711,-11.384632110595703,-12.038857460021973,-63.64944839477539,-140.06466674804688, 61.8011360168457
566,2484904527,0.7984607,0.2345578,-0.5503799,0.067276694,18.452028274536133,-0.3972312808036804,8.10224437713623,-33.19578552246094,-136.45968627929688, 48.93922805786133
567,2484921194,0.7874713,0.23028785,-0.5679661,0.065361634,10.137206077575684,-5.142117500305176,-2.287228584289551,-21.559429168701172,-138.92730712890625, 39.025779724121094
568,2484937861,0.7757308,0.2317245,-0.5832727,0.06587562,10.312676429748535,4.00026798248291,-0.6819366216659546,21.01176643371582,-128.21807861328125, 26.57683753967285
569,2484954528,0.76530427,0.23107722,-0.5972565,0.064798124,9.912351608276367,2.6975536346435547,-3.7272558212280273,2.012049674987793,-117.47502136230469, 23.766836166381836
570,2484971195,0.7559653,0.22779013,-0.6105475,0.062137417,10.577530860900879,3.516228675842285,-1.1926389932632446,-19.819440841674805,-110.67912292480469, 24.70742416381836
571,2484987862,0.7478024,0.22260907,-0.62277764,0.05818878,9.04465103149414,1.0349587202072144,-1.7714993953704834,-36.46028137207031,-101.42610168457031, 23.825258255004883
572,2485004529,0.739662,0.22088741,-0.63311404,0.057241257,10.29189682006836,0.8090800046920776,-2.1300082206726074,-5.110177516937256,-88.37606048583984, 21.54268455505371
573,2485021196,0.73202753,0.22058943,-0.6420742,0.05672362,10.609085083007812,0.7250818610191345,-1.5924639701843262,3.7690396308898926,-79.0737533569336, 15.243995666503906
574,2485037863,0.72454035,0.22282274,-0.64971375,0.05713132,10.830300331115723,0.20715656876564026,-1.7191202640533447,20.876995086669922,-71.36034393310547, 6.664228439331055
575,2485054530,0.71720135,0.22702524,-0.65623134,0.058678094,10.484485626220703,1.8017610311508179,-0.9595061540603638,35.98141098022461,-64.14002990722656, 1.7574807405471802
576,2485071197,0.7106825,0.2292682,-0.66248953,0.05894836,10.368351936340332,3.0496864318847656,-0.9095313549041748,19.382293701171875,-60.36979675292969, 3.5721449851989746
577,2485087864,0.7051925,0.22989249,-0.66810274,0.05909847,10.098464012145996,2.762331485748291,-1.450534701347351,9.572426795959473,-52.072540283203125, 8.93836498260498
578,2485104531,0.7003863,0.22963944,-0.67322004,0.059165157,9.788013458251953,2.244209051132202,-1.540763258934021,4.060357093811035,-46.30543899536133, 11.514021873474121
579,2485121198,0.69616425,0.22859901,-0.67796826,0.058803406,9.81888484954834,1.6875956058502197,-1.4464125633239746,-2.482860565185547,-42.18402862548828, 12.284016609191895
580,2485137865,0.69272786,0.22630945,-0.68235457,0.05749272,9.807001113891602,1.9017971754074097,-1.3490623235702515,-13.969304084777832,-37.77996826171875, 12.684097290039062
581,2485154532,0.6895328,0.22388168,-0.68649876,0.05605064,9.687994003295898,2.3819022178649902,-1.302719235420227,-15.51855754852295,-35.64860534667969, 12.241846084594727
582,2485171199,0.6863146,0.22211005,-0.6903581,0.055193514,9.558539390563965,2.3292603492736816,-1.4331376552581787,-9.494837760925293,-33.76568603515625, 11.499201774597168
583,2485187866,0.6831491,0.2209903,-0.6938773,0.05482551,9.377346992492676,2.175111770629883,-1.4144208431243896,-4.042019844055176,-31.415735244750977, 10.1826810836792
584,2485204533,0.6799315,0.22064437,-0.69712865,0.054970644,9.292671203613281,1.9645782709121704,-1.4877612590789795,2.227832078933716,-29.924579620361328, 8.521354675292969
585,2485221200,0.6766117,0.22097234,-0.70019525,0.05563488,9.224684715270996,2.0064361095428467,-1.5212105512619019,8.097066879272461,-29.024049758911133, 7.481693744659424
586,2485237867,0.6733465,0.22155839,-0.70308,0.056529135,9.323509216308594,1.9809775352478027,-1.4716767072677612,10.397746086120605,-27.67142105102539, 7.017332553863525
587,2485254534,0.6701516,0.22223021,-0.705806,0.057875007,9.299814224243164,2.121863842010498,-1.4287675619125366,12.9404296875,-25.950729370117188, 8.428840637207031
588,2485271201,0.6666819,0.22268467,-0.7088267,0.05926649,9.166934967041016,2.0676043033599854,-1.5547995567321777,12.471851348876953,-28.495046615600586, 10.2590970993042
589,2485287868,0.66284823,0.2229003,-0.7122579,0.060310163,9.380941390991211,2.028533458709717,-1.5429595708847046,10.079737663269043,-32.59330368041992, 10.611153602600098
590,2485304535,0.6584785,0.22306828,-0.71616185,0.06131749,9.486272811889648,1.896644115447998,-1.5449786186218262,10.31812858581543,-37.417510986328125, 11.631362915039062
591,2485321202,0.65367776,0.22319545,-0.7204309,0.062204767,9.606772422790527,1.781473159790039,-1.5665614604949951,10.05726146697998,-41.369407653808594, 12.035676956176758
592,2485337869,0.6481373,0.22349614,-0.7252337,0.06328133,9.473793029785156,1.9736994504928589,-1.368858814239502,12.689306259155273,-47.225101470947266, 13.166667938232422
593,2485354536,0.6418327,0.22359097,-0.7307038,0.06427135,9.583504676818848,2.032435894012451,-1.483769178390503,12.23465633392334,-54.063411712646484, 15.17160701751709
594,2485371203,0.6346905,0.22348037,-0.73685724,0.06532272,9.677088737487793,2.3378520011901855,-1.5214099884033203,12.63255500793457,-61.113494873046875, 17.901884078979492
595,2485387870,0.6265928,0.22294708,-0.74381465,0.06645886,9.8599853515625,2.1760292053222656,-1.2025548219680786,12.336664199829102,-69.15457153320312, 22.08688735961914
596,2485404537,0.6172705,0.22200036,-0.7517445,0.06763313,10.224198341369629,1.7203638553619385,-1.0597078800201416,12.195684432983398,-79.37319946289062, 26.423973083496094
597,2485421204,0.60678875,0.22006314,-0.7606984,0.06869102,10.749643325805664,1.9085094928741455,-1.20323646068573,8.699077606201172,-89.44708251953125, 33.15732955932617
598,2485437871,0.59496236,0.21779926,-0.7704995,0.07010617,11.249731063842773,2.3936610221862793,-1.493808388710022,10.85396671295166,-99.33833312988281, 38.2803840637207
599,2485454538,0.5817255,0.21541777,-0.7810155,0.07215612,12.00146770477295,2.3476779460906982,-1.19866943359375,15.517529487609863,-108.7459716796875, 43.26062774658203
600,2485471205,0.5668673,0.21311241,-0.79218036,0.07547046,13.256804466247559,3.1810824871063232,-0.9596102833747864,24.71497917175293,-118.23710632324219, 49.68148422241211
601,2485487872,0.54995936,0.21159065,-0.8040076,0.07966748,14.324091911315918,3.1965324878692627,-0.24810948967933655,35.263057708740234,-131.12863159179688, 50.899269104003906
602,2485504539,0.5312062,0.21116859,-0.816149,0.08443745,16.023357391357422,3.159332513809204,0.733191728591919,45.134403228759766,-142.32945251464844, 48.462806701660156
603,2485521206,0.5111331,0.21339224,-0.8276346,0.09071403,18.04222869873047,4.030930995941162,1.9255292415618896,65.58948516845703,-146.74746704101562, 38.93702697753906
604,2485537873,0.49089962,0.21909538,-0.83725953,0.1000602,19.41277313232422,2.9364230632781982,3.447007417678833,96.73135375976562,-138.8609619140625, 27.299203872680664
605,2485554540,0.469758,0.23052357,-0.84394807,0.118063,18.050222396850586,1.5278369188308716,3.413785934448242,169.3400421142578,-125.17529296875, 19.75992774963379
606,2485571207,0.44522628,0.24632066,-0.8488488,0.14337528,12.164731979370117,1.8438177108764648,-0.05726154148578644,232.75302124023438,-131.1374053955078, 17.939258575439453
607,2485587874,0.4173973,0.2529743,-0.85786116,0.16080664,10.637258529663086,-1.4368304014205933,-9.25275993347168,160.2923583984375,-167.3462371826172, 57.41242599487305
608,2485604541,0.39681023,0.25162873,-0.8653766,0.17420925,13.923779487609863,-0.3711419701576233,-6.2186126708984375,102.60572814941406,-118.46460723876953, 82.41636657714844
609,2485621208,0.38018662,0.24920933,-0.87186944,0.18220112,11.121675491333008,2.932647228240967,-4.746643543243408,61.84567642211914,-100.1849136352539, 67.52899169921875
610,2485637875,0.36517176,0.24747247,-0.8775931,0.18771866,9.237798690795898,4.337862968444824,-3.611867904663086,47.038002014160156,-93.64906311035156, 53.645381927490234
611,2485654542,0.35572904,0.24657443,-0.8814177,0.1891077,5.243239402770996,4.8236470222473145,-0.22064045071601868,17.24074935913086,-63.388248443603516, 27.811351776123047
612,2485671209,0.3534718,0.24730669,-0.8820039,0.18964994,5.228391647338867,6.805692195892334,2.3308560848236084,8.166919708251953,-15.502297401428223, 1.0405620336532593
613,2485687876,0.35639352,0.24954247,-0.88028574,0.18923533,4.0336713790893555,3.4758565425872803,0.764956533908844,0.273704469203949,17.877399444580078, -21.054401397705078
614,2485704543,0.36447087,0.2525234,-0.87635314,0.18814674,4.917578220367432,3.014472723007202,-0.16352930665016174,-7.915787220001221,52.36362075805664, -37.71127700805664
615,2485721210,0.37795967,0.2553485,-0.8706569,0.18412232,4.836318016052246,3.3826663494110107,1.0798513889312744,-33.08304977416992,84.4803237915039, -54.18085861206055
616,2485737877,0.39623788,0.25735795,-0.8633301,0.17726925,4.910137176513672,2.1298093795776367,1.1717920303344727,-58.4505615234375,113.43787384033203, -65.56489562988281
617,2485754544,0.41800416,0.2593249,-0.8538698,0.1700894,5.508450508117676,1.171621322631836,0.8455195426940918,-64.05804443359375,139.4151153564453, -74.22307586669922
618,2485771211,0.44299555,0.26155835,-0.8419099,0.16288331,5.899016380310059,1.155492901802063,0.0012118369340896606,-66.26152801513672,165.1660919189453, -84.08628845214844
619,2485787878,0.47145036,0.26346117,-0.8272501,0.15485814,6.519504547119141,1.1219326257705688,-0.6769869327545166,-75.20935821533203,192.3372039794922, -93.39396667480469
620,2485804545,0.5029055,0.2648987,-0.8096426,0.14626995,7.466342449188232,0.9561111330986023,-1.0224045515060425,-82.20960998535156,218.4427490234375, -101.09960174560547
621,2485821212,0.53660005,0.26622164,-0.78874725,0.13807696,8.997418403625488,0.8397391438484192,-1.407301902770996,-81.17412567138672,243.12596130371094, -107.32687377929688
622,2485837879,0.57163614,0.2672646,-0.76476276,0.13015719,10.646929740905762,0.7364544868469238,-1.9976881742477417,-80.24896240234375,262.57891845703125, -111.71871948242188
623,2485854546,0.60811746,0.26775688,-0.7372533,0.12230366,12.310235023498535,0.8982812166213989,-2.094332218170166,-81.5749740600586,284.6720886230469, -116.32575988769531
624,2485871213,0.64605534,0.26820838,-0.7052766,0.11516316,14.543632507324219,1.080052137374878,-2.537349224090576,-77.0698471069336,312.1171569824219, -122.5830078125
625,2485887880,0.6835552,0.26971096,-0.66929865,0.109766975,17.212106704711914,0.9058828949928284,-3.133685350418091,-59.98067855834961,330.18780517578125, -126.95901489257812
626,2485904547,0.71942127,0.27142012,-0.6306125,0.10532443,19.527055740356445,0.9568825960159302,-4.095871925354004,-49.574745178222656,337.04681396484375, -127.21819305419922
627,2485921214,0.752519,0.27352348,-0.5904072,0.101589635,20.95256996154785,1.130524754524231,-6.441420078277588,-38.334415435791016,333.6338195800781, -126.27010345458984
628,2485937881,0.78118294,0.2761979,-0.55136275,0.09730334,20.822668075561523,1.1837382316589355,-10.155335426330566,-30.151269912719727,308.23944091796875, -126.18869018554688
629,2485954548,0.80432135,0.27872503,-0.51696664,0.09014548,17.416378021240234,1.1116427183151245,-12.896883964538574,-34.534603118896484,257.036865234375, -128.57640075683594
630,2485971215,0.8215557,0.2810776,-0.48928028,0.0815321,12.618456840515137,-1.1991888284683228,-13.80597972869873,-33.61542510986328,196.35305786132812, -119.54149627685547
631,2485987882,0.832908,0.2837352,-0.46911854,0.075415984,10.26899242401123,-4.606612682342529,-14.483515739440918,-16.43611717224121,138.81246948242188, -88.69236755371094
632,2486004549,0.83870745,0.28376463,-0.45940575,0.07067291,7.772989749908447,-5.930931568145752,-17.296733856201172,-21.73813247680664,65.20550537109375, -49.190673828125
633,2486021216,0.8390296,0.27789155,-0.46312332,0.06575264,4.992771148681641,-4.878019332885742,-17.106382369995117,-52.27804946899414,-26.89896583557129, -2.81001615524292
634,2486037883,0.83371174,0.2681732,-0.47868246,0.06222619,6.48862886428833,-4.261323928833008,-14.974082946777344,-64.69951629638672,-108.65343475341797, 42.5826530456543
635,2486054550,0.8248787,0.2640517,-0.49570805,0.06423649,16.000900268554688,5.7780632972717285,4.5387797355651855,-8.631765365600586,-120.70182037353516, 60.04744338989258
636,2486071217,0.8244865,0.2517276,-0.5033898,0.05877874,13.371179580688477,15.063522338867188,25.34579086303711,-91.81432342529297,-48.85488510131836, 24.966350555419922
637,2486087884,0.8178766,0.24473782,-0.5178911,0.054510374,8.049097061157227,-10.144283294677734,-8.527395248413086,-49.33571243286133,-109.26121520996094, 27.700286865234375
638,2486104551,0.80779797,0.24476494,-0.53295714,0.059248153,16.67415428161621,-1.1677144765853882,-0.9790947437286377,27.748119354248047,-112.19546508789062, 55.49186325073242
639,2486121218,0.79843026,0.24190709,-0.5482504,0.058417156,13.786917686462402,-0.6235196590423584,2.5471298694610596,-10.01668643951416,-119.00923156738281, 35.16864776611328
640,2486137885,0.787883,0.24236263,-0.56295645,0.059850335,10.958266258239746,-0.7463405132293701,-1.873692512512207,18.888530731201172,-117.79205322265625, 34.57508850097656
641,2486154552,0.77784896,0.24425583,-0.5758145,0.06106555,9.650785446166992,4.245198726654053,-2.2538628578186035,25.7000732421875,-106.72124481201172, 24.510875701904297
642,2486171219,0.7690439,0.2449033,-0.5872861,0.060742613,9.942976951599121,2.576629400253296,-2.601755380630493,11.436400413513184,-96.47234344482422, 18.395877838134766
643,2486187886,0.7619983,0.24328068,-0.5972545,0.058829065,10.592238426208496,1.6538662910461426,-0.9718294739723206,-9.352485656738281,-83.1176528930664, 15.896601676940918
644,2486204553,0.7556985,0.24252537,-0.6056489,0.057372734,9.869841575622559,1.5828394889831543,-1.1325478553771973,-3.561819076538086,-71.37981414794922, 11.79857349395752
645,2486221220,0.7497034,0.24289149,-0.61295,0.056936882,9.924574851989746,2.09301495552063,-0.7692934274673462,6.420474052429199,-63.15777587890625, 10.489354133605957
646,2486237887,0.74405324,0.24445477,-0.61913425,0.057450473,10.123848915100098,1.3339227437973022,-0.8657757043838501,16.439390182495117,-54.823001861572266, 8.341365814208984
647,2486254554,0.73835826,0.24785075,-0.6244491,0.058833126,10.434070587158203,2.1379635334014893,-0.6263214945793152,29.91965675354004,-49.82492446899414, 3.5352542400360107
648,2486271221,0.732995,0.25134772,-0.6292276,0.060134914,10.030607223510742,2.7028982639312744,-0.42804765701293945,29.72626495361328,-45.856021881103516, 1.641362190246582
649,2486287888,0.7282894,0.25377,-0.63361067,0.061105806,10.137716293334961,2.7668066024780273,-0.49956631660461426,21.899892807006836,-41.146888732910156, 3.6729085445404053
650,2486304555,0.72435266,0.25513336,-0.6374992,0.06177338,10.068147659301758,2.552316427230835,-0.5250377058982849,14.139839172363281,-35.4058723449707, 5.587561130523682
651,2486321222,0.7212029,0.25575444,-0.6407634,0.06228261,9.874472618103027,2.4964818954467773,-0.7544589042663574,8.630002975463867,-28.81029510498047, 6.62754487991333
652,2486337889,0.7182253,0.25737593,-0.6433027,0.063816644,9.691136360168457,2.322816848754883,-1.0622789859771729,18.111291885375977,-23.081342697143555, 5.9559125900268555
653,2486354556,0.71527994,0.2599611,-0.64531535,0.06605994,9.56765079498291,2.4282033443450928,-0.8450678586959839,26.175708770751953,-19.50496482849121, 4.248785018920898
654,2486371223,0.7125683,0.26240417,-0.64711756,0.068048105,9.515558242797852,2.4895238876342773,-0.5558798313140869,24.019968032836914,-17.825162887573242, 3.141580820083618
655,2486387890,0.7100898,0.2641757,-0.6489599,0.06954042,9.56968879699707,2.5885508060455322,-0.49831146001815796,18.085172653198242,-17.56845474243164, 3.6644484996795654
656,2486404557,0.7076964,0.26542038,-0.6509383,0.07069728,9.30559253692627,2.5797977447509766,-0.5215616226196289,13.797989845275879,-18.213619232177734, 4.586750030517578
657,2486421224,0.7051093,0.2665329,-0.6531581,0.07187805,9.195257186889648,2.5457875728607178,-0.6188251376152039,13.500386238098145,-20.1513729095459, 5.8336567878723145
658,2486437891,0.70240474,0.26725248,-0.6556876,0.07265237,9.152718544006348,2.4589474201202393,-0.5512542724609375,9.834628105163574,-22.732784271240234, 6.259124279022217
659,2486454558,0.6996685,0.2673121,-0.6585552,0.07289915,9.355266571044922,2.444430112838745,-0.5230258703231812,4.162567138671875,-25.154216766357422, 7.331096649169922
660,2486471225,0.6968444,0.26656374,-0.661876,0.07261415,9.391019821166992,2.5649373531341553,-0.5578933358192444,-2.190930128097534,-28.31057357788086, 9.317500114440918
661,2486487892,0.6938477,0.26498127,-0.66572154,0.07194435,9.46483325958252,2.6418657302856445,-0.687117338180542,-7.875823974609375,-31.90525245666504, 12.330397605895996
662,2486504559,0.690647,0.26270586,-0.6700517,0.07088104,9.400649070739746,2.512509822845459,-0.649564266204834,-12.841052055358887,-35.531856536865234, 14.62384033203125
663,2486521226,0.68702567,0.26007357,-0.6749233,0.06954946,9.318009376525879,2.4736738204956055,-0.6890631914138794,-15.264923095703125,-40.35829162597656, 16.19388771057129
664,2486537893,0.68284273,0.25723758,-0.6803786,0.06812074,9.221421241760254,2.5550217628479004,-0.6343763470649719,-15.939789772033691,-45.80698776245117, 18.009937286376953
665,2486554560,0.6778726,0.2541125,-0.68664205,0.06662757,9.109156608581543,2.7584757804870605,-0.5530521273612976,-16.57118797302246,-53.272071838378906, 20.87779426574707
666,2486571227,0.6718529,0.25070277,-0.6939181,0.0651191,9.124767303466797,2.746551752090454,-0.4639011323451996,-16.582826614379883,-62.8557243347168, 24.424779891967773
667,2486587894,0.66463405,0.24723202,-0.70217377,0.06396209,9.3490571975708,2.699305772781372,-0.415312796831131,-13.537556648254395,-72.48300170898438, 28.589540481567383
668,2486604561,0.65592796,0.24379271,-0.7115623,0.06327403,9.530926704406738,2.373941659927368,-0.5976514220237732,-9.078238487243652,-84.07429504394531, 33.185367584228516
669,2486621228,0.6460908,0.24036932,-0.7216832,0.062957115,9.846590995788574,2.1138315200805664,-0.8933367729187012,-5.595353126525879,-92.31291198730469, 36.5223503112793
670,2486637895,0.63535804,0.23724073,-0.73213565,0.06336745,10.224198341369629,2.2695419788360596,-1.428359866142273,0.6794607639312744,-97.1737060546875, 39.24382019042969
671,2486654562,0.62385374,0.23455957,-0.7427054,0.06463733,10.75723648071289,2.305602550506592,-2.026231288909912,8.187278747558594,-100.37835693359375, 41.29231262207031
672,2486671229,0.6116328,0.23224851,-0.75336,0.06645066,11.08790397644043,1.908087968826294,-2.0004401206970215,13.685951232910156,-103.7024917602539, 42.205387115478516
673,2486687896,0.5985076,0.2305979,-0.76407456,0.069313005,11.799341201782227,1.7013399600982666,-1.8099284172058105,23.331466674804688,-107.28530883789062, 43.71747589111328
674,2486704563,0.58441377,0.22874466,-0.7751229,0.07295179,12.470033645629883,2.9450719356536865,-1.4898548126220703,27.97529411315918,-112.44567108154297, 48.97665023803711
675,2486721230,0.56891584,0.22717518,-0.7866612,0.076756485,12.875896453857422,2.4152119159698486,-1.082908034324646,31.997264862060547,-121.81354522705078, 49.624755859375
676,2486737897,0.55196464,0.22591884,-0.7985871,0.080965,14.221230506896973,3.046022415161133,-0.3334822654724121,37.51000213623047,-130.76934814453125, 50.89540100097656
677,2486754564,0.5335938,0.22684015,-0.8101788,0.08621256,16.2041072845459,2.737511396408081,0.589357852935791,53.920997619628906,-136.95816040039062, 43.16687774658203
678,2486771231,0.51405966,0.23114048,-0.82064563,0.09411861,17.87226104736328,2.1310033798217773,2.4289276599884033,83.66463470458984,-137.2530059814453, 33.03718566894531
679,2486787898,0.49370214,0.23797396,-0.82974225,0.10561814,18.190750122070312,2.0892317295074463,3.8835792541503906,115.15403747558594,-133.10333251953125, 29.795560836791992
680,2486804565,0.47222817,0.2480022,-0.8370205,0.122036524,15.650762557983398,2.7667338848114014,4.029242038726807,157.28546142578125,-127.71388244628906, 26.09679412841797
681,2486821232,0.44731745,0.26298702,-0.84255725,0.14437199,11.998263359069824,1.7179569005966187,0.6663975715637207,214.84161376953125,-136.04808044433594, 16.709461212158203
682,2486837899,0.4210383,0.26671037,-0.8523372,0.15847598,11.078572273254395,-3.3972599506378174,-8.79212474822998,130.79776000976562,-160.80307006835938, 65.68075561523438
683,2486854566,0.40125632,0.2645845,-0.86026055,0.17012113,12.387922286987305,0.3715556859970093,-6.736443519592285,89.50855255126953,-115.45667266845703, 82.34859466552734
684,2486871233,0.38620427,0.2603543,-0.86733,0.17550462,10.977090835571289,2.9145467281341553,-5.2520952224731445,39.06965637207031,-94.06709289550781, 70.44139862060547
685,2486887900,0.3729914,0.2569414,-0.87343025,0.17882712,9.448978424072266,3.809998035430908,-3.7556850910186768,26.871295928955078,-85.22900390625, 56.16071701049805
686,2486904567,0.36532855,0.2547312,-0.8773498,0.17862156,5.735484600067139,6.231142997741699,-0.079938143491745,1.7031453847885132,-54.05294418334961, 29.232004165649414
687,2486921234,0.36563805,0.25436267,-0.8775424,0.17756304,4.632822513580322,7.093670845031738,2.244029998779297,-8.125041961669922,-0.39780378341674805, -0.3097344636917114
688,2486937901,0.37032473,0.25623903,-0.8751565,0.17692722,4.366765022277832,3.925096035003662,0.7106541991233826,-4.349033355712891,30.440807342529297, -22.61752700805664
689,2486954568,0.37994927,0.25887173,-0.870183,0.17721961,5.287237167358398,3.19533371925354,0.11511638760566711,-2.3386664390563965,67.42704010009766, -35.353240966796875
690,2486971235,0.3944268,0.26115605,-0.8634015,0.175397,5.03756856918335,3.4956037998199463,1.0590143203735352,-22.295440673828125,97.82027435302734, -47.907562255859375
691,2486987902,0.41433984,0.26213357,-0.8548088,0.17003372,5.3948798179626465,1.9907894134521484,1.9213396310806274,-54.39141082763672,130.192626953125, -59.54113006591797
692,2487004569,0.43793535,0.2633299,-0.84337026,0.16612571,6.073500633239746,0.05438448488712311,1.186816930770874,-48.49618911743164,162.28048706054688, -66.10346984863281
693,2487021236,0.46425498,0.26535782,-0.829009,0.16369946,6.386555194854736,0.5299525260925293,0.3314385414123535,-38.98414611816406,188.59080505371094, -74.86294555664062
694,2487037903,0.4937064,0.2668015,-0.81207144,0.16003728,6.741547107696533,0.9757988452911377,-0.23778389394283295,-50.69880676269531,213.0632781982422, -83.69316101074219
