PacketCounter,SampleTimeFine,Quat_W,Quat_X,Quat_Y,Quat_Z,Acc_X,Acc_Y,Acc_Z,Gyr_X,Gyr_Y,Gyr_Z 
2,306709793,0.99711263,0.0029035576,-0.014800105,0.07442453,0.28422001004219055,0.016864802688360214,9.546704292297363,0.7023066878318787,0.5337622761726379, 1.5112709999084473
3,306726460,0.9970997,0.0028934649,-0.014667671,0.07462499,0.2854246199131012,0.03330322727560997,9.541511535644531,0.6424241662025452,0.5226847529411316, 1.4554224014282227
4,306743127,0.99709845,0.0029254858,-0.014572597,0.07465908,0.2899278700351715,0.0424521267414093,9.551881790161133,0.5860121250152588,0.5116969347000122, 1.4760663509368896
5,306759794,0.99709207,0.0030267916,-0.014500636,0.07475331,0.28434303402900696,0.043166838586330414,9.520779609680176,0.7045989632606506,0.5568008422851562, 1.4553455114364624
6,306776461,0.9970907,0.0031351051,-0.014437268,0.07477966,0.2930328845977783,0.0287920068949461,9.53453254699707,0.6618385910987854,0.5081623792648315, 1.5393937826156616
7,306793128,0.9970874,0.0032194771,-0.0144005995,0.07482684,0.2884235680103302,0.03847834840416908,9.544007301330566,0.6667049527168274,0.452121764421463, 1.4880785942077637
8,306809795,0.99708474,0.0032937462,-0.014360005,0.07486683,0.29718729853630066,0.019573887810111046,9.533638000488281,0.6009699702262878,0.4789639115333557, 1.466205358505249
9,306826462,0.9970825,0.003357755,-0.014321509,0.07490293,0.28878581523895264,0.03134280815720558,9.530373573303223,0.6896411776542664,0.5314443707466125, 1.549177885055542
10,306843129,0.99707454,0.0034200202,-0.014299295,0.07500956,0.29059797525405884,0.03451024740934372,9.541539192199707,0.6654627323150635,0.38990849256515503, 1.4423984289169312
11,306859796,0.9970717,0.0034864212,-0.0142554045,0.075052045,0.2837398946285248,0.04391332343220711,9.552370071411133,0.701205313205719,0.5235940217971802, 1.5082614421844482
12,306876463,0.9970632,0.0035562434,-0.014210864,0.075170346,0.2852257490158081,0.029181966558098793,9.523757934570312,0.6690229177474976,0.48110246658325195, 1.4629011154174805
13,306893130,0.99705726,0.0036161046,-0.014161292,0.0752549,0.29239529371261597,0.03728118911385536,9.54040813446045,0.6337542533874512,0.5013878345489502, 1.5150104761123657
14,306909797,0.99705404,0.0036790974,-0.014111701,0.07530444,0.30906423926353455,0.026770787313580513,9.514573097229004,0.6498903036117554,0.5066768527030945, 1.4916261434555054
15,306926464,0.99705595,0.0037361572,-0.014080156,0.07528082,0.28372713923454285,0.030693087726831436,9.53095531463623,0.628567636013031,0.43581926822662354, 1.4586751461029053
16,306943131,0.9970481,0.0038024595,-0.014051852,0.075387895,0.29234737157821655,0.03349077329039574,9.556746482849121,0.6850181221961975,0.3779986500740051, 1.5100032091140747
17,306959798,0.997046,0.003863439,-0.014008118,0.07542053,0.29012763500213623,0.045698344707489014,9.551478385925293,0.6630295515060425,0.48211434483528137, 1.5280729532241821
18,306976465,0.9970376,0.0039307196,-0.013960367,0.07553662,0.29590389132499695,0.03402390331029892,9.534994125366211,0.6767836809158325,0.49530482292175293, 1.5089147090911865
19,306993132,0.99702936,0.003998598,-0.013915534,0.075650506,0.2960667908191681,0.030922964215278625,9.53237533569336,0.6827001571655273,0.4774143397808075, 1.5414941310882568
20,307009799,0.9970209,0.004063773,-0.013872705,0.07576758,0.29277503490448,0.03968315199017525,9.540404319763184,0.6669226884841919,0.4656197130680084, 1.4675372838974
21,307026466,0.9970133,0.004134743,-0.013826583,0.075871274,0.293340265750885,0.04636313393712044,9.533754348754883,0.7037666440010071,0.4810769557952881, 1.480446219444275
22,307043133,0.9970047,0.004210336,-0.013780404,0.075989164,0.29708239436149597,0.03570714592933655,9.559826850891113,0.7205556631088257,0.4752628803253174, 1.4327168464660645
23,307059800,0.99699473,0.004275466,-0.0137283765,0.07612422,0.2896190583705902,0.04578554257750511,9.543140411376953,0.6547951698303223,0.521071195602417, 1.5126285552978516
24,307076467,0.996988,0.00434373,-0.013685083,0.07621611,0.2919518053531647,0.029811503365635872,9.526399612426758,0.6679088473320007,0.4533896744251251, 1.4999117851257324
25,307093134,0.99697995,0.004413607,-0.013635542,0.076326475,0.28374379873275757,0.023879049345850945,9.54283332824707,0.6887959837913513,0.4915653467178345, 1.505200743675232
26,307109801,0.9969784,0.0044789743,-0.0135870995,0.07635213,0.2996777296066284,0.04115169867873192,9.540324211120605,0.6777440905570984,0.47861814498901367, 1.5351420640945435
27,307126468,0.9969672,0.0045392425,-0.01353126,0.07650352,0.2771735191345215,0.031179482117295265,9.535445213317871,0.6307191252708435,0.5324689149856567, 1.5180712938308716
28,307143135,0.99696314,0.0046096644,-0.013485937,0.07656092,0.28930366039276123,0.041199274361133575,9.526461601257324,0.7064046263694763,0.44441232085227966, 1.4645020961761475
29,307159802,0.99695927,0.004669615,-0.013432436,0.07661695,0.28795215487480164,0.03265614062547684,9.533806800842285,0.6374552845954895,0.503936231136322, 1.5113860368728638
30,307176469,0.9969557,0.0047344193,-0.013378254,0.07666892,0.27857261896133423,0.028832562267780304,9.520541191101074,0.6746192574501038,0.5032446980476379, 1.5216823816299438
31,307193136,0.99694866,0.0048043225,-0.013333717,0.07676408,0.29132089018821716,0.041938457638025284,9.561124801635742,0.7033440470695496,0.42545899748802185, 1.4676270484924316
32,307209803,0.9969405,0.004873306,-0.013272803,0.076876506,0.27581244707107544,0.04321194812655449,9.529071807861328,0.7009620070457458,0.5373865365982056, 1.4517215490341187
33,307226470,0.99693763,0.0049445005,-0.01321474,0.07691841,0.2933471202850342,0.026005612686276436,9.54060173034668,0.7155995965003967,0.5105699300765991, 1.3501925468444824
34,307243137,0.99693257,0.0050063706,-0.013162843,0.076988526,0.29302000999450684,0.03646751493215561,9.534026145935059,0.6533607840538025,0.4748402535915375, 1.4210118055343628
35,307259804,0.99692863,0.0050664283,-0.013105489,0.07704577,0.28846442699432373,0.04340839385986328,9.532917022705078,0.6458305716514587,0.5152314305305481, 1.4343816041946411
36,307276471,0.99691856,0.0051268884,-0.0130534535,0.077180825,0.28267428278923035,0.035433586686849594,9.541001319885254,0.6371607780456543,0.47613367438316345, 1.466525673866272
37,307293138,0.9969192,0.005192981,-0.013006996,0.07717487,0.28612783551216125,0.04832882434129715,9.536015510559082,0.6885782480239868,0.43697190284729004, 1.5285468101501465
38,307309805,0.99691343,0.005249473,-0.012960323,0.07725487,0.28389328718185425,0.03883839026093483,9.509769439697266,0.6105875372886658,0.44003257155418396, 1.4987976551055908
39,307326472,0.99690616,0.005310104,-0.012897622,0.077354394,0.30011388659477234,0.02629494108259678,9.53907299041748,0.6476619839668274,0.5463253259658813, 1.563661813735962
40,307343139,0.996904,0.0053686667,-0.012847094,0.077386566,0.29462578892707825,0.028675440698862076,9.5454683303833,0.6358033418655396,0.4695512354373932, 1.4996428489685059
41,307359806,0.99689674,0.0054291026,-0.012798645,0.07748419,0.2918544113636017,0.03681238740682602,9.550287246704102,0.6452414989471436,0.45429882407188416, 1.5106817483901978
42,307376473,0.9968946,0.0054924586,-0.012750302,0.0775154,0.2816064953804016,0.036238256841897964,9.53061580657959,0.6695095300674438,0.45429888367652893, 1.425071358680725
43,307393140,0.99689275,0.0055646603,-0.0126976585,0.077543594,0.2781989872455597,0.03828898072242737,9.540285110473633,0.7343993186950684,0.47765758633613586, 1.4574329853057861
44,307409807,0.9968883,0.005635026,-0.012643501,0.07760268,0.28294163942337036,0.02774769626557827,9.543479919433594,0.7205172777175903,0.48543110489845276, 1.4660006761550903
45,307426474,0.99688005,0.005697507,-0.012589668,0.07771313,0.28446659445762634,0.028829975053668022,9.52347469329834,0.665526807308197,0.48511093854904175, 1.4908961057662964
46,307443141,0.9968759,0.0057638544,-0.0125391595,0.07776895,0.281650185585022,0.033204954117536545,9.538067817687988,0.6976195573806763,0.46176502108573914, 1.481445074081421
47,307459808,0.9968728,0.0058220983,-0.012485096,0.07781348,0.28440240025520325,0.03317602351307869,9.525566101074219,0.6481229662895203,0.49052801728248596, 1.5394963026046753
48,307476475,0.9968661,0.005894544,-0.012432726,0.07790266,0.2779760956764221,0.04412011429667473,9.546297073364258,0.7422624230384827,0.4699481725692749, 1.5423519611358643
49,307493142,0.99685836,0.005953184,-0.012386745,0.078005314,0.2895088791847229,0.02138042077422142,9.535483360290527,0.6411178708076477,0.4311833679676056, 1.4963258504867554
50,307509809,0.9968518,0.0060125943,-0.012337611,0.07809207,0.2976181209087372,0.04190939664840698,9.530336380004883,0.6528997421264648,0.45406830310821533, 1.4635417461395264
51,307526476,0.99684733,0.006071541,-0.012278599,0.078153454,0.28262266516685486,0.041321270167827606,9.534256935119629,0.6583937406539917,0.5265011191368103, 1.5128207206726074
52,307543143,0.99684125,0.0061248676,-0.0122305555,0.07823287,0.28804489970207214,0.020840108394622803,9.527305603027344,0.6119449734687805,0.45345360040664673, 1.492138147354126
53,307559810,0.99683416,0.0061800084,-0.012174254,0.07832807,0.298597514629364,0.036017414182424545,9.549003601074219,0.6315131783485413,0.5095454454421997, 1.4856711626052856
54,307576477,0.99682707,0.006238818,-0.0121191265,0.07842278,0.2955041527748108,0.03767558932304382,9.545951843261719,0.6581247448921204,0.5029501914978027, 1.5200306177139282
55,307593144,0.99682075,0.0062961085,-0.012063751,0.07850691,0.29233527183532715,0.033999282866716385,9.538065910339355,0.6497365236282349,0.5083032250404358, 1.5214134454727173
56,307609811,0.99681437,0.0063592726,-0.012002804,0.07859329,0.2950889468193054,0.03665180131793022,9.534895896911621,0.6933550238609314,0.544570803642273, 1.4744783639907837
57,307626478,0.99680823,0.006417009,-0.01195647,0.07867183,0.2997511923313141,0.03404207155108452,9.542596817016602,0.6497685313224792,0.44977179169654846, 1.4581308364868164
58,307643145,0.9968012,0.006475984,-0.011911808,0.07876349,0.28953054547309875,0.038310471922159195,9.555516242980957,0.6582527756690979,0.44023746252059937, 1.4639257192611694
59,307659812,0.996793,0.0065418277,-0.011858638,0.07887019,0.2897970676422119,0.02751375362277031,9.541666984558105,0.7107716798782349,0.49591943621635437, 1.4992074966430664
60,307676479,0.9967879,0.0066017546,-0.011808339,0.07893689,0.29344362020492554,0.030103934928774834,9.53119945526123,0.6753621101379395,0.4827033579349518, 1.5163295269012451
61,307693146,0.99678177,0.0066660056,-0.011760856,0.07901574,0.284431129693985,0.03374643623828888,9.543143272399902,0.7034977078437805,0.461905837059021, 1.4554994106292725
62,307709813,0.9967763,0.006721812,-0.011711954,0.07908726,0.286946177482605,0.025296084582805634,9.56102180480957,0.64955735206604,0.477491170167923, 1.4760279655456543
63,307726480,0.99677247,0.0067796456,-0.011665201,0.07913701,0.28870609402656555,0.0372915081679821,9.544950485229492,0.6692534685134888,0.4645823836326599, 1.55144464969635
64,307743147,0.99676645,0.006837189,-0.011616368,0.07921509,0.282759428024292,0.0372406505048275,9.53911304473877,0.6658598184585571,0.47840043902397156, 1.4763480424880981
65,307759814,0.9967614,0.0069010244,-0.011574109,0.079280205,0.2938671112060547,0.029390849173069,9.530389785766602,0.7081079483032227,0.4311961829662323, 1.472519040107727
66,307776481,0.99675584,0.0069604428,-0.011523772,0.07935182,0.2988571524620056,0.042233094573020935,9.529411315917969,0.6848131418228149,0.4911939203739166, 1.483391523361206
67,307793148,0.9967512,0.00702383,-0.011477494,0.0794122,0.2847418785095215,0.03711829334497452,9.537917137145996,0.7112583518028259,0.46435192227363586, 1.4544365406036377
68,307809815,0.99674463,0.0070790104,-0.0114351455,0.079494126,0.28657814860343933,0.038881879299879074,9.54086685180664,0.6547566652297974,0.44297802448272705, 1.5219897031784058
69,307826482,0.99674046,0.0071430546,-0.011391453,0.07954708,0.2825441062450409,0.03296550735831261,9.531197547912598,0.7193006277084351,0.4494580328464508, 1.470815658569336
70,307843149,0.99673533,0.00719533,-0.011347863,0.07961253,0.28704312443733215,0.03520665690302849,9.536458015441895,0.6409770846366882,0.45614299178123474, 1.501320481300354
71,307859816,0.99672884,0.0072471653,-0.01131053,0.07969472,0.28930336236953735,0.03730266913771629,9.5444917678833,0.6365332007408142,0.41484248638153076, 1.5357694625854492
72,307876483,0.9967241,0.007288935,-0.011274073,0.079754606,0.2880089282989502,0.03587982803583145,9.540447235107422,0.5689796209335327,0.41616150736808777, 1.4421805143356323
73,307893150,0.9967174,0.007345373,-0.011224825,0.07984143,0.2869662344455719,0.02604539506137371,9.523760795593262,0.678512454032898,0.49726417660713196, 1.5066863298416138
74,307909817,0.99671036,0.007403265,-0.011182395,0.07992958,0.3022570312023163,0.03802746906876564,9.53246021270752,0.6888728141784668,0.4518401324748993, 1.5307624340057373
75,307926484,0.9967068,0.0074613425,-0.011148512,0.079973444,0.29222121834754944,0.041017863899469376,9.517789840698242,0.6885398030281067,0.3971313238143921, 1.4065663814544678
76,307943151,0.996701,0.0075237434,-0.0110979425,0.08004596,0.29140543937683105,0.027639558538794518,9.532620429992676,0.7284956574440002,0.5110310316085815, 1.4592260122299194
77,307959818,0.99669653,0.0075737583,-0.011053505,0.08010271,0.28076493740081787,0.04805813729763031,9.544672966003418,0.644844651222229,0.4787462055683136, 1.4440761804580688
78,307976485,0.99669284,0.007630448,-0.0110026095,0.080152,0.28507131338119507,0.04241381585597992,9.54333782196045,0.6953527331352234,0.5204179286956787, 1.3975504636764526
79,307993152,0.99668735,0.0076829353,-0.010962763,0.080219276,0.2885330319404602,0.022726228460669518,9.540733337402344,0.6637595295906067,0.4493940770626068, 1.499335527420044
80,308009819,0.9966821,0.007737274,-0.010908646,0.08028694,0.289781779050827,0.04142202064394951,9.52299690246582,0.688386082649231,0.5482845902442932, 1.484556794166565
81,308026486,0.9966762,0.007786224,-0.010858544,0.08036244,0.2968219518661499,0.04018992558121681,9.549613952636719,0.6523875594139099,0.5265651941299438, 1.5357184410095215
82,308043153,0.9966711,0.007835954,-0.010802469,0.080428466,0.2954930067062378,0.040178332477808,9.538586616516113,0.6637980341911316,0.5702347755432129, 1.4993354082107544
83,308059820,0.9966666,0.007883803,-0.010755385,0.08048605,0.28974899649620056,0.028330933302640915,9.552830696105957,0.6484687328338623,0.5126062035560608, 1.4554352760314941
84,308076487,0.99666184,0.007940729,-0.010709235,0.080545925,0.30330726504325867,0.03534568101167679,9.53549575805664,0.7144215106964111,0.50388503074646, 1.4691123962402344
85,308093154,0.99665827,0.0079856245,-0.0106718475,0.08058935,0.2923119366168976,0.03185616806149483,9.535991668701172,0.6318973302841187,0.4552977979183197, 1.4693942070007324
86,308109821,0.9966548,0.008032267,-0.010629344,0.08063319,0.2801766097545624,0.028812188655138016,9.53808879852295,0.6497365832328796,0.49180862307548523, 1.4318715333938599
87,308126488,0.99665034,0.008078911,-0.010590307,0.08068911,0.2886779308319092,0.030280662700533867,9.542407035827637,0.6521057486534119,0.4699738919734955, 1.4756053686141968
88,308143155,0.9966457,0.008128822,-0.010544102,0.0807473,0.27202802896499634,0.02971632592380047,9.542217254638672,0.6838399171829224,0.5208278894424438, 1.5375752449035645
89,308159822,0.99664104,0.008175189,-0.010496717,0.080806606,0.2910919189453125,0.026691405102610588,9.527081489562988,0.6639004349708557,0.5318285822868347, 1.5181735754013062
90,308176489,0.9966364,0.008214604,-0.010460739,0.08086488,0.2721768319606781,0.025613434612751007,9.546440124511719,0.6143014430999756,0.4605099856853485, 1.5083255767822266
91,308193156,0.99663144,0.00826792,-0.010416486,0.08092604,0.2910839021205902,0.026909731328487396,9.552950859069824,0.7184426784515381,0.5106980800628662, 1.4985543489456177
92,308209823,0.99662733,0.008309714,-0.010368294,0.080978535,0.28127580881118774,0.025112580507993698,9.539158821105957,0.6467399597167969,0.5476316213607788, 1.4908705949783325
93,308226490,0.99662226,0.0083497185,-0.010335602,0.08104048,0.2889452874660492,0.035384129732847214,9.544015884399414,0.6292336583137512,0.4437848627567291, 1.4579837322235107
94,308243157,0.99661887,0.008386352,-0.01029687,0.0810837,0.2832253575325012,0.0482306107878685,9.534854888916016,0.6144934892654419,0.49092501401901245, 1.4419373273849487
95,308259824,0.99661547,0.008426685,-0.010258703,0.08112654,0.29397210478782654,0.031380604952573776,9.543198585510254,0.642833948135376,0.4879155158996582, 1.4560500383377075
96,308276491,0.9966109,0.008464962,-0.010228664,0.08118283,0.2849788963794708,0.027087388560175896,9.548078536987305,0.6281450390815735,0.4365876317024231, 1.4794855117797852
97,308293158,0.9966053,0.008509815,-0.010200293,0.081250146,0.28690874576568604,0.0418815016746521,9.53867244720459,0.6781411170959473,0.4251132309436798, 1.5654035806655884
98,308309825,0.9966007,0.008558621,-0.010151567,0.081307605,0.2919551730155945,0.03663579374551773,9.545419692993164,0.7200178503990173,0.5653427243232727, 1.5183145999908447
99,308326492,0.99659586,0.008591481,-0.010103098,0.08136977,0.2806248962879181,0.030823927372694016,9.522736549377441,0.6151851415634155,0.5763562321662903, 1.556605577468872
100,308343159,0.9965915,0.008633574,-0.010068656,0.08142183,0.28166553378105164,0.030940577387809753,9.521020889282227,0.674145519733429,0.4769788980484009, 1.4709439277648926
101,308359826,0.9965885,0.008665847,-0.010034696,0.081459984,0.28989750146865845,0.0332091748714447,9.513426780700684,0.6123419404029846,0.4828697144985199, 1.4749647378921509
102,308376493,0.99658513,0.008715812,-0.010001009,0.08149898,0.2852172255516052,0.029059026390314102,9.540361404418945,0.7377418875694275,0.47452008724212646, 1.4669994115829468
103,308393160,0.9965808,0.008763968,-0.009973919,0.08155061,0.29607948660850525,0.04082183912396431,9.516488075256348,0.7259343862533569,0.4329635202884674, 1.4777823686599731
104,308409827,0.99657726,0.0088043045,-0.0099363625,0.08159421,0.2985260486602783,0.037377264350652695,9.538871765136719,0.6828153729438782,0.5136691331863403, 1.4783331155776978
105,308426494,0.9965734,0.008838264,-0.009903132,0.081642024,0.2913236916065216,0.03848033398389816,9.543373107910156,0.640669584274292,0.49151408672332764, 1.47209632396698
106,308443161,0.99657106,0.008872356,-0.009876488,0.08167073,0.29097452759742737,0.030881846323609352,9.549620628356934,0.6417965888977051,0.4497397840023041, 1.3872926235198975
107,308459828,0.99656695,0.008907941,-0.00984047,0.081720926,0.2886680066585541,0.0362335629761219,9.555009841918945,0.6633113622665405,0.5175879001617432, 1.5079542398452759
108,308476495,0.9965626,0.008939762,-0.009805172,0.08177482,0.2866976261138916,0.032497942447662354,9.522953033447266,0.6421680450439453,0.5186764001846313, 1.5430948734283447
109,308493162,0.99655926,0.008962499,-0.009783788,0.081815615,0.2873029410839081,0.03303674980998039,9.549193382263184,0.5763689875602722,0.43136271834373474, 1.4674346446990967
110,308509829,0.99655634,0.009004699,-0.009760559,0.08184923,0.2817939519882202,0.03710285946726799,9.536170959472656,0.7157148122787476,0.4366132616996765, 1.4433842897415161
111,308526496,0.9965534,0.009039599,-0.009720151,0.08188571,0.2827858328819275,0.0358109213411808,9.525629997253418,0.6803309321403503,0.5618466138839722, 1.4690996408462524
112,308543163,0.99654955,0.009067243,-0.00968723,0.08193428,0.28490176796913147,0.038702595978975296,9.543025016784668,0.6325376033782959,0.5190221071243286, 1.579759120941162
113,308559830,0.99654675,0.009107119,-0.009665126,0.081965946,0.293557733297348,0.026970164850354195,9.53323745727539,0.713294506072998,0.4401606321334839, 1.4457151889801025
114,308576497,0.996543,0.0091292355,-0.009641369,0.08201064,0.28626886010169983,0.03767139092087746,9.532317161560059,0.5995741486549377,0.46687471866607666, 1.5674397945404053
115,308593164,0.9965408,0.009156891,-0.009612704,0.08203842,0.2878246009349823,0.046549782156944275,9.53465461730957,0.6435767412185669,0.4997742176055908, 1.4396963119506836
116,308609831,0.9965395,0.009181329,-0.009591315,0.08205443,0.2771610617637634,0.023054514080286026,9.536194801330566,0.6219723224639893,0.45596370100975037, 1.428682804107666
117,308626498,0.99653554,0.009202621,-0.009566091,0.082103476,0.2796078622341156,0.035833604633808136,9.548381805419922,0.6094350218772888,0.4876337945461273, 1.5870332717895508
118,308643165,0.9965333,0.009231238,-0.009545044,0.08212946,0.2912569046020508,0.04240132495760918,9.534544944763184,0.6616848707199097,0.45757731795310974, 1.4833147525787354
119,308659832,0.9973209,0.0029126205,-0.015006651,0.07153616,0.28351446986198425,0.032774489372968674,9.526101112365723,0.6375961899757385,0.455810010433197, 1.573919653892517
120,308676499,0.9973203,0.0029158753,-0.0150118,0.07154317,0.29564905166625977,0.03603169694542885,9.548375129699707,0.6803436875343323,0.4412619173526764, 1.4552687406539917
121,308693166,0.9973185,0.0029071039,-0.014998886,0.07157045,0.28331440687179565,0.04640462249517441,9.554861068725586,0.6064639687538147,0.5713104605674744, 1.5134481191635132
122,308709833,0.99731743,0.0029172217,-0.014996375,0.071587004,0.2871190011501312,0.023024847730994225,9.542228698730469,0.7313770651817322,0.4906689524650574, 1.4989513158798218
123,308726500,0.99731624,0.0029168222,-0.015006512,0.07160136,0.2839468717575073,0.03843046724796295,9.543408393859863,0.6540138721466064,0.4091821312904358, 1.511783242225647
124,308743167,0.99731493,0.0029149482,-0.015010433,0.0716185,0.2971002757549286,0.038212042301893234,9.539040565490723,0.6469703912734985,0.45250600576400757, 1.5214136838912964
125,308759834,0.99731296,0.0029125765,-0.015014101,0.071644805,0.2850554287433624,0.02985396608710289,9.53258228302002,0.6411178708076477,0.454529345035553, 1.469099521636963
126,308776501,0.99731123,0.0029260672,-0.015012981,0.07166823,0.28506800532341003,0.047180742025375366,9.540904998779297,0.755414605140686,0.4798603951931, 1.5540571212768555
127,308793168,0.997309,0.0029325483,-0.015009776,0.07170119,0.2968536913394928,0.03212586045265198,9.547884941101074,0.7073395848274231,0.4975202679634094, 1.561523199081421
128,308809835,0.9973071,0.002936776,-0.015014848,0.07172544,0.29293352365493774,0.053004346787929535,9.532514572143555,0.6879379153251648,0.4420943856239319, 1.530967116355896
129,308826502,0.9973058,0.0029349697,-0.015011923,0.0717442,0.2911706566810608,0.03375079482793808,9.534256935119629,0.6500183343887329,0.5000815987586975, 1.5094141960144043
130,308843169,0.99730444,0.0029382491,-0.014999799,0.07176608,0.28834083676338196,0.029739854857325554,9.53895092010498,0.6889367699623108,0.5607196092605591, 1.497734546661377
131,308859836,0.9973028,0.0029505482,-0.015006354,0.07178721,0.29456374049186707,0.029924051836133003,9.547014236450195,0.742121696472168,0.4282635748386383, 1.5058540105819702
132,308876503,0.9973019,0.0029511363,-0.015005511,0.07179906,0.2854870855808258,0.034250982105731964,9.532454490661621,0.664796769618988,0.4848548173904419, 1.4452669620513916
133,308893170,0.997301,0.002959706,-0.015003386,0.07181314,0.2962847650051117,0.041918858885765076,9.536834716796875,0.7201203107833862,0.4896828532218933, 1.4473673105239868
134,308909837,0.9972988,0.002971912,-0.015000961,0.071843,0.2847253084182739,0.037794433534145355,9.544868469238281,0.7465910911560059,0.4903487265110016, 1.5502278804779053
135,308926504,0.997298,0.0029703374,-0.014998688,0.07185442,0.2859620451927185,0.03714751452207565,9.534929275512695,0.6511196494102478,0.4959450662136078, 1.457919716835022
136,308943171,0.99729764,0.002960349,-0.014992385,0.07186064,0.2807835340499878,0.04183095321059227,9.528275489807129,0.5961163640022278,0.5278072953224182, 1.4611597061157227
137,308959838,0.997297,0.0029640084,-0.014988822,0.07187078,0.2873245179653168,0.03566595911979675,9.515310287475586,0.6876946687698364,0.502092182636261, 1.454474925994873
138,308976505,0.9972962,0.0029705425,-0.01498879,0.07188117,0.2899552285671234,0.029554827138781548,9.531228065490723,0.705930769443512,0.47651785612106323, 1.462209701538086
139,308993172,0.99729455,0.0029704913,-0.015000375,0.07190144,0.29440250992774963,0.018196504563093185,9.547440528869629,0.6552432775497437,0.4001920223236084, 1.4978114366531372
140,309009839,0.9972936,0.002971688,-0.014996736,0.07191509,0.2853257358074188,0.034227024763822556,9.542733192443848,0.671622633934021,0.5041283965110779, 1.4688948392868042
141,309026506,0.99729353,0.0029663562,-0.014999204,0.071915254,0.2899101972579956,0.034713491797447205,9.518942832946777,0.6260704398155212,0.4656837582588196, 1.4945203065872192
142,309043173,0.997292,0.0029702135,-0.014999477,0.07193639,0.2846683859825134,0.030628956854343414,9.543268203735352,0.6881299614906311,0.47605687379837036, 1.4957242012023926
143,309059840,0.99729097,0.0029726266,-0.0149902925,0.07195324,0.29115837812423706,0.031820911914110184,9.528107643127441,0.6847363710403442,0.5417918562889099, 1.536550760269165
144,309076507,0.9972901,0.0029742084,-0.014993661,0.07196456,0.2816964387893677,0.03689867630600929,9.526269912719727,0.6716611385345459,0.45605334639549255, 1.4751187562942505
145,309093174,0.99728864,0.0029784702,-0.014996233,0.07198332,0.28819048404693604,0.035975534468889236,9.537970542907715,0.6912034153938293,0.46018970012664795, 1.5259212255477905
146,309109841,0.9972888,0.0029746266,-0.014994951,0.07198057,0.29024598002433777,0.027879519388079643,9.542326927185059,0.6370326280593872,0.49059200286865234, 1.4346505403518677
147,309126508,0.9972878,0.0029803037,-0.01499573,0.071995944,0.27602657675743103,0.029833132401108742,9.535950660705566,0.7016791701316833,0.47185641527175903, 1.501896858215332
148,309143175,0.99728656,0.0029854027,-0.015004109,0.07201065,0.29605141282081604,0.03910558298230171,9.541389465332031,0.6935855150222778,0.41973456740379333, 1.4827512502670288
149,309159842,0.9972863,0.0029839806,-0.015004498,0.07201386,0.2947857677936554,0.0326463021337986,9.529386520385742,0.653437614440918,0.4780289828777313, 1.465782880783081
150,309176509,0.99728596,0.0029770832,-0.015005301,0.072018616,0.28377455472946167,0.029177293181419373,9.549778938293457,0.6147111654281616,0.4779265522956848, 1.4355212450027466
151,309193176,0.99728477,0.0029868865,-0.015009362,0.072034,0.2912880480289459,0.03913978114724159,9.53908920288086,0.7287774085998535,0.44735783338546753, 1.5032799243927002
152,309209843,0.9972845,0.0029829561,-0.015009121,0.072038315,0.2889733910560608,0.03662381321191788,9.554001808166504,0.6368533968925476,0.48377904295921326, 1.4721732139587402
153,309226510,0.9972835,0.002984216,-0.015009854,0.072051495,0.2979843020439148,0.026292385533452034,9.527054786682129,0.6716738939285278,0.47452008724212646, 1.4922535419464111
154,309243177,0.99728256,0.0029814383,-0.015004774,0.07206574,0.28574633598327637,0.04232145473361015,9.555610656738281,0.6475338339805603,0.516627311706543, 1.5111171007156372
155,309259844,0.9972822,0.0029772897,-0.015007103,0.07206928,0.2924136221408844,0.04715373367071152,9.553260803222656,0.633805513381958,0.46641361713409424, 1.4561011791229248
156,309276511,0.9972814,0.0029811822,-0.015002611,0.07208376,0.2867586314678192,0.038129087537527084,9.536495208740234,0.6927147507667542,0.509378969669342, 1.511629581451416
157,309293178,0.99728125,0.0029839939,-0.015010891,0.0720841,0.28712737560272217,0.027671929448843002,9.5281400680542,0.6783587336540222,0.4222189784049988, 1.4429875612258911
158,309309845,0.9972811,0.0029859866,-0.015011181,0.072086655,0.2949865460395813,0.04580605775117874,9.535346984863281,0.6762712597846985,0.47735023498535156, 1.4312185049057007
159,309326512,0.99728096,0.0029816653,-0.0150049515,0.07208815,0.2980910539627075,0.03137918934226036,9.529537200927734,0.6359313130378723,0.5252972841262817, 1.4238677024841309
160,309343179,0.9972809,0.0029829722,-0.01500956,0.07208795,0.2867111265659332,0.04808345064520836,9.539901733398438,0.670393168926239,0.4485231637954712, 1.4555633068084717
161,309359846,0.9972809,0.0029892954,-0.015012967,0.07208705,0.29437878727912903,0.02712070569396019,9.540447235107422,0.7056747674942017,0.45431163907051086, 1.4676270484924316
162,309376513,0.9972797,0.0029877822,-0.015010072,0.07210435,0.29136690497398376,0.03101232647895813,9.547539710998535,0.6545006036758423,0.5014262795448303, 1.5060333013534546
163,309393180,0.9972783,0.0029936621,-0.015011112,0.07212379,0.27816295623779297,0.0427226759493351,9.524176597595215,0.7024987936019897,0.47072938084602356, 1.484877109527588
164,309409847,0.9972766,0.0029964023,-0.015016791,0.07214585,0.2917143702507019,0.029377566650509834,9.523636817932129,0.6801517009735107,0.440519243478775, 1.5457329750061035
165,309426514,0.997275,0.002992732,-0.015021103,0.07216715,0.2948889136314392,0.0354057215154171,9.529613494873047,0.63639235496521,0.45309507846832275, 1.5244231224060059
166,309443181,0.9972739,0.0029956896,-0.015027708,0.072180055,0.28175628185272217,0.020707156509160995,9.536543846130371,0.6804590225219727,0.43414169549942017, 1.485991358757019
167,309459848,0.9972733,0.0030009197,-0.0150346365,0.072186805,0.2945760488510132,0.024273373186588287,9.546520233154297,0.6949558258056641,0.430568665266037, 1.4261599779129028
168,309476515,0.9972722,0.0029960386,-0.015028,0.0722039,0.2878292202949524,0.027412937954068184,9.531251907348633,0.6338438987731934,0.5288447141647339, 1.5042147636413574
169,309493182,0.9972717,0.0030061074,-0.015019206,0.07221087,0.30116575956344604,0.039488449692726135,9.544561386108398,0.737665057182312,0.5362339019775391, 1.472531795501709
170,309509849,0.9972711,0.0030056743,-0.015019036,0.072221264,0.29402557015419006,0.04648361727595329,9.547773361206055,0.66315758228302,0.48272889852523804, 1.5453870296478271
171,309526516,0.99727046,0.0030028247,-0.015024683,0.07222938,0.2866842448711395,0.042751576751470566,9.5387544631958,0.6411690711975098,0.44378483295440674, 1.4592515230178833
172,309543183,0.9972693,0.0029944633,-0.015028429,0.07224356,0.2943172752857208,0.04165215790271759,9.537850379943848,0.6049783825874329,0.45963913202285767, 1.5042531490325928
173,309559850,0.99726826,0.0029907918,-0.01502904,0.07225922,0.2845078706741333,0.041605688631534576,9.549050331115723,0.6384669542312622,0.47889989614486694, 1.5042146444320679
174,309576517,0.99726796,0.002989732,-0.0150322355,0.0722618,0.2996375560760498,0.0309273861348629,9.54034423828125,0.6545901894569397,0.45974159240722656, 1.44474196434021
175,309593184,0.9972673,0.0029891303,-0.015038779,0.07226875,0.2952277660369873,0.03499383479356766,9.541616439819336,0.6560885310173035,0.4367029070854187, 1.4580477476119995
176,309609851,0.99726635,0.0029941455,-0.015044107,0.07228104,0.29604893922805786,0.030417196452617645,9.542431831359863,0.6951863765716553,0.4423249363899231, 1.4725446701049805
177,309626518,0.9972642,0.0029889636,-0.015036735,0.07231325,0.29021918773651123,0.04883401840925217,9.56144905090332,0.6343689560890198,0.5349404215812683, 1.6315354108810425
178,309643185,0.9972626,0.0029849345,-0.015027396,0.07233683,0.2985464930534363,0.04622363671660423,9.536128997802734,0.6416430473327637,0.5476571917533875, 1.554057002067566
179,309659852,0.99726206,0.0029767212,-0.015023719,0.072344445,0.29249271750450134,0.042218469083309174,9.554610252380371,0.609729528427124,0.5110182166099548, 1.4904735088348389
180,309676519,0.99726146,0.0029792462,-0.015028331,0.072351985,0.291914165019989,0.045373089611530304,9.544705390930176,0.6782305836677551,0.4487280547618866, 1.458624005317688
181,309693186,0.99726117,0.0029760136,-0.01502643,0.07235677,0.29153549671173096,0.039790764451026917,9.549842834472656,0.642833948135376,0.49641895294189453, 1.4800876379013062
182,309709853,0.9972604,0.0029785202,-0.015032718,0.072366215,0.28939616680145264,0.046451080590486526,9.525642395019531,0.6788070201873779,0.43750977516174316, 1.520670771598816
183,309726520,0.9972602,0.002980778,-0.015037783,0.07236814,0.2844710052013397,0.03930871561169624,9.531716346740723,0.6763353943824768,0.4458722472190857, 1.453322172164917
184,309743187,0.9972601,0.0029870332,-0.015034318,0.072370574,0.2842215895652771,0.038191284984350204,9.537254333496094,0.7076597213745117,0.5022842884063721, 1.4429748058319092
185,309759854,0.99725884,0.0029876495,-0.015043597,0.07238643,0.2839367687702179,0.0454125851392746,9.535150527954102,0.6636058688163757,0.4177495539188385, 1.52195143699646
186,309776521,0.9972586,0.0029867112,-0.015045916,0.07238864,0.29620686173439026,0.04132721573114395,9.528316497802734,0.6557939648628235,0.46615758538246155, 1.458764910697937
187,309793188,0.99725723,0.0029883874,-0.015046482,0.07240807,0.3009592294692993,0.03209931403398514,9.542174339294434,0.6750291585922241,0.4770301282405853, 1.5334516763687134
188,309809855,0.99725556,0.0029876134,-0.015042567,0.07243068,0.3008711636066437,0.03279350697994232,9.538848876953125,0.6606731414794922,0.5091100335121155, 1.550022840499878
189,309826522,0.99725425,0.0029916128,-0.015049968,0.07244763,0.2968313694000244,0.03896993398666382,9.52266788482666,0.687592089176178,0.42922401428222656, 1.5216951370239258
190,309843189,0.9972539,0.0029901783,-0.015055798,0.07245176,0.291792631149292,0.027854453772306442,9.529471397399902,0.6513117551803589,0.4428243935108185, 1.4862346649169922
191,309859856,0.9972546,0.0029877846,-0.015059786,0.072440535,0.2876109480857849,0.035600390285253525,9.538254737854004,0.6447804570198059,0.45583558082580566, 1.4004703760147095
192,309876523,0.9972539,0.002996274,-0.015057119,0.072451554,0.29438096284866333,0.040495194494724274,9.533651351928711,0.7246729731559753,0.49627166986465454, 1.5391056537628174
193,309893190,0.99725246,0.0029942107,-0.015055587,0.07246921,0.2982684075832367,0.033546559512615204,9.515647888183594,0.6496725082397461,0.4935246706008911, 1.4955061674118042
194,309909857,0.99725246,0.0029944242,-0.015045736,0.07247245,0.29050636291503906,0.03915543481707573,9.524066925048828,0.6698553562164307,0.5496165156364441, 1.4595973491668701
195,309926524,0.9972513,0.002998038,-0.015044139,0.07248957,0.28515997529029846,0.026475895196199417,9.55187702178955,0.688168466091156,0.4912067651748657, 1.4774750471115112
196,309943191,0.9972502,0.0029949688,-0.015049593,0.072503865,0.2914307415485382,0.019951706752181053,9.534357070922852,0.6393890380859375,0.4461924731731415, 1.4835195541381836
197,309959858,0.9972493,0.0029818774,-0.015051699,0.072515674,0.29733213782310486,0.031796399503946304,9.51683521270752,0.5737820863723755,0.47428956627845764, 1.5167393684387207
198,309976525,0.99724895,0.0029771149,-0.015049784,0.07252123,0.2941311299800873,0.036312203854322433,9.543448448181152,0.6333059668540955,0.49785324931144714, 1.5068397521972656
199,309993192,0.9972476,0.0029744692,-0.015060405,0.0725373,0.2932240962982178,0.02666299417614937,9.522968292236328,0.6417197585105896,0.4108853042125702, 1.5484219789505005
200,310009859,0.9972475,0.0029711982,-0.015066443,0.0725373,0.2858772575855255,0.01930125057697296,9.552056312561035,0.6394530534744263,0.4426194429397583, 1.4794983863830566
201,310026526,0.99724764,0.0029692235,-0.01506971,0.07253482,0.2883402109146118,0.027936579659581184,9.527770042419434,0.649275541305542,0.46084290742874146, 1.4528226852416992
202,310043193,0.9972469,0.002976314,-0.015071147,0.07254456,0.2816876173019409,0.03889767825603485,9.519298553466797,0.7131662964820862,0.4689364731311798, 1.5159705877304077
203,310059860,0.9972453,0.0029904211,-0.0150751555,0.07256494,0.28441426157951355,0.034038081765174866,9.53139877319336,0.7607804536819458,0.4478060305118561, 1.580079436302185
204,310076527,0.99724466,0.0029885594,-0.01508313,0.07257157,0.2935931384563446,0.05108962580561638,9.534095764160156,0.6488271951675415,0.42849403619766235, 1.5186089277267456
205,310093194,0.9972431,0.00298703,-0.015094936,0.07258998,0.3002344071865082,0.03151259571313858,9.525009155273438,0.6489426493644714,0.4020618200302124, 1.5528019666671753
206,310109861,0.9972421,0.0029905923,-0.015103562,0.07260243,0.2809942364692688,0.02926236018538475,9.542020797729492,0.6865036487579346,0.4215274155139923, 1.5671322345733643
207,310126528,0.99724156,0.0029871138,-0.01510156,0.072610654,0.2867155075073242,0.034400179982185364,9.520305633544922,0.6427314877510071,0.4977251887321472, 1.5242819786071777
208,310143195,0.99724126,0.00299206,-0.015100583,0.07261425,0.29247012734413147,0.05072861909866333,9.54274845123291,0.6989257335662842,0.48632749915122986, 1.4727749824523926
209,310159862,0.99724126,0.0029794455,-0.015097469,0.07261555,0.2842322587966919,0.04222039878368378,9.558117866516113,0.5804030299186707,0.5098912119865417, 1.4966206550598145
210,310176529,0.99724025,0.002982926,-0.015103717,0.0726275,0.28412917256355286,0.05094228684902191,9.54240608215332,0.6848772764205933,0.437420129776001, 1.4952245950698853
211,310193196,0.99724,0.0029752573,-0.015099252,0.07263259,0.2850075364112854,0.03955657407641411,9.536728858947754,0.6143782734870911,0.5165249705314636, 1.4958008527755737
212,310209863,0.99723965,0.0029678307,-0.015099853,0.07263775,0.2863451838493347,0.046752337366342545,9.53907299041748,0.6140324473381042,0.48165327310562134, 1.5145622491836548
213,310226530,0.9972391,0.0029625972,-0.015101272,0.07264457,0.2907821536064148,0.038527633994817734,9.524282455444336,0.6283499598503113,0.47489142417907715, 1.513230323791504
214,310243197,0.99723846,0.0029576751,-0.015106029,0.072654136,0.28033384680747986,0.026761285960674286,9.534083366394043,0.6290158629417419,0.4518912434577942, 1.5292637348175049
215,310259864,0.9972381,0.0029551033,-0.0151072275,0.07265912,0.292111873626709,0.03380461037158966,9.541194915771484,0.6460226774215698,0.47489142417907715, 1.4809198379516602
216,310276531,0.99723774,0.0029392818,-0.015106812,0.07266506,0.2755395770072937,0.03449872508645058,9.532471656799316,0.5574411749839783,0.49276918172836304, 1.534411907196045
217,310293198,0.99723774,0.0029490415,-0.015113899,0.07266352,0.28887811303138733,0.037493590265512466,9.53359317779541,0.726395308971405,0.42807143926620483, 1.4149799346923828
218,310309865,0.9972373,0.0029438273,-0.015110592,0.07266847,0.2914775311946869,0.03820231184363365,9.516756057739258,0.630091667175293,0.506945788860321, 1.4790759086608887
219,310326532,0.997237,0.002935774,-0.015114567,0.072671995,0.29111871123313904,0.04866693168878555,9.532452583312988,0.6070530414581299,0.4584481120109558, 1.4761687517166138
220,310343199,0.99723625,0.0029359164,-0.015111924,0.0726836,0.29094699025154114,0.020899780094623566,9.53928279876709,0.6667562127113342,0.49981266260147095, 1.5140882730484009
221,310359866,0.99723583,0.0029366054,-0.015108363,0.07268977,0.28784966468811035,0.03706750646233559,9.535780906677246,0.670341968536377,0.505742073059082, 1.468817949295044
222,310376533,0.9972342,0.0029358072,-0.015110974,0.07271092,0.28597286343574524,0.027997950091958046,9.542994499206543,0.6596103310585022,0.4644415080547333, 1.606332540512085
223,310393200,0.9972349,0.0029410939,-0.015115553,0.072701186,0.28434088826179504,0.038075562566518784,9.528837203979492,0.6974146366119385,0.4475243389606476, 1.4019559621810913
224,310409867,0.9972347,0.0029475528,-0.015110117,0.072704725,0.2802695035934448,0.0460229329764843,9.536283493041992,0.7119370102882385,0.5157693028450012, 1.4969278573989868
225,310426534,0.99723613,0.0029563983,-0.015104694,0.07268623,0.2983900308609009,0.032904405146837234,9.526199340820312,0.7265873551368713,0.5141813158988953, 1.3653937578201294
226,310443201,0.997235,0.0029613886,-0.015105765,0.07270202,0.3033745288848877,0.04766450822353363,9.541658401489258,0.6973890066146851,0.4716898798942566, 1.499437928199768
227,310459868,0.99723464,0.002963193,-0.01510437,0.07270703,0.2782999873161316,0.03565418720245361,9.53369140625,0.6764634251594543,0.4902718961238861, 1.4555633068084717
228,310476535,0.9972344,0.0029706352,-0.015107355,0.072709315,0.28633880615234375,0.048009175807237625,9.539310455322266,0.7144599556922913,0.45751330256462097, 1.4956473112106323
229,310493202,0.9972342,0.0029751214,-0.015115535,0.07270943,0.2816846966743469,0.014440303668379784,9.530937194824219,0.6901342272758484,0.423185795545578, 1.4445178508758545
230,310509869,0.9972331,0.0029755007,-0.015115382,0.0727255,0.2908327877521515,0.03854307904839516,9.534440994262695,0.6680625081062317,0.48253685235977173, 1.5565799474716187
231,310526536,0.9972326,0.0029777347,-0.015116447,0.072730325,0.2934058606624603,0.034931730479002,9.530023574829102,0.6786149740219116,0.4730601906776428, 1.4670379161834717
232,310543203,0.997232,0.002986729,-0.015108861,0.07274057,0.28449130058288574,0.03504645451903343,9.531620979309082,0.7300964593887329,0.5291136503219604, 1.5100159645080566
233,310559870,0.99723047,0.0029937592,-0.015115923,0.072760195,0.29306238889694214,0.023539703339338303,9.537115097045898,0.7099776864051819,0.4297106862068176, 1.5658773183822632
234,310576537,0.99723065,0.0029872595,-0.015110981,0.072758384,0.28885772824287415,0.0315510593354702,9.534899711608887,0.6228305101394653,0.5187660455703735, 1.4768092632293701
235,310593204,0.99723047,0.0029865827,-0.015099568,0.072763614,0.29949817061424255,0.0415290892124176,9.529727935791016,0.6668330430984497,0.5602841973304749, 1.5273301601409912
236,310609871,0.99723023,0.0029924884,-0.015107296,0.072765216,0.2945324182510376,0.026278086006641388,9.535868644714355,0.7007570266723633,0.42563822865486145, 1.4615823030471802
237,310626538,0.9972299,0.0029945,-0.01511739,0.07276751,0.28157302737236023,0.025793468579649925,9.545422554016113,0.6729800701141357,0.41138479113578796, 1.4659236669540405
238,310643205,0.99723,0.0030016347,-0.015108735,0.0727674,0.28917044401168823,0.032383136451244354,9.53631591796875,0.7164320945739746,0.5371943712234497, 1.4197825193405151
239,310659872,0.99723357,0.0029641176,-0.014986094,0.07274557,0.2919909954071045,0.04585785046219826,9.530109405517578,0.677910566329956,0.4840736985206604, 1.581987738609314
240,310676539,0.99723333,0.002955614,-0.014984679,0.07274944,0.28193026781082153,0.03549378737807274,9.518987655639648,0.6069633364677429,0.49173179268836975, 1.4529505968093872
241,310693206,0.99723256,0.0029545503,-0.014982455,0.0727604,0.28799790143966675,0.0326448418200016,9.526590347290039,0.6595590710639954,0.49369120597839355, 1.5148056745529175
242,310709873,0.9972326,0.0029619844,-0.014978125,0.07276039,0.2906462252140045,0.04444757476449013,9.523359298706055,0.7177767157554626,0.5037185549736023, 1.440016508102417
243,310726540,0.9972322,0.002958322,-0.014970655,0.07276813,0.28849759697914124,0.04424893483519554,9.533756256103516,0.6444860100746155,0.5309576988220215, 1.5081591606140137
244,310743207,0.9972312,0.0029570325,-0.014967165,0.072782435,0.28751832246780396,0.04524552449584007,9.505184173583984,0.6599945425987244,0.5026172399520874, 1.5734715461730957
245,310759874,0.9972315,0.0029514236,-0.014969116,0.07277829,0.288714736700058,0.03657155483961105,9.536588668823242,0.6252251267433167,0.4671819508075714, 1.430962085723877
246,310776541,0.9972319,0.0029494988,-0.014961126,0.07277393,0.29544177651405334,0.04036533460021019,9.522139549255371,0.6568057537078857,0.5336726307868958, 1.4762072563171387
247,310793208,0.99723184,0.0029444073,-0.014961142,0.07277468,0.28989729285240173,0.03301849216222763,9.537182807922363,0.6308600902557373,0.4803597927093506, 1.4852100610733032
248,310809875,0.9972327,0.0029443724,-0.014960452,0.0727627,0.2866874039173126,0.0381094291806221,9.517159461975098,0.6648608446121216,0.48253685235977173, 1.4080389738082886
249,310826542,0.9972328,0.0029462618,-0.014964575,0.072761625,0.2982465922832489,0.03840278089046478,9.539473533630371,0.6767323613166809,0.44871529936790466, 1.4816498756408691
250,310843209,0.9972324,0.002951718,-0.014973677,0.07276529,0.29001492261886597,0.03695014864206314,9.52588176727295,0.6992074251174927,0.41288310289382935, 1.5152665376663208
251,310859876,0.9972318,0.0029509726,-0.014978447,0.07277213,0.2897116541862488,0.036359142512083054,9.537187576293945,0.6583936214447021,0.44562894105911255, 1.5096572637557983
252,310876543,0.9972311,0.0029472075,-0.014973785,0.07278257,0.2961594760417938,0.040070805698633194,9.532769203186035,0.6422961354255676,0.511812150478363, 1.5194542407989502
253,310893210,0.99723077,0.002954711,-0.014975102,0.072786,0.28893524408340454,0.04804886132478714,9.545119285583496,0.7163296341896057,0.4651714861392975, 1.486977458000183
254,310909877,0.9972306,0.0029547152,-0.014969758,0.0727896,0.29069218039512634,0.02503613568842411,9.544866561889648,0.6675118207931519,0.5145399570465088, 1.4679471254348755
255,310926544,0.9972304,0.0029518532,-0.014973165,0.07279094,0.291620135307312,0.03565708547830582,9.543944358825684,0.6444219946861267,0.45604053139686584, 1.488872766494751
256,310943211,0.99723065,0.0029570723,-0.014970917,0.07278949,0.2844601273536682,0.03296284377574921,9.54368782043457,0.7013205289840698,0.4906688332557678, 1.433702826499939
257,310959878,0.99723047,0.0029561135,-0.014967916,0.072792836,0.28900957107543945,0.03685867786407471,9.540691375732422,0.6604298949241638,0.49899303913116455, 1.4856071472167969
258,310976545,0.9972297,0.002962789,-0.014969673,0.07280069,0.28948280215263367,0.04672498255968094,9.55839729309082,0.7099519371986389,0.46246927976608276, 1.4874895811080933
259,310993212,0.99722874,0.0029635774,-0.014974653,0.072813384,0.2884233295917511,0.0335385724902153,9.521025657653809,0.6688437461853027,0.4434519112110138, 1.5350013971328735
260,311009879,0.997228,0.002964129,-0.0149865765,0.07282091,0.282382994890213,0.030215853825211525,9.535479545593262,0.6647456288337708,0.3960300087928772, 1.5504841804504395
261,311026546,0.99722743,0.0029531547,-0.014991812,0.072829165,0.28583189845085144,0.040744293481111526,9.52763557434082,0.5879075527191162,0.44748595356941223, 1.5120137929916382
262,311043213,0.9972269,0.0029529177,-0.014995403,0.07283587,0.2857641875743866,0.04028191417455673,9.552902221679688,0.6619923114776611,0.4533255696296692, 1.4946995973587036
263,311059880,0.9972271,0.002955784,-0.014992983,0.072833635,0.2850777506828308,0.03735770285129547,9.525920867919922,0.6852742433547974,0.4928331673145294, 1.4303604364395142
264,311076547,0.9972269,0.002958871,-0.015001697,0.07283407,0.29349949955940247,0.04438095912337303,9.552657127380371,0.6826873421669006,0.4165329337120056, 1.489026427268982
265,311093214,0.9972264,0.0029518742,-0.015013942,0.072837986,0.2921331226825714,0.03459611162543297,9.53445053100586,0.6121500134468079,0.3974643051624298, 1.5174564123153687
266,311109881,0.99722636,0.0029498048,-0.01501675,0.07283802,0.29726311564445496,0.04914926365017891,9.560711860656738,0.6504666209220886,0.45965200662612915, 1.4955576658248901
267,311126548,0.9972261,0.0029591837,-0.015004356,0.07284545,0.2910310626029968,0.033484671264886856,9.545506477355957,0.7349756360054016,0.5580431222915649, 1.4677166938781738
268,311143215,0.9972261,0.0029531117,-0.015002935,0.07284373,0.29306671023368835,0.03979579359292984,9.535387992858887,0.6238421201705933,0.4905279576778412, 1.4489423036575317
269,311159882,0.9972264,0.002955823,-0.015008318,0.0728396,0.2920241951942444,0.039319198578596115,9.544791221618652,0.6813554167747498,0.4395971894264221, 1.4635032415390015
270,311176549,0.9972259,0.0029468548,-0.015013114,0.07284602,0.2970055043697357,0.03137462958693504,9.540526390075684,0.6017127633094788,0.44950932264328003, 1.5060718059539795
271,311193216,0.9972249,0.0029488215,-0.015015209,0.07285815,0.2938010096549988,0.030432168394327164,9.53946590423584,0.6786020994186401,0.46264857053756714, 1.5436837673187256
272,311209883,0.9972241,0.0029534001,-0.015013337,0.07286979,0.2878977358341217,0.02861427702009678,9.509909629821777,0.6985287666320801,0.4885558485984802, 1.5397394895553589
273,311226550,0.9972229,0.0029591585,-0.015009898,0.07288702,0.29142677783966064,0.041659511625766754,9.553934097290039,0.7081590890884399,0.498788058757782, 1.5820643901824951
274,311243217,0.997223,0.0029557399,-0.015004689,0.07288687,0.2890896201133728,0.029083646833896637,9.561917304992676,0.643589437007904,0.5152058005332947, 1.4410152435302734
275,311259884,0.997223,0.0029603252,-0.015012336,0.0728858,0.3010522127151489,0.03414534032344818,9.528393745422363,0.6923176050186157,0.4230513274669647, 1.4456384181976318
276,311276551,0.99722314,0.0029533869,-0.015005052,0.07288428,0.2813257873058319,0.04066698998212814,9.53411865234375,0.6218186616897583,0.5313930511474609, 1.4776285886764526
277,311293218,0.99722224,0.0029555615,-0.0150045855,0.07289802,0.28696051239967346,0.03840223699808121,9.518341064453125,0.6814195513725281,0.48014208674430847, 1.5467830896377563
278,311309885,0.99722224,0.002952965,-0.015007074,0.072897054,0.2884967625141144,0.03736787661910057,9.525383949279785,0.6461763978004456,0.4620979428291321, 1.4628373384475708
279,311326552,0.9972217,0.0029526162,-0.015013348,0.07290252,0.2950078248977661,0.03545619919896126,9.533066749572754,0.6608332991600037,0.4351341128349304, 1.5235329866409302
280,311343219,0.99722093,0.0029403789,-0.015006267,0.07291602,0.2918769419193268,0.028472259640693665,9.531163215637207,0.5848724246025085,0.5325713157653809, 1.5139474868774414
281,311359886,0.9972215,0.0029422059,-0.01501904,0.072905645,0.29374727606773376,0.03439681604504585,9.540268898010254,0.6705211997032166,0.3892554044723511, 1.4018917083740234
282,311376553,0.99722075,0.002944872,-0.015020991,0.07291357,0.2833305597305298,0.035636015236377716,9.530189514160156,0.6828025579452515,0.46318650245666504, 1.5002446174621582
283,311393220,0.99722165,0.0029431924,-0.015022903,0.072901376,0.2948356568813324,0.029307102784514427,9.533590316772461,0.651708722114563,0.46544042229652405, 1.3877025842666626
284,311409887,0.9972214,0.0029422827,-0.0150174815,0.072905175,0.28902891278266907,0.03281988203525543,9.53353214263916,0.6625173687934875,0.5156028866767883, 1.5035104751586914
285,311426554,0.99722135,0.0029387164,-0.015029403,0.07290519,0.286050945520401,0.03392016142606735,9.56070327758789,0.6356112360954285,0.3979765474796295, 1.4890775680541992
286,311443221,0.99722135,0.002929977,-0.015031335,0.072904795,0.29444581270217896,0.03798075392842293,9.549385070800781,0.6047607064247131,0.46898773312568665, 1.4759511947631836
287,311459888,0.9972206,0.0029374352,-0.015042894,0.072913386,0.30073004961013794,0.015659326687455177,9.546232223510742,0.7117193937301636,0.39495426416397095, 1.5294561386108398
288,311476555,0.9972205,0.0029407025,-0.015044377,0.07291394,0.2935877740383148,0.050158824771642685,9.54733657836914,0.6881172060966492,0.4661960005760193, 1.5007569789886475
289,311493222,0.9972194,0.0029448632,-0.015044652,0.07292979,0.28865107893943787,0.039850760251283646,9.533514976501465,0.6940338015556335,0.4739694595336914, 1.5296225547790527
290,311509889,0.9972192,0.0029481878,-0.01504632,0.07293099,0.2793375551700592,0.02425442636013031,9.540750503540039,0.6878098249435425,0.46482568979263306, 1.485837459564209
291,311526556,0.99721855,0.002947951,-0.015033735,0.07294215,0.27680081129074097,0.03183240815997124,9.530717849731445,0.6705468893051147,0.5643054246902466, 1.5202739238739014
292,311543223,0.99721813,0.0029458993,-0.015034832,0.072947495,0.2752110958099365,0.03347545117139816,9.542834281921387,0.651260495185852,0.47133129835128784, 1.5000908374786377
293,311559890,0.99721783,0.0029370643,-0.015041117,0.07295051,0.28357672691345215,0.03793984279036522,9.533951759338379,0.6023787260055542,0.4391233026981354, 1.5006800889968872
294,311576557,0.9972171,0.0029437863,-0.0150480205,0.07295938,0.2939620614051819,0.021714694797992706,9.553834915161133,0.7084410190582275,0.42697012424468994, 1.5083000659942627
295,311593224,0.9972171,0.0029530874,-0.015047897,0.07296,0.27947598695755005,0.04153870418667793,9.535945892333984,0.7290206551551819,0.47380298376083374, 1.4577916860580444
296,311609891,0.99721634,0.0029492646,-0.01504234,0.07296964,0.2875681221485138,0.03536415100097656,9.5387601852417,0.6424113512039185,0.5176646709442139, 1.5126796960830688
297,311626558,0.9972162,0.0029486718,-0.01504704,0.07297138,0.2953251600265503,0.040878791362047195,9.52042293548584,0.6596230864524841,0.44575703144073486, 1.4928042888641357
298,311643225,0.9972163,0.0029547254,-0.0150386,0.072972246,0.2995353937149048,0.0391983762383461,9.537610054016113,0.71043860912323,0.532379150390625, 1.4443961381912231
299,311659892,0.99721533,0.0029488602,-0.01504544,0.07298368,0.28825637698173523,0.04293938726186752,9.529916763305664,0.6214216947555542,0.4336550235748291, 1.4948660135269165
300,311676559,0.99721473,0.0029452336,-0.015043987,0.072991855,0.3122680187225342,0.04706783965229988,9.534618377685547,0.6414123773574829,0.4894266426563263, 1.498720645904541
301,311693226,0.9972144,0.0029401924,-0.015043507,0.07299685,0.2959797978401184,0.017015675082802773,9.5454740524292,0.632025420665741,0.48368945717811584, 1.5167776346206665
302,311709893,0.99721354,0.0029490048,-0.015042298,0.07300837,0.2949085235595703,0.037522442638874054,9.554829597473145,0.7275863885879517,0.4817429184913635, 1.5416860580444336
303,311726560,0.9972139,0.0029529193,-0.015034367,0.073005825,0.2963392436504364,0.032581936568021774,9.54220199584961,0.696057140827179,0.5301765203475952, 1.4517215490341187
304,311743227,0.9972134,0.0029496977,-0.015033893,0.07301262,0.28817111253738403,0.033341143280267715,9.536687850952148,0.6442427039146423,0.48275458812713623, 1.5115015506744385
305,311759894,0.9972139,0.0029469149,-0.015021664,0.073008515,0.29275503754615784,0.03970601037144661,9.537872314453125,0.6523234844207764,0.5629991888999939, 1.444729208946228
306,311776561,0.9972145,0.0029440105,-0.015016368,0.07300145,0.2839718163013458,0.030254730954766273,9.528694152832031,0.6474441885948181,0.5154747366905212, 1.4180022478103638
307,311793228,0.9972149,0.0029441717,-0.015018935,0.072995,0.287141352891922,0.03906134516000748,9.529597282409668,0.664092481136322,0.45992088317871094, 1.4047861099243164
308,311809895,0.99721456,0.0029420746,-0.0150215095,0.072999135,0.2839842140674591,0.01940305158495903,9.534636497497559,0.6503257155418396,0.4612143039703369, 1.498887300491333
309,311826562,0.99721485,0.002946639,-0.0150174005,0.07299573,0.282122939825058,0.03868698701262474,9.532329559326172,0.6987592577934265,0.50359046459198, 1.4499412775039673
310,311843229,0.99721354,0.0029501077,-0.0150243025,0.0730122,0.27608683705329895,0.03701436147093773,9.523906707763672,0.6874128580093384,0.42880144715309143, 1.5753923654556274
311,311859896,0.99721324,0.0029534434,-0.015022529,0.0730167,0.2885511517524719,0.04567703977227211,9.524099349975586,0.6899357438087463,0.4881717264652252, 1.502934217453003
312,311876563,0.997213,0.002951488,-0.015034822,0.0730171,0.2936752140522003,0.0470450296998024,9.538089752197266,0.6470600962638855,0.39442920684814453, 1.5059436559677124
313,311893230,0.9972131,0.0029522977,-0.015033959,0.0730158,0.2944325804710388,0.04515008628368378,9.543490409851074,0.6709311604499817,0.48308753967285156, 1.4448189735412598
314,311909897,0.9972135,0.002957211,-0.015026136,0.0730126,0.27768024802207947,0.024799460545182228,9.509772300720215,0.7031133770942688,0.5288317799568176, 1.4569718837738037
315,311926564,0.997213,0.0029478876,-0.0150317475,0.073017746,0.28530463576316833,0.03800427168607712,9.53370475769043,0.5996766090393066,0.44390013813972473, 1.5165857076644897
316,311943231,0.9972116,0.0029416115,-0.015029988,0.07303856,0.2899404466152191,0.03463098034262657,9.538518905639648,0.6242135763168335,0.4928971827030182, 1.5686818361282349
317,311959898,0.9972115,0.0029451037,-0.015031454,0.073039904,0.292967289686203,0.03068786859512329,9.524230003356934,0.6884116530418396,0.46572211384773254, 1.4626579284667969
318,311976565,0.9972112,0.0029482036,-0.015038828,0.07304076,0.28172144293785095,0.03041217103600502,9.538273811340332,0.6836093664169312,0.4255230128765106, 1.4890263080596924
319,311993232,0.99721104,0.0029435053,-0.015037271,0.0730431,0.28884077072143555,0.027767688035964966,9.54525375366211,0.635021984577179,0.49069440364837646, 1.5056232213974
320,312009899,0.9972113,0.0029490774,-0.015041539,0.073039174,0.2963412404060364,0.025339780375361443,9.542586326599121,0.7011027932167053,0.4453984200954437, 1.4367122650146484
321,312026566,0.9972112,0.002944849,-0.015052627,0.073037535,0.2949577569961548,0.024560539051890373,9.530804634094238,0.6301044225692749,0.40353450179100037, 1.4329216480255127
322,312043233,0.99721146,0.0029432564,-0.015052979,0.073035836,0.2752302289009094,0.03793570399284363,9.539633750915527,0.655217707157135,0.4760825037956238, 1.4856455326080322
323,312059900,0.99721134,0.0029456161,-0.0150534995,0.07303778,0.2829562723636627,0.020749296993017197,9.535384178161621,0.6822391748428345,0.47285526990890503, 1.4965310096740723
324,312076567,0.9972112,0.0029450597,-0.015055452,0.07303746,0.28360018134117126,0.04151086509227753,9.54116153717041,0.6606988906860352,0.4643518626689911, 1.459533452987671
325,312093234,0.99721175,0.0029417647,-0.015055019,0.07303038,0.28938180208206177,0.052998583763837814,9.535046577453613,0.6426034569740295,0.4819990396499634, 1.4212039709091187
326,312109901,0.997211,0.0029444268,-0.0150505295,0.073041484,0.2904835641384125,0.04512568935751915,9.539383888244629,0.6874769330024719,0.5070610046386719, 1.5506248474121094
327,312126568,0.9972111,0.0029465524,-0.015060425,0.0730386,0.2967149317264557,0.021192755550146103,9.531505584716797,0.6757462024688721,0.40860581398010254, 1.4774237871170044
328,312143235,0.9972112,0.0029429505,-0.015053734,0.07303878,0.30498984456062317,0.036485426127910614,9.533032417297363,0.644754946231842,0.5252332091331482, 1.484825849533081
329,312159902,0.99721086,0.002941918,-0.015057336,0.07304229,0.29540401697158813,0.031013280153274536,9.553950309753418,0.6572667360305786,0.4534023702144623, 1.4980164766311646
330,312176569,0.9972111,0.0029502094,-0.015049357,0.073041,0.2987966239452362,0.02421662211418152,9.521793365478516,0.7255117893218994,0.5279609560966492, 1.4299505949020386
331,312193236,0.99720955,0.0029485584,-0.015050505,0.0730619,0.28463077545166016,0.03827811777591705,9.55604076385498,0.6545902490615845,0.47062698006629944, 1.5661718845367432
332,312209903,0.99720937,0.0029503778,-0.015047119,0.07306549,0.28537818789482117,0.03862608224153519,9.522784233093262,0.6804333329200745,0.4999406635761261, 1.5005006790161133
333,312226570,0.9972084,0.0029583354,-0.015051443,0.07307592,0.28210875391960144,0.040322721004486084,9.527511596679688,0.7193263173103333,0.4440154433250427, 1.5442986488342285
334,312243237,0.9972085,0.002961957,-0.01505575,0.07307445,0.28984564542770386,0.03797093406319618,9.56021499633789,0.6887702941894531,0.4462052583694458, 1.4787043333053589
335,312259904,0.997208,0.002963108,-0.015049739,0.07308279,0.29328489303588867,0.03566773608326912,9.545804977416992,0.6778592467308044,0.5183177590370178, 1.5395344495773315
336,312276571,0.9972084,0.0029590107,-0.01504181,0.07307908,0.2875145375728607,0.03432228043675423,9.528701782226562,0.6411691308021545,0.5338646769523621, 1.444575548171997
337,312293238,0.9972079,0.0029604493,-0.015051366,0.07308427,0.2763209342956543,0.03379901498556137,9.545014381408691,0.6703675389289856,0.4112182557582855, 1.4773212671279907
338,312309905,0.9972069,0.0029688524,-0.015051562,0.07309763,0.29419901967048645,0.03015883080661297,9.520666122436523,0.7244873046875,0.4720357060432434, 1.558885097503662
339,312326572,0.9972056,0.0029635218,-0.015055365,0.073112406,0.2933449447154999,0.03733547776937485,9.536394119262695,0.628452479839325,0.45419642329216003, 1.5605113506317139
340,312343239,0.99720514,0.0029623634,-0.015063321,0.07311939,0.2922545373439789,0.043537549674510956,9.534725189208984,0.6543980836868286,0.4235636591911316, 1.5134226083755493
341,312359906,0.9972037,0.0029575326,-0.015074542,0.07313537,0.2843343913555145,0.028127498924732208,9.543790817260742,0.6277865171432495,0.4030478596687317, 1.5533143281936646
342,312376573,0.9972031,0.0029705176,-0.015074379,0.07314298,0.3104923367500305,0.029399119317531586,9.531407356262207,0.7550047636032104,0.47204846143722534, 1.5027291774749756
343,312393240,0.9972033,0.002978907,-0.015072622,0.073141076,0.2835249900817871,0.031240614131093025,9.547606468200684,0.7245000004768372,0.48537981510162354, 1.4748624563217163
344,312409907,0.9972041,0.0029733349,-0.015072494,0.073130175,0.2882610857486725,0.04565741494297981,9.532715797424316,0.627978503704071,0.4811921715736389, 1.4457024335861206
345,312426574,0.99720407,0.0029761316,-0.015073594,0.07313152,0.29525136947631836,0.026867657899856567,9.531538009643555,0.6855303049087524,0.46869325637817383, 1.5141524076461792
346,312443241,0.99720347,0.0029880013,-0.01507236,0.07313702,0.29829269647598267,0.029644247144460678,9.509186744689941,0.7486656904220581,0.4800523817539215, 1.5160349607467651
347,312459908,0.99720275,0.002988257,-0.015067129,0.07314939,0.28990861773490906,0.03217967599630356,9.533019065856934,0.6716867089271545,0.513425886631012, 1.5614591836929321
348,312476575,0.9972027,0.0029874875,-0.015061761,0.07315128,0.28436794877052307,0.02538222074508667,9.533145904541016,0.6637723445892334,0.5148088932037354, 1.497017502784729
349,312493242,0.99720144,0.0029866176,-0.015070043,0.07316652,0.3009586036205292,0.04719819873571396,9.528566360473633,0.6576380729675293,0.42138656973838806, 1.587827444076538
350,312509909,0.9972015,0.0029855585,-0.015069351,0.07316531,0.2896576225757599,0.03774285316467285,9.53204345703125,0.6586753726005554,0.4827672839164734, 1.4595972299575806
351,312526576,0.9972004,0.002995477,-0.015074213,0.073179446,0.29090800881385803,0.03758598864078522,9.529865264892578,0.7328369617462158,0.43934106826782227, 1.56622314453125
352,312543243,0.99719995,0.002994707,-0.0150822755,0.07318481,0.28990283608436584,0.04381251335144043,9.551419258117676,0.6568824648857117,0.4226543605327606, 1.5030492544174194
353,312559910,0.9971989,0.002983885,-0.015087229,0.073199496,0.2964079678058624,0.03234952315688133,9.528680801391602,0.590020477771759,0.4491250216960907, 1.5528018474578857
354,312576577,0.9971986,0.0029874013,-0.015086727,0.07320238,0.30259978771209717,0.04501063749194145,9.535633087158203,0.6904736757278442,0.47919443249702454, 1.4900764226913452
355,312593244,0.9971982,0.0029816874,-0.015087466,0.073207036,0.2873436510562897,0.044295597821474075,9.534745216369629,0.6267363429069519,0.4754292964935303, 1.505571961402893
356,312609911,0.9971974,0.002985726,-0.015092018,0.07321748,0.28940990567207336,0.024335481226444244,9.538346290588379,0.6925994157791138,0.4445020258426666, 1.55533766746521
357,312626578,0.99719775,0.0029837163,-0.015086915,0.07321297,0.2848203182220459,0.03607962653040886,9.534382820129395,0.6553201675415039,0.5136306881904602, 1.48298180103302
358,312643245,0.9971972,0.0029903143,-0.015095149,0.07321825,0.29213598370552063,0.020647665485739708,9.533472061157227,0.7071346640586853,0.41777515411376953, 1.4975682497024536
359,312659912,0.9972002,0.0029625557,-0.015018582,0.0731944,0.2879868745803833,0.03787685185670853,9.508604049682617,0.6417069435119629,0.5022585988044739, 1.5722291469573975
360,312676579,0.99719965,0.0029599832,-0.015022779,0.07320225,0.29291194677352905,0.037460289895534515,9.544636726379395,0.6473034024238586,0.448548823595047, 1.5253835916519165
361,312693246,0.99719936,0.0029671132,-0.015032425,0.07320394,0.2910083532333374,0.026345593854784966,9.51369857788086,0.7102208733558655,0.4062366187572479, 1.4784481525421143
362,312709913,0.997199,0.0029698224,-0.015030019,0.073209725,0.28956809639930725,0.03252178430557251,9.532267570495605,0.6870927810668945,0.49123233556747437, 1.5268564224243164
363,312726580,0.997199,0.002965148,-0.015039382,0.073206134,0.2956141531467438,0.025663364678621292,9.52971076965332,0.6292912364006042,0.4141061305999756, 1.4565942287445068
364,312743247,0.99719846,0.0029681916,-0.01503942,0.073214084,0.2881414592266083,0.035691577941179276,9.526531219482422,0.6886038780212402,0.4743407964706421, 1.5481916666030884
365,312759914,0.9971982,0.0029639446,-0.015037867,0.07321849,0.29557502269744873,0.035242535173892975,9.522666931152344,0.6386846899986267,0.4888375997543335, 1.5135377645492554
366,312776581,0.99719864,0.0029699486,-0.015042879,0.07321184,0.28151682019233704,0.01820274069905281,9.537253379821777,0.7056363224983215,0.4386623501777649, 1.4730184078216553
367,312793248,0.9971979,0.0029727698,-0.0150363725,0.073220976,0.2903364300727844,0.03994482755661011,9.550374984741211,0.6891928911209106,0.5191245675086975, 1.5106433629989624
368,312809915,0.9971971,0.0029763924,-0.01504517,0.07323114,0.2875610888004303,0.033545468002557755,9.530265808105469,0.6880403757095337,0.4139460325241089, 1.5487806797027588
369,312826582,0.9971961,0.002980139,-0.015046614,0.07324446,0.2855152487754822,0.049634527415037155,9.555959701538086,0.6929452419281006,0.4643390476703644, 1.5731257200241089
370,312843249,0.9971965,0.0029844674,-0.015047735,0.07323885,0.2815050780773163,0.034728895872831345,9.539374351501465,0.6939825415611267,0.46586307883262634, 1.4076932668685913
371,312859916,0.99719644,0.0029906468,-0.015050927,0.07323879,0.290143221616745,0.03378739207983017,9.530010223388672,0.7067504525184631,0.4507899284362793, 1.4613007307052612
372,312876583,0.99719703,0.0029881578,-0.015048047,0.07323142,0.29215919971466064,0.0363052599132061,9.543538093566895,0.6502488255500793,0.4967902898788452, 1.4313976764678955
373,312893250,0.99719745,0.002976086,-0.015060463,0.07322409,0.28850412368774414,0.038049135357141495,9.551042556762695,0.5765866637229919,0.39668309688568115, 1.4254043102264404
374,312909917,0.9971974,0.0029795251,-0.0150693245,0.07322324,0.2803713083267212,0.03806917369365692,9.536431312561035,0.6855687499046326,0.4133569896221161, 1.475387692451477
375,312926584,0.99719685,0.0029818953,-0.015076166,0.07322687,0.27925071120262146,0.03704684227705002,9.525291442871094,0.6797290444374084,0.4277512729167938, 1.5053670406341553
376,312943251,0.99719614,0.0029860453,-0.015074686,0.073238246,0.28296396136283875,0.04037213698029518,9.525492668151855,0.6964796185493469,0.48397114872932434, 1.5432610511779785
377,312959918,0.9971957,0.0029819368,-0.015083875,0.07324211,0.284005343914032,0.049847718328237534,9.517621040344238,0.6332932114601135,0.4147656559944153, 1.4792166948318481
378,312976585,0.9971954,0.0029815154,-0.0150837395,0.073246084,0.28576821088790894,0.039029382169246674,9.520122528076172,0.6636955738067627,0.47688931226730347, 1.4949814081192017
379,312993252,0.99719495,0.0029777067,-0.0150867915,0.07325207,0.28853750228881836,0.04737069457769394,9.541117668151855,0.6396196484565735,0.4568089246749878, 1.5268819332122803
380,313009919,0.997195,0.0029744026,-0.01508187,0.07325142,0.2913243770599365,0.045758068561553955,9.53196907043457,0.6453695893287659,0.5110310316085815, 1.4497621059417725
381,313026586,0.9971936,0.002986551,-0.015085097,0.07326945,0.2928575873374939,0.0362408384680748,9.52949333190918,0.7483710646629333,0.4475371241569519, 1.5502406358718872
382,313043253,0.99719334,0.0029829359,-0.015090735,0.07327339,0.2939909100532532,0.0367065891623497,9.536157608032227,0.6387871503829956,0.43889284133911133, 1.4919589757919312
383,313059920,0.9971929,0.002985696,-0.01509694,0.07327684,0.2951574921607971,0.03747067227959633,9.536161422729492,0.681649923324585,0.43167001008987427, 1.4714688062667847
384,313076587,0.9971931,0.0029857024,-0.0150895,0.07327579,0.2905777394771576,0.03139251470565796,9.531766891479492,0.6692405939102173,0.526641845703125, 1.4433715343475342
385,313093254,0.99719274,0.0029956708,-0.015087382,0.07328008,0.2863460183143616,0.0457436703145504,9.540176391601562,0.7364867329597473,0.48531574010849, 1.5138320922851562
386,313109921,0.9971924,0.0029951818,-0.015088159,0.07328536,0.2835400700569153,0.04214564338326454,9.546120643615723,0.6631832718849182,0.4706653654575348, 1.5138322114944458
387,313126588,0.9971928,0.0029955846,-0.0150872925,0.07327964,0.2885417938232422,0.04748958721756935,9.545806884765625,0.670540452003479,0.481557160615921, 1.492195963859558
388,313143255,0.9971925,0.0029998687,-0.015085058,0.07328422,0.2842913866043091,0.0418739952147007,9.524557113647461,0.6975555419921875,0.4889272451400757, 1.5175844430923462
389,313159922,0.9971927,0.0030079258,-0.015076507,0.07328377,0.2941237986087799,0.012898984365165234,9.53977108001709,0.7255758047103882,0.5301637649536133, 1.4650017023086548
390,313176589,0.997192,0.003011283,-0.015088831,0.07328979,0.2882586419582367,0.04081357643008232,9.551239967346191,0.6835068464279175,0.3895115256309509, 1.5112067461013794
391,313193256,0.9971917,0.0030128995,-0.015087389,0.07329391,0.293287068605423,0.04202454164624214,9.542634963989258,0.6780514717102051,0.48473960161209106, 1.4901789426803589
392,313209923,0.99719214,0.003006352,-0.015080403,0.07328935,0.28247353434562683,0.03609635308384895,9.54085636138916,0.6249690651893616,0.5268212556838989, 1.4625300168991089
393,313226590,0.99719197,0.0030054161,-0.015085078,0.07329194,0.27952665090560913,0.051287587732076645,9.571749687194824,0.6577533483505249,0.44411784410476685, 1.4941233396530151
394,313243257,0.99719113,0.0030018545,-0.015089144,0.07330252,0.30040284991264343,0.02675311081111431,9.532150268554688,0.6408233046531677,0.44962453842163086, 1.5482043027877808
395,313259924,0.9971918,0.0030005432,-0.015081955,0.07329528,0.2847425937652588,0.025333978235721588,9.533029556274414,0.6605706810951233,0.5255276560783386, 1.440118670463562
396,313276591,0.9971928,0.0029983844,-0.015072441,0.07328306,0.3015759289264679,0.030261706560850143,9.543073654174805,0.6558195352554321,0.5418686866760254, 1.4195005893707275
397,313293258,0.99719214,0.0029964047,-0.015078742,0.07329084,0.27646470069885254,0.033482957631349564,9.541159629821777,0.650568962097168,0.43350139260292053, 1.5375494956970215
398,313309925,0.9971921,0.002998496,-0.01507962,0.07329158,0.29498037695884705,0.02774629555642605,9.545966148376465,0.6803693175315857,0.46848827600479126, 1.4843776226043701
399,313326592,0.99719113,0.0029980314,-0.015076357,0.07330491,0.289533406496048,0.03987252712249756,9.539690971374512,0.6658213138580322,0.4983270764350891, 1.5550429821014404
400,313343259,0.9971908,0.003001299,-0.015075994,0.07330947,0.2879794239997864,0.04578819125890732,9.534738540649414,0.6885141134262085,0.47635138034820557, 1.478947639465332
401,313359926,0.99719083,0.0030140313,-0.015066005,0.07330993,0.2943715453147888,0.03989281505346298,9.5413236618042,0.7587442994117737,0.5376682877540588, 1.4804973602294922
402,313376593,0.9971901,0.0030091933,-0.015061111,0.07332235,0.29632216691970825,0.042675670236349106,9.52125358581543,0.6366613507270813,0.511760950088501, 1.554146647453308
403,313393260,0.99719024,0.0030019132,-0.015056047,0.07332141,0.29400867223739624,0.030195578932762146,9.544529914855957,0.6188092231750488,0.5139636397361755, 1.4694197177886963
404,313409927,0.9971895,0.0029970987,-0.01506205,0.07333042,0.28635698556900024,0.04086599498987198,9.527213096618652,0.6313594579696655,0.43699750304222107, 1.5424672365188599
405,313426594,0.99718934,0.0029980384,-0.015060397,0.073332354,0.289652019739151,0.037214286625385284,9.546740531921387,0.6734411120414734,0.48643001914024353, 1.478563666343689
406,313443261,0.9971887,0.0029971295,-0.015060243,0.073341966,0.2838471829891205,0.03688250482082367,9.535460472106934,0.661313533782959,0.4772607088088989, 1.5492419004440308
407,313459928,0.9971888,0.0029917294,-0.015058436,0.07334124,0.29221993684768677,0.05098162218928337,9.537739753723145,0.629950761795044,0.49064329266548157, 1.4644381999969482
408,313476595,0.99718815,0.0029945672,-0.015063346,0.073349655,0.2979954481124878,0.02362026646733284,9.544679641723633,0.684249758720398,0.440557599067688, 1.5379849672317505
409,313493262,0.9971875,0.0029904167,-0.015053576,0.07335933,0.28196150064468384,0.04773417487740517,9.546651840209961,0.6440377831459045,0.5448270440101624, 1.5520721673965454
410,313509929,0.9971875,0.002975508,-0.015055646,0.07335935,0.2898688018321991,0.03278117626905441,9.543913841247559,0.5623843669891357,0.46878284215927124, 1.455332636833191
411,313526596,0.9971871,0.0029708885,-0.015055481,0.07336517,0.29224693775177,0.03658638149499893,9.541459083557129,0.6351758241653442,0.4790407717227936, 1.5122827291488647
412,313543263,0.9971868,0.0029704534,-0.015049495,0.07337156,0.2875094413757324,0.043792881071567535,9.529189109802246,0.6673709750175476,0.5169347524642944, 1.5322734117507935
413,313559930,0.99718624,0.0029775323,-0.015058914,0.07337755,0.2905013859272003,0.03504173830151558,9.542696952819824,0.710810124874115,0.4074532687664032, 1.520542860031128
414,313576597,0.99718523,0.0029757037,-0.015062712,0.07338907,0.3029750883579254,0.0304607842117548,9.523738861083984,0.6521697640419006,0.4504569470882416, 1.5266770124435425
415,313593264,0.9971838,0.002986418,-0.015058493,0.0734083,0.2977430522441864,0.038357365876436234,9.548348426818848,0.7436838746070862,0.4993002712726593, 1.6002620458602905
416,313609931,0.9971834,0.0029855839,-0.015062618,0.07341356,0.2894980311393738,0.03739215433597565,9.531933784484863,0.659430980682373,0.44781890511512756, 1.5262032747268677
417,313626598,0.9971837,0.0029829137,-0.015063465,0.07340977,0.29754000902175903,0.03549475967884064,9.527823448181152,0.6471241116523743,0.47106242179870605, 1.4510810375213623
418,313643265,0.9971824,0.0029809198,-0.01506087,0.07342799,0.29498812556266785,0.03456321731209755,9.547903060913086,0.6554867029190063,0.4945749044418335, 1.591848611831665
419,313659932,0.9971827,0.0029797552,-0.015062599,0.07342258,0.2923055589199066,0.031556472182273865,9.548680305480957,0.6566135287284851,0.46417251229286194, 1.4302706718444824
420,313676599,0.9971829,0.0029791053,-0.015064571,0.07342172,0.28952667117118835,0.03286226466298103,9.539280891418457,0.6604169607162476,0.46235403418540955, 1.4597123861312866
421,313693266,0.99718267,0.0029856279,-0.0150587885,0.07342393,0.2838788628578186,0.027363775297999382,9.538008689880371,0.71452397108078,0.5119914412498474, 1.5024091005325317
422,313709933,0.9971822,0.0029858132,-0.015047518,0.07343308,0.29173725843429565,0.04027753695845604,9.547167778015137,0.6745809316635132,0.5528949499130249, 1.5512781143188477
423,313726600,0.9971814,0.002988147,-0.015044263,0.07344436,0.2985241115093231,0.03195113316178322,9.535462379455566,0.6846594214439392,0.4968031048774719, 1.5398930311203003
424,313743267,0.997181,0.0029925783,-0.0150451595,0.07345011,0.2885435223579407,0.04785485193133354,9.53974437713623,0.6961339712142944,0.4671948552131653, 1.49040949344635
425,313759934,0.9971805,0.002998251,-0.015048747,0.07345604,0.28585490584373474,0.04007793590426445,9.535248756408691,0.7038306593894958,0.4481518268585205, 1.5136915445327759
426,313776601,0.99718064,0.0029897878,-0.01504691,0.07345502,0.29130131006240845,0.03440369665622711,9.541228294372559,0.6097679734230042,0.4925002455711365, 1.4917798042297363
427,313793268,0.9971803,0.0029906717,-0.015040751,0.07346001,0.2949136793613434,0.02288247086107731,9.546031951904297,0.6753620505332947,0.5173189043998718, 1.4915876388549805
428,313809935,0.99717987,0.0029960293,-0.01503187,0.07346767,0.29713869094848633,0.044132985174655914,9.553329467773438,0.7080055475234985,0.5338263511657715, 1.519416093826294
429,313826602,0.9971804,0.002993282,-0.01502013,0.07346282,0.2963819205760956,0.031053462997078896,9.533614158630371,0.6528869271278381,0.5574411749839783, 1.4440375566482544
430,313843269,0.997179,0.002994007,-0.01501537,0.073483355,0.284647673368454,0.031883496791124344,9.529666900634766,0.6754069328308105,0.5081047415733337, 1.60368812084198
431,313859936,0.9971788,0.0029984098,-0.0150148375,0.0734863,0.2910071015357971,0.03519657999277115,9.528698921203613,0.6973249912261963,0.47704294323921204, 1.5045477151870728
432,313876603,0.99717945,0.003008614,-0.015020101,0.073475465,0.2885560095310211,0.030254125595092773,9.531530380249023,0.7330418229103088,0.4342440962791443, 1.4198206663131714
433,313893270,0.9971797,0.0030093468,-0.015012585,0.07347256,0.28949591517448425,0.0317671075463295,9.536741256713867,0.6741839647293091,0.5266291499137878, 1.4347786903381348
434,313909937,0.9971795,0.0030184549,-0.015013857,0.07347502,0.281188428401947,0.02298743836581707,9.542731285095215,0.7290335297584534,0.46236687898635864, 1.5121163129806519
435,313926604,0.99717927,0.0030235907,-0.015004438,0.07347969,0.28453749418258667,0.04208872467279434,9.548131942749023,0.7073522806167603,0.537680983543396, 1.5224508047103882
436,313943271,0.99717885,0.0030258151,-0.015005938,0.07348596,0.2930827736854553,0.036102961748838425,9.539519309997559,0.6814195513725281,0.46418535709381104, 1.514831304550171
437,313959938,0.9971787,0.0030210987,-0.015007918,0.073486924,0.28679680824279785,0.03360670432448387,9.538032531738281,0.6337671279907227,0.46441587805747986, 1.5044195652008057
438,313976605,0.9971789,0.003023328,-0.014999415,0.07348525,0.2927866578102112,0.053779762238264084,9.542352676391602,0.6864523887634277,0.5327506065368652, 1.4871054887771606
439,313993272,0.99717903,0.0030236195,-0.014995321,0.073484704,0.3029215633869171,0.029960179701447487,9.533915519714355,0.6703932881355286,0.5034369230270386, 1.4750547409057617
440,314009939,0.99717814,0.0030191652,-0.014990548,0.07349772,0.2899128198623657,0.0424228236079216,9.540872573852539,0.6400038003921509,0.5107877254486084, 1.579669713973999
441,314026606,0.99717855,0.0030203837,-0.014988862,0.073491804,0.29364973306655884,0.047051042318344116,9.520087242126465,0.6755926012992859,0.4864940643310547, 1.4556145668029785
442,314043273,0.9971787,0.0030158754,-0.014987234,0.07349301,0.294382244348526,0.03130311891436577,9.520289421081543,0.6360466480255127,0.4890425205230713, 1.4762330055236816
443,314059940,0.9971792,0.0030107398,-0.014970997,0.07348712,0.2842978537082672,0.0321010947227478,9.529544830322266,0.6377242207527161,0.5893418192863464, 1.4054776430130005
444,314076607,0.9971791,0.00301619,-0.014970944,0.07348988,0.2814444303512573,0.04036870226264,9.536905288696289,0.703279972076416,0.4731626510620117, 1.4714689254760742
445,314093274,0.9971796,0.0030144977,-0.014975692,0.073481955,0.2897011339664459,0.04180338606238365,9.540946960449219,0.6525411605834961,0.443861722946167, 1.4527587890625
446,314109941,0.9971791,0.0030070886,-0.014971256,0.07348965,0.2781966030597687,0.025132525712251663,9.526997566223145,0.618898868560791,0.5098143219947815, 1.5406486988067627
447,314126608,0.99717903,0.0029976382,-0.0149764,0.073489316,0.29206207394599915,0.04016157239675522,9.525869369506836,0.5986776947975159,0.4449886679649353, 1.4667561054229736
448,314143275,0.99717903,0.0030007435,-0.014978726,0.073488995,0.29649704694747925,0.03751413896679878,9.526470184326172,0.686887800693512,0.4580511748790741, 1.4863241910934448
449,314159942,0.99717855,0.0029998196,-0.014980969,0.073495016,0.29665815830230713,0.02989448420703411,9.557293891906738,0.6598280072212219,0.46075332164764404, 1.526382565498352
450,314176609,0.9971778,0.0029997665,-0.014985801,0.073504224,0.2925228178501129,0.0204134751111269,9.543768882751465,0.6648224592208862,0.4426066279411316, 1.5496387481689453
451,314193276,0.997177,0.0030044822,-0.014986599,0.07351476,0.2917616665363312,0.02948933281004429,9.534855842590332,0.7001039981842041,0.46791204810142517, 1.5675036907196045
452,314209943,0.9971772,0.0029973788,-0.014995022,0.073510505,0.2886359691619873,0.03758833184838295,9.534311294555664,0.6140196323394775,0.42147618532180786, 1.4832249879837036
453,314226610,0.9971774,0.00299598,-0.015000014,0.07350695,0.2851121127605438,0.02471381612122059,9.538955688476562,0.65407794713974,0.4420047402381897, 1.4582782983779907
454,314243277,0.9971781,0.002995498,-0.01499939,0.07349821,0.2870808243751526,0.02733852155506611,9.52025032043457,0.662747859954834,0.48001402616500854, 1.4278119802474976
455,314259944,0.99717873,0.0029971,-0.014993995,0.073490374,0.2814876139163971,0.046203985810279846,9.548108100891113,0.6792680621147156,0.5116329193115234, 1.4190523624420166
456,314276611,0.99717766,0.0029952487,-0.01499883,0.07350469,0.29568547010421753,0.034953150898218155,9.538745880126953,0.6524387001991272,0.4434775114059448, 1.565480351448059
457,314293278,0.9971782,0.0029997237,-0.015000045,0.07349776,0.2914029359817505,0.03129974380135536,9.553836822509766,0.6960059404373169,0.46491533517837524, 1.4368531703948975
458,314309945,0.9971774,0.0029981558,-0.0150083965,0.07350481,0.2867843508720398,0.03731450065970421,9.54034423828125,0.6525284051895142,0.4191838502883911, 1.535142183303833
459,314326612,0.99717695,0.0029986547,-0.015009265,0.07351144,0.27453774213790894,0.03358645737171173,9.54283332824707,0.6700474619865417,0.46941035985946655, 1.5208629369735718
460,314343279,0.9971762,0.0029968005,-0.015016697,0.07352011,0.2981906533241272,0.02339816838502884,9.544193267822266,0.6512989401817322,0.42563825845718384, 1.5517518520355225
461,314359946,0.9971764,0.0029929671,-0.015022125,0.07351651,0.29541492462158203,0.02672502212226391,9.524518966674805,0.6376857161521912,0.44023746252059937, 1.470072865486145
462,314376613,0.9971764,0.0029967162,-0.015025159,0.073515765,0.2831628620624542,0.047225579619407654,9.541670799255371,0.6911011338233948,0.4528645873069763, 1.4868237972259521
463,314393280,0.99717605,0.0029994105,-0.015019073,0.07352071,0.28744634985923767,0.023673173040151596,9.510483741760254,0.6887447237968445,0.515923023223877, 1.51607346534729
464,314409947,0.9971757,0.002999935,-0.015021691,0.07352492,0.3008941113948822,0.033197786659002304,9.533634185791016,0.6694583296775818,0.45734673738479614, 1.515215277671814
465,314426614,0.99717563,0.0030033782,-0.015025141,0.07352666,0.2835758626461029,0.030146276578307152,9.549078941345215,0.6882324814796448,0.45013684034347534, 1.4809455871582031
466,314443281,0.9971751,0.0030039086,-0.0150270825,0.07353369,0.29371148347854614,0.03439750522375107,9.51845932006836,0.6699450612068176,0.4620211124420166, 1.5248074531555176
467,314459948,0.9971747,0.0030030594,-0.015037251,0.073535845,0.29659372568130493,0.017139557749032974,9.55020523071289,0.6565110683441162,0.40627503395080566, 1.5150872468948364
468,314476615,0.9971749,0.0030057346,-0.015028729,0.07353446,0.2880306839942932,0.033675357699394226,9.556159019470215,0.6888471245765686,0.5325712561607361, 1.463336706161499
469,314493282,0.9971751,0.0030156139,-0.015023124,0.073532395,0.2910759449005127,0.04457584023475647,9.542034149169922,0.7369478344917297,0.5089308023452759, 1.462184190750122
470,314509949,0.997175,0.00302184,-0.015019983,0.073535316,0.2920841872692108,0.03081490658223629,9.539189338684082,0.7108997106552124,0.4939345419406891, 1.486849308013916
471,314526616,0.99717474,0.0030119137,-0.015017872,0.07353944,0.28695228695869446,0.02673529088497162,9.523154258728027,0.6002016663551331,0.4950743019580841, 1.5142549276351929
472,314543283,0.99717474,0.0030124895,-0.015018745,0.07353961,0.28847140073776245,0.04756416752934456,9.530248641967773,0.6707389950752258,0.4693334698677063, 1.4987846612930298
473,314559950,0.9971745,0.0030108343,-0.015021454,0.07354229,0.28765588998794556,0.0447549931704998,9.527743339538574,0.6538090109825134,0.45779502391815186, 1.4860681295394897
474,314576617,0.99717396,0.0030155634,-0.015019786,0.07354969,0.3028031587600708,0.01613861694931984,9.551703453063965,0.7012438178062439,0.48473960161209106, 1.551355004310608
475,314593284,0.9971736,0.0030189015,-0.015020305,0.07355351,0.29196780920028687,0.04217326641082764,9.542813301086426,0.6895771622657776,0.47025564312934875, 1.504496455192566
476,314609951,0.9971733,0.0030216856,-0.015031117,0.07355562,0.2795109748840332,0.03625914454460144,9.535486221313477,0.6809327602386475,0.40005114674568176, 1.5086071491241455
477,314626618,0.997173,0.003032029,-0.015033276,0.0735582,0.2853604555130005,0.025545353069901466,9.532295227050781,0.736576497554779,0.4555155038833618, 1.49129319190979
478,314643285,0.997173,0.003024871,-0.015025351,0.073559836,0.28295451402664185,0.022423045709729195,9.541465759277344,0.6222541332244873,0.5335573554039001, 1.508914589881897
479,314659952,0.9971792,0.0029868006,-0.01502818,0.07347699,0.2759178876876831,0.02741684578359127,9.562582015991211,0.6814963221549988,0.4839455783367157, 1.5872894525527954
480,314676619,0.9971786,0.0029824283,-0.015036411,0.07348315,0.28600430488586426,0.015834800899028778,9.554903984069824,0.6338695883750916,0.4213353395462036, 1.524794578552246
481,314693286,0.9971784,0.0029838032,-0.015034418,0.07348664,0.28939101099967957,0.03405185043811798,9.529814720153809,0.6782049536705017,0.48846617341041565, 1.5061739683151245
482,314709953,0.99717814,0.0029994086,-0.01503539,0.0734903,0.2807966470718384,0.036314044147729874,9.55080795288086,0.7746496200561523,0.46102219820022583, 1.5176869630813599
483,314726620,0.9971786,0.0030016047,-0.015037035,0.07348337,0.2946649491786957,0.04596922919154167,9.543646812438965,0.6813041567802429,0.4630456268787384, 1.4465731382369995
484,314743287,0.99717844,0.0030045127,-0.015044117,0.073484175,0.2742448151111603,0.0459483303129673,9.509687423706055,0.683366060256958,0.4253821074962616, 1.471238374710083
485,314759954,0.9971791,0.00300028,-0.015050361,0.07347424,0.2886088490486145,0.04947267100214958,9.525467872619629,0.6343689560890198,0.4346923232078552, 1.422215461730957
486,314776621,0.9971788,0.0029994713,-0.015042728,0.073480226,0.2897537648677826,0.04108503460884094,9.525362968444824,0.6663849353790283,0.528306782245636, 1.5272917747497559
487,314793288,0.99717873,0.0029916037,-0.015046111,0.07348017,0.3044299781322479,0.03838123381137848,9.559168815612793,0.6116760969161987,0.4562069773674011, 1.4823414087295532
488,314809955,0.9971786,0.0029893036,-0.015047696,0.073482,0.30346444249153137,0.03401805832982063,9.545661926269531,0.6507866978645325,0.46576058864593506, 1.4876818656921387
489,314826622,0.99717855,0.0029876076,-0.01505455,0.07347992,0.309974730014801,0.029934929683804512,9.54290771484375,0.6522594094276428,0.4293009042739868, 1.4735947847366333
490,314843289,0.9971781,0.0029865648,-0.015054999,0.07348639,0.30256909132003784,0.0439034141600132,9.567046165466309,0.6606860756874084,0.4730601906776428, 1.526408076286316
491,314859956,0.9971789,0.0029947693,-0.015059693,0.07347404,0.30911940336227417,0.04057792201638222,9.53415298461914,0.7206965088844299,0.4391233026981354, 1.4214855432510376
492,314876623,0.9971788,0.0029971683,-0.015051386,0.07347711,0.28550368547439575,0.04705430194735527,9.547796249389648,0.6886293888092041,0.5313802361488342, 1.5151640176773071
493,314893290,0.9971787,0.003000361,-0.015050789,0.07347849,0.28336966037750244,0.023747611790895462,9.518807411193848,0.6900508999824524,0.47806739807128906, 1.5032156705856323
494,314909957,0.9971785,0.0029960594,-0.01504865,0.07348201,0.29242685437202454,0.01831808127462864,9.521388053894043,0.6388256549835205,0.49239784479141235, 1.4908193349838257
495,314926624,0.99717844,0.0029952559,-0.015050673,0.07348261,0.28745824098587036,0.031124893575906754,9.523052215576172,0.6606988906860352,0.46204671263694763, 1.4772318601608276
496,314943291,0.9971778,0.0030007039,-0.015051884,0.07349189,0.2835089862346649,0.03226885944604874,9.544075012207031,0.7047269940376282,0.464518278837204, 1.5297632217407227
497,314959958,0.9971779,0.0029976908,-0.015057081,0.073488966,0.2869374454021454,0.04309229180216789,9.538200378417969,0.6436406970024109,0.44133880734443665, 1.457740306854248
498,314976625,0.99717915,0.0029907513,-0.015056531,0.07347122,0.28204962611198425,0.03809657320380211,9.543252944946289,0.6179640293121338,0.48254966735839844, 1.3519599437713623
499,314993292,0.9971795,0.0029821056,-0.015059645,0.07346654,0.285806804895401,0.02748953178524971,9.533023834228516,0.6068224906921387,0.458537757396698, 1.4762201309204102
500,315009959,0.9971791,0.0029893538,-0.015056899,0.07347329,0.27771106362342834,0.03980238735675812,9.559598922729492,0.7193519473075867,0.49073293805122375, 1.5328880548477173
501,315026626,0.9971788,0.002991052,-0.015061092,0.0734751,0.28677842020988464,0.03655479475855827,9.521369934082031,0.6764377355575562,0.4457697868347168, 1.47062349319458
502,315043293,0.9971792,0.002986689,-0.01506089,0.07346984,0.2775941789150238,0.04010599106550217,9.53846549987793,0.6375449299812317,0.47902795672416687, 1.4613263607025146
503,315059960,0.9971787,0.0029908381,-0.015062899,0.073476054,0.2884201407432556,0.03525988385081291,9.534168243408203,0.6957242488861084,0.45963913202285767, 1.5304805040359497
504,315076627,0.9971783,0.0029902463,-0.015064558,0.07348209,0.2853316366672516,0.03907303512096405,9.535184860229492,0.6629911661148071,0.46440309286117554, 1.5189677476882935
505,315093294,0.9971777,0.0029945432,-0.015066242,0.07349022,0.2821524441242218,0.0353674478828907,9.532970428466797,0.6968703866004944,0.4617842435836792, 1.5361474752426147
506,315109961,0.99717766,0.0029879597,-0.015067872,0.07349057,0.2851596176624298,0.026880307123064995,9.555234909057617,0.6219852566719055,0.4676431119441986, 1.5037153959274292
507,315126628,0.99717736,0.0029830544,-0.015068646,0.073494434,0.2837240993976593,0.02421857789158821,9.5349760055542,0.6334469318389893,0.472535103559494, 1.4986567497253418
508,315143295,0.9971767,0.002982663,-0.015064945,0.07350368,0.29871341586112976,0.029972558841109276,9.529658317565918,0.6678703427314758,0.5011188983917236, 1.5546973943710327
509,315159962,0.99717695,0.0029810283,-0.015061242,0.07350175,0.2965390682220459,0.03577800840139389,9.534619331359863,0.6579198241233826,0.5016310811042786, 1.4724420309066772
510,315176629,0.99717736,0.0029833973,-0.015057493,0.073497236,0.29566144943237305,0.023854227736592293,9.545660018920898,0.685094952583313,0.49981266260147095, 1.4496853351593018
511,315193296,0.9971775,0.0029787966,-0.015051139,0.07349706,0.29741647839546204,0.033528588712215424,9.557880401611328,0.6393634080886841,0.5213912725448608, 1.4915361404418945
512,315209963,0.99717766,0.0029764425,-0.015052688,0.07349306,0.28811949491500854,0.04498302936553955,9.53743839263916,0.6501080393791199,0.46595269441604614, 1.458355188369751
513,315226630,0.9971767,0.0029674605,-0.015047963,0.073506646,0.28930485248565674,0.04615680128335953,9.531298637390137,0.6085898280143738,0.512401282787323, 1.5430948734283447
514,315243297,0.9971768,0.0029712815,-0.0150521975,0.073505886,0.2913808822631836,0.023519473150372505,9.526728630065918,0.6914597153663635,0.4444763958454132, 1.477820873260498
515,315259964,0.99717677,0.0029648428,-0.015062663,0.07350428,0.2976614832878113,0.05317220836877823,9.52695369720459,0.6181048154830933,0.406902551651001, 1.478806734085083
516,315276631,0.99717736,0.0029548963,-0.015057764,0.073496826,0.28744441270828247,0.02588210254907608,9.518660545349121,0.6010212302207947,0.5139380693435669, 1.4358543157577515
517,315293298,0.9971771,0.0029527193,-0.015058544,0.07350065,0.28488579392433167,0.04378160461783409,9.519621849060059,0.6527973413467407,0.47124171257019043, 1.5177382230758667
518,315309965,0.99717635,0.002950464,-0.015060502,0.07351084,0.30688831210136414,0.039641913026571274,9.536734580993652,0.6516063213348389,0.46323779225349426, 1.5384076833724976
519,315326632,0.99717635,0.0029447495,-0.015063411,0.07350987,0.29921954870224,0.044914666563272476,9.544878005981445,0.6270309686660767,0.45840969681739807, 1.4920486211776733
520,315343299,0.99717665,0.0029518153,-0.015058005,0.07350746,0.2821621894836426,0.03114800900220871,9.545790672302246,0.7180712819099426,0.5089051723480225, 1.4574202299118042
521,315359966,0.997177,0.0029549387,-0.0150516555,0.07350471,0.2888152003288269,0.02900107391178608,9.547683715820312,0.6918309926986694,0.5174084901809692, 1.4665255546569824
522,315376633,0.99717677,0.002957075,-0.015055927,0.07350589,0.2950933873653412,0.03450080379843712,9.552373886108398,0.6794472932815552,0.445001482963562, 1.4725446701049805
523,315393300,0.9971771,0.002952552,-0.015055078,0.073501624,0.29003840684890747,0.03903543949127197,9.524765968322754,0.6364051103591919,0.48351016640663147, 1.45187509059906
524,315409967,0.99717695,0.0029571773,-0.015049092,0.073504426,0.27843961119651794,0.047373998910188675,9.558423042297363,0.7026140093803406,0.5141941905021667, 1.5077877044677734
525,315426634,0.997176,0.0029651755,-0.015051181,0.07351635,0.29246973991394043,0.03629586845636368,9.526354789733887,0.7224254012107849,0.4572315514087677, 1.5656722784042358
526,315443301,0.99717605,0.0029575387,-0.0150579065,0.07351365,0.2921745479106903,0.035342082381248474,9.541854858398438,0.6112534403800964,0.4331171214580536, 1.4616334438323975
527,315459968,0.99717575,0.0029625804,-0.015063061,0.07351872,0.2845246493816376,0.025211963802576065,9.53718090057373,0.699745237827301,0.43754813075065613, 1.5127692222595215
528,315476635,0.9971749,0.002958229,-0.015067599,0.07352905,0.29438525438308716,0.03536229208111763,9.5267333984375,0.6371352076530457,0.4467303454875946, 1.579272747039795
529,315493302,0.99717474,0.0029572258,-0.015067501,0.07353079,0.2825746238231659,0.021484581753611565,9.527641296386719,0.6608523726463318,0.47662031650543213, 1.497183918952942
530,315509969,0.9971758,0.002959372,-0.015074987,0.07351483,0.28606778383255005,0.04626794531941414,9.535101890563965,0.6770204901695251,0.42286568880081177, 1.3848273754119873
531,315526636,0.9971749,0.0029641052,-0.015076464,0.07352707,0.2838733196258545,0.03461046516895294,9.516212463378906,0.7001808285713196,0.4630328416824341, 1.5609084367752075
532,315543303,0.99717516,0.002957799,-0.015078832,0.07352339,0.28516140580177307,0.029984893277287483,9.527429580688477,0.6235476136207581,0.462405264377594, 1.4874768257141113
533,315559970,0.99717426,0.0029512383,-0.015078262,0.07353567,0.29356810450553894,0.039287395775318146,9.527120590209961,0.6241495013237,0.48279300332069397, 1.5737532377243042
534,315576637,0.99717444,0.0029417386,-0.015085914,0.073532365,0.2904532849788666,0.029768362641334534,9.542298316955566,0.5981141924858093,0.4277128577232361, 1.4621329307556152
535,315593304,0.99717456,0.0029379046,-0.0150839975,0.07353177,0.28453975915908813,0.01342073641717434,9.546142578125,0.6417837738990784,0.4904383718967438, 1.4728517532348633
536,315609971,0.9971748,0.0029407584,-0.015083444,0.073526815,0.28923895955085754,0.02640918269753456,9.524848937988281,0.6866060495376587,0.4776320457458496, 1.4409897327423096
537,315626638,0.9971744,0.002941244,-0.0150891235,0.07353295,0.29379427433013916,0.034146714955568314,9.53438663482666,0.668843686580658,0.4362931549549103, 1.533003330230713
538,315643305,0.9971739,0.0029430632,-0.015088234,0.073539056,0.28558099269866943,0.03291112929582596,9.546086311340332,0.6807152032852173,0.48062872886657715, 1.5137426853179932
539,315659972,0.9971737,0.0029353558,-0.015080767,0.07354364,0.29113200306892395,0.041008200496435165,9.535205841064453,0.6187835931777954,0.5305479168891907, 1.5124492645263672
540,315676639,0.9971743,0.002925639,-0.015068953,0.07353815,0.2913147211074829,0.04018025100231171,9.534086227416992,0.606220543384552,0.5612574815750122, 1.4455487728118896
541,315693306,0.9971744,0.0029248977,-0.015069988,0.073537216,0.28044065833091736,0.022013608366250992,9.512652397155762,0.661512017250061,0.4686099886894226, 1.4677612781524658
542,315709973,0.9971741,0.0029201831,-0.015071068,0.07354095,0.2928209900856018,0.030153146013617516,9.551107406616211,0.6353422999382019,0.47043487429618835, 1.5196592807769775
543,315726640,0.99717337,0.0029210192,-0.015063961,0.07355204,0.2845459580421448,0.03879891335964203,9.542903900146484,0.677846372127533,0.5237860679626465, 1.554620385169983
544,315743307,0.9971727,0.002918148,-0.015062675,0.07356065,0.2982369363307953,0.04043563827872276,9.534149169921875,0.6496085524559021,0.48571285605430603, 1.548883318901062
545,315759974,0.9971721,0.0029159472,-0.015060583,0.073569395,0.2990819811820984,0.023835981264710426,9.545722961425781,0.654628574848175,0.49098899960517883, 1.5528018474578857
546,315776641,0.9971734,0.0029192825,-0.015061874,0.07355213,0.2882625460624695,0.02758629247546196,9.536203384399414,0.6887062788009644,0.46471044421195984, 1.388598918914795
547,315793308,0.99717295,0.0029073579,-0.015054248,0.0735608,0.29580456018447876,0.02428557723760605,9.541619300842285,0.5911347270011902,0.5338903069496155, 1.5675294399261475
548,315809975,0.9971729,0.0029023623,-0.015053539,0.07356012,0.29064419865608215,0.03439675644040108,9.544449806213379,0.6337927579879761,0.4827417731285095, 1.4870671033859253
549,315826642,0.99717385,0.002906126,-0.015048438,0.07355024,0.2849973440170288,0.0402459092438221,9.525652885437012,0.6949430108070374,0.5083673000335693, 1.417797327041626
550,315843309,0.9971735,0.0029070491,-0.0150492415,0.0735547,0.2830137610435486,0.03413255512714386,9.541994094848633,0.6741583347320557,0.4694487750530243, 1.5200177431106567
551,315859976,0.9971732,0.0029136308,-0.015051401,0.07355649,0.28909000754356384,0.014195902273058891,9.537164688110352,0.7120266556739807,0.4572827219963074, 1.5040864944458008
552,315876643,0.9971737,0.002913359,-0.015050513,0.07355035,0.28820085525512695,0.030257832258939743,9.53543758392334,0.6655012369155884,0.48153799772262573, 1.4410408735275269
553,315893310,0.9971733,0.0029233827,-0.015060549,0.07355366,0.2903667986392975,0.025292595848441124,9.543802261352539,0.731402575969696,0.40145987272262573, 1.5040864944458008
554,315909977,0.99717283,0.0029257657,-0.015059531,0.07355966,0.2972113788127899,0.026614999398589134,9.523242950439453,0.6849156618118286,0.48123064637184143, 1.5191596746444702
555,315926644,0.9971731,0.0029329616,-0.015054324,0.073557,0.30434492230415344,0.03580356016755104,9.516134262084961,0.7194287180900574,0.507394015789032, 1.4705723524093628
556,315943311,0.9971727,0.0029375174,-0.015057002,0.073561735,0.28723397850990295,0.037365883588790894,9.538817405700684,0.698631227016449,0.45482391119003296, 1.5401235818862915
557,315959978,0.9971726,0.002932289,-0.015055989,0.07356335,0.27239304780960083,0.02239053137600422,9.539596557617188,0.6324864029884338,0.48499566316604614, 1.4976835250854492
558,315976645,0.9971723,0.0029313425,-0.015056546,0.07356759,0.29881107807159424,0.0324019193649292,9.537986755371094,0.6616464257240295,0.472099632024765, 1.5260878801345825
559,315993312,0.99717253,0.002939802,-0.015057851,0.07356402,0.2895720601081848,0.037309370934963226,9.534812927246094,0.7252299785614014,0.46216192841529846, 1.4800745248794556
560,316009979,0.99717253,0.0029400093,-0.015063494,0.07356305,0.2780836522579193,0.02677454613149166,9.51991081237793,0.6666409969329834,0.4366389214992523, 1.4988616704940796
561,316026646,0.9971721,0.0029462944,-0.015062347,0.07356852,0.28266099095344543,0.037762150168418884,9.52442741394043,0.7120522260665894,0.4800651967525482, 1.5262670516967773
562,316043313,0.9971723,0.0029445498,-0.015067237,0.073565006,0.27809399366378784,0.0297586377710104,9.529302597045898,0.6539753675460815,0.4427090883255005, 1.4983749389648438
563,316059980,0.9971721,0.002941665,-0.015064768,0.07356821,0.28001371026039124,0.03647251054644585,9.530411720275879,0.6491475105285645,0.49372968077659607, 1.4998093843460083
564,316076647,0.99717164,0.0029451596,-0.015069283,0.07357389,0.29362422227859497,0.023217352107167244,9.538841247558594,0.6897308230400085,0.4426195025444031, 1.518263339996338
565,316093314,0.9971707,0.0029445072,-0.015078129,0.07358516,0.2833441197872162,0.04681004583835602,9.527271270751953,0.6594693660736084,0.4150601625442505, 1.5508297681808472
566,316109981,0.9971709,0.0029526032,-0.015079865,0.07358154,0.2863931655883789,0.03356608375906944,9.54351806640625,0.7217851877212524,0.4592037498950958, 1.456331729888916
567,316126648,0.9971706,0.0029549184,-0.0150758345,0.07358647,0.2930801808834076,0.04380228370428085,9.539860725402832,0.6861066222190857,0.5018360614776611, 1.5208884477615356
568,316143315,0.99716896,0.002938576,-0.015077162,0.0736083,0.28218966722488403,0.032505083829164505,9.51749038696289,0.5564167499542236,0.47462254762649536, 1.6108148097991943
569,316159982,0.99716926,0.002948754,-0.015085206,0.073602356,0.29087942838668823,0.031521301716566086,9.533538818359375,0.7325937151908875,0.4148809313774109, 1.437135100364685
570,316176649,0.99716973,0.0029458504,-0.015069719,0.073599316,0.29488304257392883,0.02011028490960598,9.538819313049316,0.655307412147522,0.5829386711120605, 1.4664616584777832
571,316193316,0.9971708,0.002952825,-0.01505527,0.073588535,0.30352216958999634,0.03648948669433594,9.521747589111328,0.7222716808319092,0.5707853436470032, 1.4295024871826172
572,316209983,0.99717104,0.002949106,-0.015049136,0.07358649,0.2805706262588501,0.05636311694979668,9.530804634094238,0.6455745100975037,0.519278347492218, 1.488001823425293
573,316226650,0.99717194,0.002950941,-0.015038243,0.07357556,0.29340311884880066,0.03271779790520668,9.532025337219238,0.6849541068077087,0.5489634275436401, 1.4219082593917847
574,316243317,0.9971722,0.0029535547,-0.015035446,0.07357354,0.28126758337020874,0.04579189792275429,9.542147636413574,0.6864780187606812,0.4931149184703827, 1.4623252153396606
575,316259984,0.99717206,0.0029447856,-0.015030768,0.0735746,0.2837063670158386,0.04438245669007301,9.535194396972656,0.6100113391876221,0.5118377804756165, 1.4945331811904907
576,316276651,0.9971725,0.0029491482,-0.015025093,0.073571526,0.2861722707748413,0.029783274978399277,9.527946472167969,0.7003984451293945,0.5119914412498474, 1.4767576456069946
577,316293318,0.99717295,0.0029504574,-0.015019626,0.07356606,0.2952236533164978,0.029115721583366394,9.541157722473145,0.6790374517440796,0.5120553970336914, 1.4573560953140259
578,316309985,0.99717337,0.0029536583,-0.015021657,0.0735595,0.2867623567581177,0.04080292582511902,9.534409523010254,0.6881427764892578,0.4597031772136688, 1.4500824213027954
579,316326652,0.9971732,0.0029562712,-0.015017017,0.07356306,0.2997051179409027,0.030080163851380348,9.54275894165039,0.6883220672607422,0.5058572888374329, 1.5124107599258423
580,316343319,0.9971732,0.002954363,-0.015016029,0.07356337,0.2990548610687256,0.03830268234014511,9.526178359985352,0.6552177667617798,0.4830491244792938, 1.4901918172836304
581,316359986,0.9971729,0.002954148,-0.015022655,0.073566146,0.2783050239086151,0.043381765484809875,9.523503303527832,0.6630807518959045,0.4300564229488373, 1.5055848360061646
582,316376653,0.99717283,0.002950074,-0.015025694,0.07356642,0.2785150706768036,0.053105030208826065,9.546770095825195,0.6382108926773071,0.4565143883228302, 1.4895899295806885
583,316393320,0.9971723,0.0029477396,-0.015031859,0.07357233,0.29512277245521545,0.019303685054183006,9.54266357421875,0.6489553451538086,0.4342440962791443, 1.5224634408950806
584,316409987,0.9971723,0.002950586,-0.015033204,0.073572256,0.2953147292137146,0.04406610131263733,9.532942771911621,0.6870927810668945,0.46464645862579346, 1.5046244859695435
585,316426654,0.9971724,0.0029468336,-0.015020734,0.07357295,0.2907290458679199,0.043372590094804764,9.540467262268066,0.6480589509010315,0.5626533627510071, 1.4846850633621216
586,316443321,0.99717236,0.0029401707,-0.0150174,0.07357486,0.27848803997039795,0.034340228885412216,9.546806335449219,0.6236757040023804,0.5015543699264526, 1.4961082935333252
587,316459988,0.9971725,0.0029335702,-0.015011645,0.073574826,0.2949836850166321,0.02683946304023266,9.522884368896484,0.6250715255737305,0.5180232524871826, 1.479242205619812
588,316476655,0.997172,0.002937775,-0.015021589,0.073579416,0.2896901071071625,0.04300309717655182,9.539591789245605,0.6910241842269897,0.40491753816604614, 1.489691972732544
589,316493322,0.99717146,0.0029314822,-0.015015993,0.07358696,0.30233126878738403,0.03866320103406906,9.542068481445312,0.6277096271514893,0.5168835520744324, 1.528533935546875
590,316509989,0.9971709,0.0029378207,-0.015020285,0.07359344,0.29058751463890076,0.03223119676113129,9.533278465270996,0.7092732787132263,0.4427219033241272, 1.5238338708877563
591,316526656,0.9971707,0.0029430026,-0.015023903,0.0735962,0.3020993173122406,0.034976858645677567,9.538325309753418,0.7012308835983276,0.44784441590309143, 1.494148850440979
592,316543323,0.99717087,0.0029353695,-0.015028199,0.07359218,0.28937581181526184,0.045638199895620346,9.543496131896973,0.6128159165382385,0.4497014284133911, 1.463349461555481
593,316559990,0.9971712,0.0029412685,-0.015034733,0.0735857,0.29915106296539307,0.04007130116224289,9.538926124572754,0.7043555974960327,0.4275079369544983, 1.4498900175094604
594,316576657,0.9971721,0.0029441162,-0.015029418,0.07357543,0.29566192626953125,0.048679232597351074,9.52367877960205,0.6885654926300049,0.5102114081382751, 1.4077316522598267
595,316593324,0.99717176,0.0029397074,-0.015023254,0.07358204,0.2920446991920471,0.04508046805858612,9.533616065979004,0.6416558027267456,0.519982635974884, 1.5489857196807861
596,316609991,0.9971715,0.0029454788,-0.015025356,0.07358289,0.29177916049957275,0.04429371654987335,9.525392532348633,0.7067248821258545,0.45801275968551636, 1.5080311298370361
597,316626658,0.99717146,0.0029364969,-0.015023018,0.073585644,0.2977921962738037,0.05215722322463989,9.530633926391602,0.6080390810966492,0.49602195620536804, 1.5274838209152222
598,316643325,0.9971716,0.0029276328,-0.015028567,0.07358315,0.2825900912284851,0.03177684172987938,9.53303337097168,0.6038641929626465,0.4417230486869812, 1.4750417470932007
599,316659992,0.99717146,0.0029626866,-0.0150387585,0.07358081,0.2821292579174042,0.03387771546840668,9.522649765014648,0.6899357438087463,0.42676523327827454, 1.4521183967590332
600,316676659,0.99717146,0.00297109,-0.015028929,0.07358352,0.2875000536441803,0.02495182305574417,9.536493301391602,0.7303268909454346,0.5386414527893066, 1.513883352279663
601,316693326,0.99717164,0.0029786415,-0.015023723,0.0735821,0.30020034313201904,0.042316511273384094,9.54321575164795,0.7204403877258301,0.5071121454238892, 1.4447163343429565
602,316709993,0.99717087,0.0029674924,-0.015025601,0.07359157,0.2853618264198303,0.029722275212407112,9.556124687194824,0.5899437069892883,0.468168169260025, 1.524833083152771
603,316726660,0.9971709,0.002960163,-0.015028599,0.073589735,0.28559064865112305,0.042950380593538284,9.558144569396973,0.6156076788902283,0.45858898758888245, 1.488437294960022
604,316743327,0.9971711,0.0029620267,-0.015036405,0.07358721,0.298739492893219,0.037853773683309555,9.541472434997559,0.6753109097480774,0.42084869742393494, 1.4567158222198486
605,316759994,0.9971708,0.002954904,-0.015038113,0.073590696,0.30031076073646545,0.029090862721204758,9.5169095993042,0.6180537343025208,0.4673997759819031, 1.5201202630996704
606,316776661,0.9971709,0.0029593802,-0.015041701,0.073587775,0.2973705530166626,0.029856780543923378,9.538311958312988,0.6961595416069031,0.448548823595047, 1.4810864925384521
607,316793328,0.9971707,0.0029643823,-0.0150369285,0.07359222,0.2961028516292572,0.03399123251438141,9.526847839355469,0.7045221924781799,0.5057036280632019, 1.5219515562057495
608,316809995,0.9971703,0.0029726834,-0.015044274,0.07359586,0.28442075848579407,0.037949442863464355,9.51472282409668,0.7207606434822083,0.4209127426147461, 1.5128974914550781
609,316826662,0.9971701,0.0029709672,-0.015047596,0.0735979,0.2846851944923401,0.043195657432079315,9.544278144836426,0.6541803479194641,0.4535689055919647, 1.5100799798965454
610,316843329,0.9971698,0.002970322,-0.015046723,0.07360262,0.28855958580970764,0.03977712616324425,9.526595115661621,0.6634650230407715,0.48175570368766785, 1.5128589868545532
611,316859996,0.99717,0.0029642144,-0.01504857,0.0735996,0.2998250424861908,0.0338742733001709,9.554509162902832,0.624213457107544,0.46586304903030396, 1.4759254455566406
612,316876663,0.99716944,0.0029697663,-0.015044146,0.07360715,0.2809430956840515,0.04599878191947937,9.536843299865723,0.7082615494728088,0.5030525922775269, 1.5411609411239624
613,316893330,0.99716914,0.0029682755,-0.01504445,0.07361104,0.28810662031173706,0.026587845757603645,9.557645797729492,0.6570488810539246,0.4741358757019043, 1.511731743812561
614,316909997,0.99716896,0.0029647383,-0.015039413,0.07361414,0.28591737151145935,0.037356097251176834,9.544466972351074,0.6455104351043701,0.5116841793060303, 1.4985032081604004
615,316926664,0.99716884,0.0029621362,-0.015044504,0.0736161,0.2931159436702728,0.02955438755452633,9.549527168273926,0.6466373801231384,0.4417742192745209, 1.493546962738037
616,316943331,0.9971686,0.0029602642,-0.015038263,0.07362103,0.2780282497406006,0.04253504052758217,9.538244247436523,0.6579710245132446,0.5192142128944397, 1.5188267230987549
617,316959998,0.9971676,0.0029652095,-0.015048499,0.07363234,0.2973446249961853,0.03889990597963333,9.54094409942627,0.6964669823646545,0.4027789235115051, 1.5457202196121216
618,316976665,0.99716735,0.0029614072,-0.015048832,0.073634245,0.2938484847545624,0.04183252900838852,9.540533065795898,0.6408424973487854,0.47506430745124817, 1.4950387477874756
619,316993332,0.9971676,0.0029731216,-0.015048716,0.07363093,0.28492048382759094,0.03765615075826645,9.532370567321777,0.7465910911560059,0.4701659381389618, 1.4462404251098633
620,317009999,0.99716765,0.0029625962,-0.0150539465,0.07363009,0.2806587815284729,0.027856998145580292,9.541473388671875,0.5922744870185852,0.4447837173938751, 1.4818164110183716
621,317026666,0.99716794,0.0029685288,-0.015050641,0.07362703,0.29014062881469727,0.02793513424694538,9.525456428527832,0.7092092037200928,0.49502304196357727, 1.4697527885437012
622,317043333,0.9971673,0.0029703898,-0.015047012,0.07363503,0.2865113317966461,0.027532190084457397,9.539591789245605,0.6827769875526428,0.4994668662548065, 1.5471415519714355
623,317060000,0.9971671,0.0029645076,-0.015049092,0.07363758,0.2816333770751953,0.031955454498529434,9.563009262084961,0.625583827495575,0.46409571170806885, 1.489717960357666
624,317076667,0.9971664,0.002959938,-0.015052283,0.07364626,0.2899026870727539,0.026769747957587242,9.546093940734863,0.6350348591804504,0.4559124708175659, 1.545284628868103
625,317093334,0.99716634,0.002954582,-0.015062485,0.07364545,0.29529622197151184,0.045691750943660736,9.552835464477539,0.6254684925079346,0.4081703722476959, 1.4928425550460815
626,317110001,0.9971668,0.0029522544,-0.015052438,0.07364314,0.28446248173713684,0.037334144115448,9.545187950134277,0.6557427048683167,0.545415997505188, 1.4625170230865479
627,317126668,0.9971663,0.002954032,-0.015053705,0.07365047,0.2786576747894287,0.030409399420022964,9.55285930633545,0.6792423129081726,0.46585017442703247, 1.5295839309692383
628,317143335,0.99716675,0.002963302,-0.01504636,0.073644206,0.29144254326820374,0.042142730206251144,9.54184627532959,0.7338486909866333,0.5209815502166748, 1.4451262950897217
629,317160002,0.9971669,0.0029670077,-0.015051308,0.07364195,0.29064425826072693,0.03422757238149643,9.542695045471191,0.6900382041931152,0.43953317403793335, 1.478678822517395
630,317176669,0.99716717,0.0029621946,-0.015048797,0.073637284,0.2842526137828827,0.04898097738623619,9.542016983032227,0.6350604295730591,0.49502304196357727, 1.4610445499420166
631,317193336,0.99716765,0.0029631208,-0.015050741,0.07363028,0.2836310565471649,0.0278500784188509,9.53258228302002,0.6722500920295715,0.46153441071510315, 1.4561140537261963
632,317210003,0.9971669,0.002956354,-0.015057796,0.07363957,0.28876277804374695,0.03228696808218956,9.54484748840332,0.618540346622467,0.43055590987205505, 1.568796992301941
633,317226670,0.99716693,0.0029671998,-0.015055077,0.07363787,0.3023557960987091,0.025154689326882362,9.530638694763184,0.7428258657455444,0.4885045886039734, 1.4802154302597046
634,317243337,0.99716693,0.0029610686,-0.015055885,0.07363763,0.284141480922699,0.037713997066020966,9.542513847351074,0.6251100301742554,0.47299620509147644, 1.503177523612976
635,317260004,0.99716663,0.0029523924,-0.01505835,0.07364302,0.2786695063114166,0.024764548987150192,9.534982681274414,0.607001781463623,0.46286633610725403, 1.522822380065918
636,317276671,0.99716574,0.0029497326,-0.015062116,0.073654555,0.29224303364753723,0.029896585270762444,9.537799835205078,0.6477131843566895,0.4509051442146301, 1.5496388673782349
637,317293338,0.99716616,0.0029521189,-0.015062559,0.07364916,0.29551705718040466,0.028360532596707344,9.544071197509766,0.6823799014091492,0.4709983170032501, 1.440835952758789
638,317310005,0.9971661,0.002937814,-0.015064717,0.07365077,0.28490564227104187,0.03219515457749367,9.544578552246094,0.568313717842102,0.4678351581096649, 1.5065070390701294
639,317326672,0.9971651,0.0029457978,-0.015064463,0.07366325,0.27590176463127136,0.032540809363126755,9.53505802154541,0.7233858108520508,0.47314977645874023, 1.5718576908111572
640,317343339,0.9971646,0.0029401758,-0.015062842,0.07367061,0.2933832108974457,0.03701883554458618,9.554247856140137,0.6296690106391907,0.4893242418766022, 1.5209141969680786
641,317360006,0.9971641,0.0029474231,-0.015063571,0.07367739,0.2901926338672638,0.035386405885219574,9.52584457397461,0.7170851230621338,0.46674659848213196, 1.5308645963668823
642,317376673,0.9971635,0.0029456625,-0.01506605,0.073684864,0.2902986705303192,0.03559437766671181,9.547237396240234,0.6535784006118774,0.4592548906803131, 1.5047909021377563
643,317393340,0.99716324,0.0029515452,-0.015065104,0.07368852,0.2872464954853058,0.03370629996061325,9.525640487670898,0.7086586356163025,0.4789639115333557, 1.5227711200714111
644,317410007,0.9971624,0.0029524642,-0.015068297,0.073698625,0.294002890586853,0.013839390128850937,9.534089088439941,0.6719300150871277,0.4529285728931427, 1.5250507593154907
645,317426674,0.9971629,0.0029539724,-0.0150592085,0.073694214,0.2945629954338074,0.040277428925037384,9.537934303283691,0.6820085644721985,0.5368998050689697, 1.4668970108032227
646,317443341,0.9971629,0.0029539193,-0.01505625,0.07369508,0.2895301580429077,0.026534687727689743,9.527223587036133,0.6684466600418091,0.4957018494606018, 1.4972096681594849
647,317460008,0.9971628,0.0029476513,-0.01505554,0.073695965,0.2885797321796417,0.03288634493947029,9.538734436035156,0.624341607093811,0.48336929082870483, 1.4853765964508057
648,317476675,0.9971623,0.002945188,-0.015054476,0.07370249,0.27240225672721863,0.0303783118724823,9.527567863464355,0.65179842710495,0.4839840233325958, 1.5416476726531982
649,317493342,0.9971622,0.0029426734,-0.015068345,0.07370119,0.29192155599594116,0.03697190806269646,9.535290718078613,0.6434102058410645,0.3815332055091858, 1.5000654458999634
650,317510009,0.9971619,0.0029357495,-0.015073565,0.07370458,0.284258633852005,0.030780162662267685,9.525343894958496,0.6169523000717163,0.44308051466941833, 1.4959545135498047
651,317526676,0.99716157,0.0029390352,-0.015076565,0.07370866,0.2935985326766968,0.03271143510937691,9.548138618469238,0.6888087391853333,0.45318472385406494, 1.5238980054855347
652,317543343,0.9971617,0.0029377795,-0.015076617,0.07370659,0.29472771286964417,0.04913140460848808,9.54012393951416,0.6584705710411072,0.4755830466747284, 1.4746192693710327
653,317560010,0.9971626,0.002937116,-0.015064019,0.07369719,0.2932720184326172,0.04250168427824974,9.54619026184082,0.667844831943512,0.5618850588798523, 1.4167729616165161
654,317576677,0.9971629,0.0029359628,-0.015066176,0.07369235,0.28565239906311035,0.02123245783150196,9.539844512939453,0.6573179364204407,0.4610093832015991, 1.4395297765731812
655,317593344,0.9971636,0.0029326626,-0.015055034,0.073685035,0.2877867519855499,0.04990462213754654,9.548602104187012,0.6498518586158752,0.5533559918403625, 1.4483405351638794
656,317610011,0.99716294,0.002932541,-0.015057291,0.0736926,0.29434219002723694,0.039923474192619324,9.534026145935059,0.6656932234764099,0.45990800857543945, 1.529955506324768
657,317626678,0.9971632,0.0029285687,-0.015062901,0.073689945,0.2880580723285675,0.03100358508527279,9.533014297485352,0.6374937295913696,0.4389697313308716, 1.4943794012069702
658,317643345,0.9971629,0.002928435,-0.015060611,0.073695034,0.28061822056770325,0.029579881578683853,9.54227066040039,0.6680240035057068,0.4911811053752899, 1.5285594463348389
659,317660012,0.99716353,0.0029239373,-0.015052401,0.073687255,0.2903059124946594,0.036925990134477615,9.535786628723145,0.6399524807929993,0.5338903069496155, 1.4430387020111084
660,317676679,0.99716336,0.0029292214,-0.015050402,0.07369015,0.286188006401062,0.03402526676654816,9.540020942687988,0.7047014236450195,0.4864043891429901, 1.5052903890609741
661,317693346,0.9971624,0.0029245692,-0.0150555065,0.07370223,0.2905938923358917,0.04569711163640022,9.536825180053711,0.6340360045433044,0.4428500235080719, 1.5749826431274414
662,317710013,0.99716234,0.0029276852,-0.015052238,0.07370361,0.2991876006126404,0.036535680294036865,9.537569046020508,0.6901150345802307,0.49613720178604126, 1.4886038303375244
663,317726680,0.99716204,0.0029279892,-0.015062484,0.073705465,0.296677827835083,0.042445577681064606,9.532965660095215,0.6643486022949219,0.4049175977706909, 1.5014357566833496
664,317743347,0.9971623,0.0029301003,-0.015060918,0.0737026,0.2949255704879761,0.047491494566202164,9.537020683288574,0.6822134852409363,0.48499566316604614, 1.4712895154953003
665,317760014,0.997162,0.0029309124,-0.015058665,0.073707424,0.2855948507785797,0.03131360560655594,9.536466598510742,0.6745809316635132,0.4904640018939972, 1.5266128778457642
666,317776681,0.99716234,0.00294375,-0.015054297,0.07370246,0.28708940744400024,0.04255208000540733,9.53559684753418,0.7569000720977783,0.49874964356422424, 1.4531428813934326
667,317793348,0.9971626,0.0029420988,-0.015050311,0.07370002,0.287195086479187,0.03879131004214287,9.535362243652344,0.6575868725776672,0.5035136938095093, 1.4710975885391235
668,317810015,0.9971627,0.00293762,-0.01505222,0.07369816,0.28058719635009766,0.0346556156873703,9.515652656555176,0.6356624364852905,0.4645055830478668, 1.4883732795715332
669,317826682,0.99716204,0.0029453547,-0.015046792,0.07370796,0.2835213243961334,0.03396189212799072,9.532764434814453,0.7233090996742249,0.5086490511894226, 1.5358079671859741
670,317843349,0.9971623,0.002945973,-0.015041492,0.07370539,0.29961350560188293,0.03374741971492767,9.53802490234375,0.6737613081932068,0.5113255977630615, 1.4695992469787598
671,317860016,0.99716187,0.0029466776,-0.015046701,0.07371082,0.29308491945266724,0.026154087856411934,9.554325103759766,0.6698552966117859,0.4393538236618042, 1.5231168270111084
672,317876683,0.9971616,0.0029487188,-0.015040527,0.07371556,0.27872273325920105,0.028641782701015472,9.539113998413086,0.6845058798789978,0.5166914463043213, 1.5144214630126953
673,317893350,0.9971617,0.0029457067,-0.015031385,0.073715255,0.2860545217990875,0.02820817567408085,9.54430866241455,0.6509403586387634,0.5394738912582397, 1.4784610271453857
674,317910017,0.9971618,0.0029451742,-0.015036704,0.0737122,0.2846100330352783,0.03559005260467529,9.527031898498535,0.6606603860855103,0.4390464723110199, 1.475361943244934
675,317926684,0.99716234,0.0029420443,-0.015023724,0.07370733,0.2922247052192688,0.03526472672820091,9.528334617614746,0.6521441340446472,0.565880537033081, 1.470533847808838
676,317943351,0.9971627,0.0029392673,-0.015039609,0.07370118,0.28108930587768555,0.04184286296367645,9.537430763244629,0.6395171284675598,0.36772796511650085, 1.4503000974655151
677,317960018,0.99716246,0.0029427034,-0.015031233,0.07370595,0.28642287850379944,0.026629021391272545,9.527463912963867,0.6956729292869568,0.5309960246086121, 1.5263566970825195
678,317976685,0.9971625,0.002933053,-0.015036109,0.073704116,0.3043525516986847,0.034351103007793427,9.534585952758789,0.598626434803009,0.4467943608760834, 1.4870284795761108
679,317993352,0.9971624,0.0029369264,-0.015032398,0.07370697,0.28824901580810547,0.022175272926688194,9.537956237792969,0.6956730484962463,0.4988137483596802, 1.5020889043807983
680,318010019,0.99716204,0.0029478127,-0.01502757,0.073712066,0.2771412134170532,0.018166346475481987,9.542672157287598,0.7445675134658813,0.5029501914978027, 1.5155481100082397
