PacketCounter,SampleTimeFine,Quat_W,Quat_X,Quat_Y,Quat_Z,Acc_X,Acc_Y,Acc_Z,Gyr_X,Gyr_Y,Gyr_Z 
1,306762573,0.9978423,-0.015592557,-0.054617096,0.03293331,0,0,0,0,0, 0
2,306779240,0.9978295,-0.015624625,-0.054871403,0.03288555,1.0712199211120605,-0.33325642347335815,9.76281452178955,-0.9617184996604919,0.20949268341064453, -0.0625206008553505
3,306795907,0.9978244,-0.015666766,-0.054993693,0.03281615,1.0658788681030273,-0.3544418215751648,9.778475761413574,-0.9833226799964905,0.23438824713230133, -0.13328848779201508
4,306812574,0.9978198,-0.015816152,-0.05500395,0.032867145,1.0763901472091675,-0.3422826826572418,9.731217384338379,-0.9551999568939209,0.2986120283603668, -0.08265217393636703
5,306829241,0.9978195,-0.015965326,-0.055020478,0.032775037,1.077397346496582,-0.34099045395851135,9.74783992767334,-0.9963853359222412,0.33107617497444153, -0.11316972225904465
6,306845908,0.9978173,-0.016094165,-0.05504022,0.03274654,1.0891268253326416,-0.33341720700263977,9.762415885925293,-0.9967822432518005,0.2851141691207886, -0.1624869704246521
7,306862575,0.99781215,-0.016200991,-0.055074424,0.032793004,1.071433424949646,-0.33703649044036865,9.739425659179688,-1.0330625772476196,0.2690293788909912, -0.012588641606271267
8,306879242,0.9978069,-0.016297108,-0.055087652,0.03288307,1.071821928024292,-0.34156477451324463,9.740180969238281,-1.0195389986038208,0.27479222416877747, -0.1375914216041565
9,306895909,0.99780387,-0.016392393,-0.055096854,0.032913137,1.0651530027389526,-0.34698787331581116,9.771137237548828,-0.9660982489585876,0.2075204998254776, -0.07719668745994568
10,306912576,0.9978011,-0.016499402,-0.055085998,0.032959968,1.0646713972091675,-0.3408460319042206,9.740756034851074,-1.0241492986679077,0.2376154065132141, -0.16212837398052216
11,306929243,0.99780214,-0.01661385,-0.0550455,0.032940723,1.074715495109558,-0.3299188017845154,9.74992847442627,-1.045395016670227,0.38055986166000366, -0.10245078802108765
12,306945910,0.9978,-0.016707176,-0.055021755,0.032995645,1.0731395483016968,-0.345673531293869,9.74882984161377,-0.9778544902801514,0.2759832441806793, -0.03624197095632553
13,306962577,0.99780184,-0.016806472,-0.054992,0.032938696,1.0733729600906372,-0.34592270851135254,9.757295608520508,-0.9628965854644775,0.30875468254089355, -0.13675901293754578
14,306979244,0.99780256,-0.016911816,-0.05497577,0.0328909,1.065688967704773,-0.3355565667152405,9.741911888122559,-0.988893449306488,0.21407733857631683, -0.07115208357572556
15,306995911,0.99780184,-0.017012872,-0.054952867,0.032899257,1.0684298276901245,-0.3346148729324341,9.742086410522461,-1.0050934553146362,0.2527781128883362, -0.16143682599067688
16,307012578,0.99780285,-0.017106457,-0.054927774,0.03286195,1.0829789638519287,-0.33583033084869385,9.75068187713623,-0.9432516694068909,0.2532007396221161, -0.11345144361257553
17,307029245,0.9978008,-0.017202642,-0.05489974,0.03292059,1.0715107917785645,-0.33939534425735474,9.765612602233887,-0.995078980922699,0.307666152715683, -0.03461556136608124
18,307045912,0.9977993,-0.017298726,-0.0548763,0.03295436,1.0547573566436768,-0.3308863341808319,9.735121726989746,-0.9905071258544922,0.26865801215171814, -0.09029757976531982
19,307062579,0.99780357,-0.017403428,-0.05484138,0.0328289,1.0668871402740479,-0.3397897183895111,9.769515037536621,-1.0038001537322998,0.3052201569080353, -0.1449422687292099
20,307079246,0.997805,-0.01750585,-0.05480018,0.03279729,1.0668429136276245,-0.33071812987327576,9.749650001525879,-1.0108307600021362,0.35116928815841675, -0.07831083238124847
21,307095913,0.9978055,-0.017605243,-0.054780148,0.03276444,1.076217532157898,-0.3408837616443634,9.730921745300293,-1.0054008960723877,0.20451098680496216, -0.11699880659580231
22,307112580,0.99780524,-0.017702542,-0.054757513,0.03275643,1.0731936693191528,-0.3413047790527344,9.77132511138916,-0.9870237112045288,0.23552797734737396, -0.06464645266532898
23,307129247,0.9978052,-0.017804865,-0.05472863,0.03275008,1.080801010131836,-0.3357062041759491,9.734360694885254,-1.012021780014038,0.28009405732154846, -0.025932855904102325
24,307145914,0.99780524,-0.017901886,-0.054697532,0.032746643,1.0820475816726685,-0.33722206950187683,9.77216625213623,-0.9807614684104919,0.30879315733909607, -0.06926955282688141
25,307162581,0.9978046,-0.018000716,-0.054672826,0.032756437,1.0672342777252197,-0.34141528606414795,9.757973670959473,-1.000470519065857,0.27498435974121094, -0.07572393864393234
26,307179248,0.99780315,-0.01810151,-0.054655913,0.032771677,1.0707319974899292,-0.3385511636734009,9.747468948364258,-1.0176821947097778,0.21946881711483002, -0.11492417752742767
27,307195915,0.9978026,-0.018199215,-0.054625243,0.032787893,1.0700407028198242,-0.3361009359359741,9.736225128173828,-0.9833483099937439,0.3101505637168884, -0.03325808793306351
28,307212582,0.9978066,-0.01830302,-0.054595537,0.032654766,1.0799521207809448,-0.33523836731910706,9.737287521362305,-0.976356029510498,0.28659969568252563, -0.09234658628702164
29,307229249,0.9978071,-0.018400416,-0.054568104,0.032632314,1.0749496221542358,-0.3320491313934326,9.745834350585938,-0.9780082106590271,0.2925162613391876, -0.12235187739133835
30,307245916,0.9978084,-0.018498814,-0.054546166,0.03257248,1.071272850036621,-0.32911550998687744,9.74460506439209,-0.9780082106590271,0.25273972749710083, -0.15274134278297424
31,307262583,0.9978081,-0.018606838,-0.05453479,0.0325395,1.0605648756027222,-0.34070664644241333,9.746057510375977,-1.0523873567581177,0.18267618119716644, -0.0766972228884697
32,307279250,0.9978103,-0.018710623,-0.054502107,0.032466777,1.0931142568588257,-0.3369593918323517,9.737249374389648,-0.9988439679145813,0.3159646987915039, -0.0609966441988945
33,307295917,0.99781036,-0.018818231,-0.054485608,0.03243065,1.0821571350097656,-0.33860358595848083,9.754782676696777,-1.0475338697433472,0.2239254266023636, -0.11474490165710449
34,307312584,0.9978114,-0.01892502,-0.05445521,0.032391313,1.0648831129074097,-0.3456501066684723,9.73907470703125,-1.0380827188491821,0.32291847467422485, -0.129228875041008
35,307329251,0.9978134,-0.01903084,-0.05442945,0.032309305,1.0788960456848145,-0.34152519702911377,9.726802825927734,-1.0055803060531616,0.27826279401779175, -0.06376282125711441
36,307345918,0.9978134,-0.01912497,-0.054405622,0.032293018,1.0746948719024658,-0.3472796380519867,9.751153945922852,-0.9461972117424011,0.27429282665252686, -0.04801100865006447
37,307362585,0.99781656,-0.019228425,-0.05437952,0.032177508,1.0740456581115723,-0.3353046476840973,9.756359100341797,-0.9679166674613953,0.27684125304222107, -0.026842107996344566
38,307379252,0.9978163,-0.019327963,-0.05435828,0.03215963,1.0676947832107544,-0.34565088152885437,9.764006614685059,-0.9897003769874573,0.2601673901081085, -0.11840751022100449
39,307395919,0.99781716,-0.019421335,-0.054328192,0.032126494,1.0625957250595093,-0.3282337188720703,9.745467185974121,-0.9316876530647278,0.3124941885471344, -0.062366925179958344
40,307412586,0.9978178,-0.019523328,-0.05429235,0.032108318,1.071927785873413,-0.3402482271194458,9.744217872619629,-1.0004321336746216,0.35334640741348267, -0.07011477649211884
41,307429253,0.9978198,-0.019621933,-0.054269295,0.032027453,1.0660322904586792,-0.33192458748817444,9.752809524536133,-0.9557123184204102,0.2549936771392822, -0.06319934129714966
42,307445920,0.99782085,-0.01972561,-0.054243576,0.03196922,1.0638010501861572,-0.3392067849636078,9.742849349975586,-0.9996892213821411,0.27539414167404175, -0.05002159997820854
43,307462587,0.99782145,-0.019832484,-0.054214258,0.031934597,1.069155216217041,-0.34526559710502625,9.734999656677246,-1.0318459272384644,0.30326077342033386, -0.06642653048038483
44,307479254,0.997824,-0.019944321,-0.05418217,0.031841725,1.0692546367645264,-0.33464622497558594,9.757811546325684,-1.036712408065796,0.3124300539493561, -0.011448875069618225
45,307495921,0.99782354,-0.020054461,-0.0541518,0.031838674,1.077653169631958,-0.3391762673854828,9.747644424438477,-1.0707646608352661,0.31721973419189453, -0.10259167850017548
46,307512588,0.99782294,-0.020154119,-0.054125383,0.031839628,1.065745234489441,-0.33263668417930603,9.73714542388916,-0.9985111355781555,0.2888536751270294, -0.07411035150289536
47,307529255,0.997822,-0.020251492,-0.054101177,0.031849336,1.059722900390625,-0.34265103936195374,9.75029468536377,-0.9869340658187866,0.2732042670249939, -0.054888010025024414
48,307545922,0.99782217,-0.020352326,-0.0540742,0.031825833,1.0629699230194092,-0.33623751997947693,9.746471405029297,-0.9995866417884827,0.2862282991409302, -0.06471048295497894
49,307562589,0.99782455,-0.020452667,-0.054040074,0.031741187,1.0625380277633667,-0.33224260807037354,9.7551851272583,-0.9784435033798218,0.326645165681839, -0.10581886023283005
50,307579256,0.99782336,-0.020546902,-0.05401605,0.031761978,1.0774941444396973,-0.3301600217819214,9.744462013244629,-0.9871901869773865,0.27376773953437805, -0.17041410505771637
51,307595923,0.9978224,-0.020631155,-0.053994957,0.031770978,1.0629481077194214,-0.3347318768501282,9.734641075134277,-0.9038336873054504,0.24605479836463928, -0.040160711854696274
52,307612590,0.9978204,-0.020722222,-0.053966835,0.031823892,1.0717352628707886,-0.3431357443332672,9.731964111328125,-0.9769835472106934,0.30620625615119934, -0.12619376182556152
53,307629257,0.9978194,-0.020819215,-0.053945005,0.03182745,1.0633360147476196,-0.340050607919693,9.748315811157227,-0.9989081621170044,0.25685057044029236, -0.09982550144195557
54,307645924,0.9978187,-0.020907223,-0.05392474,0.031827677,1.0763230323791504,-0.3416643440723419,9.750757217407227,-0.9410361647605896,0.24481254816055298, -0.13364705443382263
55,307662591,0.99781823,-0.02099926,-0.05390299,0.031816047,1.0681772232055664,-0.3311823904514313,9.733712196350098,-0.95082026720047,0.24937164783477783, 0.005922937300056219
56,307679258,0.9978213,-0.021095095,-0.053874344,0.031704392,1.0793200731277466,-0.3496542274951935,9.73936653137207,-0.9548797607421875,0.2883029282093048, -0.11578220874071121
57,307695925,0.99782217,-0.02119071,-0.053851474,0.031651113,1.064772605895996,-0.3538109064102173,9.740957260131836,-0.9695303440093994,0.2566840648651123, -0.04931725189089775
58,307712592,0.99781936,-0.021288777,-0.053828783,0.031716667,1.0861238241195679,-0.3285415768623352,9.74901008605957,-1.03166663646698,0.2762393355369568, -0.06591428071260452
59,307729259,0.9978202,-0.021374736,-0.05379793,0.031680983,1.0640679597854614,-0.34343379735946655,9.74323558807373,-0.9176645278930664,0.31853872537612915, -0.10487118363380432
60,307745926,0.99781984,-0.021468263,-0.053776663,0.031666216,1.0739092826843262,-0.33495432138442993,9.768138885498047,-0.9799291491508484,0.25662001967430115, -0.09040001779794693
61,307762593,0.9978192,-0.021553742,-0.05375594,0.031664252,1.0791915655136108,-0.34202662110328674,9.751465797424316,-0.92997145652771,0.25304707884788513, -0.0653764083981514
62,307779260,0.9978192,-0.021639744,-0.05372905,0.031651724,1.0724748373031616,-0.32728156447410583,9.74038314819336,-0.9339541792869568,0.29740822315216064, -0.09548413753509521
63,307795927,0.99781865,-0.021734044,-0.053707182,0.031640857,1.0701121091842651,-0.3334311544895172,9.740486145019531,-0.9987671375274658,0.26683947443962097, -0.10688178986310959
64,307812594,0.9978193,-0.021827314,-0.05368661,0.03159053,1.0663156509399414,-0.3415505290031433,9.737483978271484,-0.9786484241485596,0.25079312920570374, -0.08349739760160446
65,307829261,0.9978187,-0.02192149,-0.053664975,0.03158169,1.0757710933685303,-0.3291482627391815,9.748900413513184,-0.9970382452011108,0.2633177638053894, -0.0318237766623497
66,307845928,0.9978181,-0.022007106,-0.053646136,0.03157397,1.0662767887115479,-0.333180695772171,9.7601957321167,-0.9414331316947937,0.24298128485679626, -0.013561924919486046
67,307862595,0.99781847,-0.022095164,-0.053615227,0.03155382,1.072342872619629,-0.3224691152572632,9.738364219665527,-0.961193323135376,0.3274775445461273, -0.06852677464485168
68,307879262,0.9978175,-0.022185128,-0.053603258,0.03154026,1.068481206893921,-0.327984094619751,9.761007308959961,-0.9846419095993042,0.1991579681634903, -0.05402999371290207
69,307895929,0.9978176,-0.022274049,-0.05358566,0.031504937,1.0764350891113281,-0.3394417464733124,9.738035202026367,-0.9708492755889893,0.23360700905323029, -0.03218235448002815
70,307912596,0.9978174,-0.022364426,-0.053564295,0.031483594,1.0616103410720825,-0.3387880325317383,9.759208679199219,-0.9939392805099487,0.2664937674999237, -0.08175574243068695
71,307929263,0.9978176,-0.022452965,-0.05353602,0.031463612,1.065248727798462,-0.32692164182662964,9.738791465759277,-0.9835020303726196,0.3135826587677002, -0.07714544981718063
72,307945930,0.99781764,-0.022533499,-0.05351722,0.031434596,1.0761529207229614,-0.3290729522705078,9.75168228149414,-0.9281785488128662,0.24389052391052246, -0.04114679992198944
73,307962597,0.99781764,-0.022621408,-0.053502757,0.031399775,1.0646884441375732,-0.3302614688873291,9.773177146911621,-0.9918516874313354,0.2205573469400406, -0.12513084709644318
74,307979264,0.9978175,-0.022707473,-0.053477164,0.031382825,1.0693327188491821,-0.3468797206878662,9.74654483795166,-0.9792503118515015,0.29589712619781494, -0.038867268711328506
75,307995931,0.9978173,-0.02278839,-0.053452164,0.031372312,1.071842908859253,-0.3268401622772217,9.758356094360352,-0.9587090611457825,0.2972674071788788, -0.12743599712848663
76,308012598,0.99781805,-0.022870313,-0.05342813,0.031328242,1.062010407447815,-0.3395369350910187,9.744428634643555,-0.9541370868682861,0.28394877910614014, -0.0794505923986435
77,308029265,0.997818,-0.02295626,-0.05341163,0.031297836,1.0698868036270142,-0.3358928859233856,9.760729789733887,-0.9938111305236816,0.236283540725708, -0.08959321677684784
78,308045932,0.99781704,-0.023035144,-0.053396974,0.031295586,1.0716452598571777,-0.34277477860450745,9.763160705566406,-0.9572362899780273,0.22647389769554138, -0.05903727561235428
79,308062599,0.9978169,-0.023120614,-0.05337152,0.03127919,1.063123106956482,-0.338589072227478,9.765949249267578,-0.9961547255516052,0.2995981276035309, -0.02695736475288868
80,308079266,0.99781674,-0.023195475,-0.05335492,0.031254016,1.072037935256958,-0.3435717523097992,9.751079559326172,-0.9306886196136475,0.23707754909992218, -0.06710527092218399
81,308095933,0.99781644,-0.02327465,-0.05334042,0.031230584,1.076235294342041,-0.34072595834732056,9.754435539245605,-0.9670075178146362,0.22611533105373383, -0.07805471122264862
82,308112600,0.9978167,-0.02335805,-0.05333049,0.03118014,1.080208420753479,-0.3430958390235901,9.748703002929688,-0.9936959743499756,0.19351035356521606, -0.09299972653388977
83,308129267,0.99781483,-0.023449996,-0.053304493,0.03121845,1.0759572982788086,-0.33469903469085693,9.759542465209961,-1.080971121788025,0.32158663868904114, -0.0425298847258091
84,308145934,0.99781436,-0.02352816,-0.05328935,0.03119506,1.074036717414856,-0.3290308117866516,9.74666976928711,-0.9806846380233765,0.23935706913471222, -0.1321999430656433
85,308162601,0.99781305,-0.023600971,-0.053283237,0.03119303,1.072330117225647,-0.3391551077365875,9.723535537719727,-0.9529332518577576,0.17830920219421387, -0.06888535618782043
86,308179268,0.99781233,-0.023683293,-0.05326306,0.031191848,1.0803844928741455,-0.3426797688007355,9.735596656799316,-1.0230480432510376,0.2803630232810974, -0.08622515946626663
87,308195935,0.99781233,-0.023762336,-0.05324033,0.031167045,1.0812345743179321,-0.32335931062698364,9.743656158447266,-0.9923383593559265,0.29345110058784485, -0.046525463461875916
88,308212602,0.997813,-0.023841685,-0.053208973,0.031138767,1.0707049369812012,-0.33539867401123047,9.76396369934082,-1.0015591382980347,0.3563303053379059, -0.0763002410531044
89,308229269,0.997813,-0.023920968,-0.053187437,0.0311135,1.0642657279968262,-0.33913150429725647,9.755265235900879,-1.0103952884674072,0.2905440628528595, -0.07742718607187271
90,308245936,0.9978116,-0.023992822,-0.053171452,0.031131051,1.0673660039901733,-0.33395451307296753,9.754961013793945,-0.9806206226348877,0.2591557204723358, -0.06829626858234406
91,308262603,0.9978122,-0.02406731,-0.053150184,0.031091915,1.0720261335372925,-0.3407595753669739,9.750260353088379,-0.981196939945221,0.285818487405777, -0.04480941593647003
92,308279270,0.9978126,-0.024143722,-0.053127427,0.031058503,1.0691256523132324,-0.328209787607193,9.75950813293457,-1.0094348192214966,0.3030046224594116, -0.1148473396897316
93,308295937,0.9978134,-0.024213992,-0.05311368,0.031003939,1.0685211420059204,-0.33761605620384216,9.752811431884766,-0.9782642126083374,0.24195675551891327, -0.20832088589668274
94,308312604,0.9978138,-0.024290219,-0.053088803,0.030974103,1.0685527324676514,-0.3478197157382965,9.758745193481445,-1.0196031332015991,0.31975534558296204, -0.08685266971588135
95,308329271,0.99781364,-0.024359994,-0.053068575,0.030958451,1.0723679065704346,-0.33978262543678284,9.744834899902344,-0.9828104376792908,0.28832852840423584, -0.049189187586307526
96,308345938,0.9978139,-0.024432063,-0.053046152,0.030932484,1.0751429796218872,-0.3204538822174072,9.75388240814209,-1.0095373392105103,0.3085753619670868, -0.1325969249010086
97,308362605,0.99781406,-0.024503857,-0.05302495,0.030904347,1.0705982446670532,-0.33791741728782654,9.771976470947266,-1.006041169166565,0.297062486410141, -0.04515518620610237
98,308379272,0.9978134,-0.024584517,-0.053007327,0.030891588,1.0831257104873657,-0.33321309089660645,9.75090503692627,-1.0767706632614136,0.2771870493888855, -0.011308006942272186
99,308395939,0.99781305,-0.024648726,-0.05298909,0.030880831,1.079405426979065,-0.3394395411014557,9.76026439666748,-0.9747809171676636,0.28293704986572266, -0.047780487686395645
100,308412606,0.9978129,-0.024714265,-0.052974924,0.030859053,1.0862213373184204,-0.33094850182533264,9.745307922363281,-0.9893801212310791,0.2566456198692322, -0.0652739629149437
101,308429273,0.9978139,-0.024777226,-0.052954886,0.030813837,1.0898886919021606,-0.33225128054618835,9.76058578491211,-0.9715025424957275,0.2961788773536682, -0.08412492275238037
102,308445940,0.997815,-0.024830194,-0.052934792,0.03076708,1.0665667057037354,-0.3446783125400543,9.738441467285156,-0.9072529673576355,0.2964477837085724, -0.06368596851825714
103,308462607,0.9978146,-0.024899328,-0.052937508,0.030719405,1.0566837787628174,-0.3388381004333496,9.747661590576172,-1.0362385511398315,0.14748431742191315, -0.12580958008766174
104,308479274,0.9978153,-0.024963599,-0.052910004,0.03069473,1.0792406797409058,-0.3379126787185669,9.747405052185059,-1.002711534500122,0.3552033007144928, -0.03861114755272865
105,308495941,0.99781525,-0.025027202,-0.05288875,0.030678162,1.0789213180541992,-0.32947760820388794,9.742724418640137,-1.0124187469482422,0.317501425743103, -0.06593989580869675
106,308512608,0.99781585,-0.025096102,-0.052871235,0.030635338,1.064157485961914,-0.34497570991516113,9.76037311553955,-1.0501205921173096,0.2916581928730011, -0.08459874242544174
107,308529275,0.99781525,-0.025149673,-0.05285978,0.030633027,1.0739681720733643,-0.3180786669254303,9.759174346923828,-0.9597205519676208,0.25185608863830566, -0.015137105248868465
108,308545942,0.99781466,-0.025202313,-0.052852146,0.030616742,1.0736315250396729,-0.33600109815597534,9.763044357299805,-0.9637675285339355,0.22775454819202423, -0.07015318423509598
109,308562609,0.99781436,-0.02526119,-0.052837357,0.03060372,1.0793513059616089,-0.34922608733177185,9.747937202453613,-1.0127133131027222,0.2805422842502594, -0.055848490446805954
110,308579276,0.9978144,-0.025320712,-0.052818213,0.030586228,1.056016206741333,-0.34842196106910706,9.74067211151123,-1.0210247039794922,0.31234046816825867, -0.05308231711387634
111,308595943,0.9978146,-0.025360227,-0.052803993,0.03057626,1.083125352859497,-0.3336963653564453,9.758947372436523,-0.898378312587738,0.27909520268440247, -0.10110612958669662
112,308612610,0.9978145,-0.025412723,-0.052789606,0.030558271,1.077865481376648,-0.34305837750434875,9.762968063354492,-0.9881380200386047,0.2818869650363922, -0.05323600023984909
113,308629277,0.9978142,-0.025464801,-0.052781224,0.030540682,1.0698798894882202,-0.33544525504112244,9.743258476257324,-0.9979091286659241,0.24513274431228638, -0.0914885625243187
114,308645944,0.99781436,-0.025513642,-0.052767403,0.030518409,1.0620498657226562,-0.3417980372905731,9.762216567993164,-0.9798523187637329,0.28264254331588745, -0.08393281698226929
115,308662611,0.9978147,-0.0255627,-0.052755468,0.030484382,1.0762131214141846,-0.3409390151500702,9.762190818786621,-0.9887655377388,0.2707197964191437, -0.11899659782648087
116,308679278,0.99781495,-0.025611056,-0.052746303,0.030451754,1.0692696571350098,-0.33876535296440125,9.762883186340332,-0.9922999143600464,0.25408437848091125, -0.1165890097618103
117,308695945,0.9978152,-0.025660064,-0.052740723,0.030413317,1.0674203634262085,-0.3438155949115753,9.746053695678711,-0.9974865913391113,0.22724229097366333, -0.0613039955496788
118,308712612,0.9978149,-0.02570807,-0.052735936,0.030391807,1.071030616760254,-0.32879552245140076,9.747371673583984,-0.998856782913208,0.2239382117986679, -0.010027371346950531
119,308729279,0.9978524,-0.015396558,-0.05522681,0.03167937,1.0882850885391235,-0.3356476426124573,9.739740371704102,-0.9769707322120667,0.3025820255279541, -0.042709171772003174
120,308745946,0.9978516,-0.015398122,-0.05524537,0.03167309,1.0730339288711548,-0.34092745184898376,9.743175506591797,-0.9986391067504883,0.14433395862579346, -0.05082840099930763
121,308762613,0.99785084,-0.015401887,-0.055254065,0.03168141,1.0609050989151,-0.33192557096481323,9.738310813903809,-1.0203074216842651,0.21549884974956512, -0.08028300851583481
122,308779280,0.99784994,-0.015399075,-0.055256028,0.031702932,1.0740220546722412,-0.3353365659713745,9.73408031463623,-0.9743838906288147,0.26028263568878174, -0.042273759841918945
123,308795947,0.9978498,-0.015398042,-0.055260167,0.031700417,1.0852781534194946,-0.3392515182495117,9.734326362609863,-0.9890087246894836,0.24646461009979248, -0.14211206138134003
124,308812614,0.9978493,-0.015395297,-0.055263154,0.031712394,1.0890733003616333,-0.33526572585105896,9.753037452697754,-0.9761767387390137,0.2541996240615845, -0.08621233701705933
125,308829281,0.997849,-0.015394167,-0.05526296,0.03172335,1.0736111402511597,-0.32998862862586975,9.774541854858398,-0.9853589534759521,0.2764698565006256, -0.0775168314576149
126,308845948,0.99784863,-0.015384654,-0.055272836,0.031721633,1.0730416774749756,-0.33227017521858215,9.733271598815918,-0.929600179195404,0.20506168901920319, -0.11891977488994598
127,308862615,0.9978484,-0.01537627,-0.055273388,0.031734433,1.0669068098068237,-0.3402552902698517,9.768172264099121,-0.9384749531745911,0.2705405652523041, -0.09641901403665543
128,308879282,0.99784803,-0.0153756235,-0.05527408,0.03174527,1.0793302059173584,-0.3336082100868225,9.74442195892334,-0.9962314367294312,0.2723974287509918, -0.14314937591552734
129,308895949,0.9978475,-0.015369766,-0.05527361,0.031763874,1.0698102712631226,-0.33310365676879883,9.749468803405762,-0.9491425156593323,0.2759576141834259, -0.017519084736704826
130,308912616,0.99784696,-0.015376023,-0.055272453,0.03177802,1.0696570873260498,-0.32438862323760986,9.746661186218262,-1.032934546470642,0.283385306596756, -0.034346628934144974
131,308929283,0.9978471,-0.015378585,-0.05526513,0.031788267,1.0728778839111328,-0.34422174096107483,9.745673179626465,-1.0074114799499512,0.3253389000892639, -0.05767979472875595
132,308945950,0.9978465,-0.015375934,-0.055267606,0.03180495,1.0780326128005981,-0.3289180099964142,9.768745422363281,-0.9751906991004944,0.25726035237312317, -0.05248041823506355
133,308962617,0.9978452,-0.0153731145,-0.05527712,0.0318304,1.0748597383499146,-0.33490750193595886,9.751620292663574,-0.9764840602874756,0.2090316116809845, -0.029697922989726067
134,308979284,0.99784446,-0.015372777,-0.05528594,0.031840004,1.0705727338790894,-0.3341846466064453,9.761441230773926,-0.9948357343673706,0.21484573185443878, -0.09668794274330139
135,308995951,0.9978438,-0.015373976,-0.05528593,0.031856902,1.076560139656067,-0.3477664291858673,9.754894256591797,-1.0021992921829224,0.27539417147636414, -0.059267785400152206
136,309012618,0.99784327,-0.015372387,-0.055286784,0.031873535,1.0701361894607544,-0.34289485216140747,9.752729415893555,-0.9824262261390686,0.2687988877296448, -0.05618145316839218
137,309029285,0.99784297,-0.01536715,-0.055282064,0.03189233,1.0699207782745361,-0.3454010486602783,9.752303123474121,-0.9558531045913696,0.3061677813529968, -0.047985389828681946
138,309045952,0.9978425,-0.0153666325,-0.05528195,0.031907383,1.0799425840377808,-0.3453209698200226,9.74445915222168,-0.9870493412017822,0.27477940917015076, -0.04139012098312378
139,309062619,0.997842,-0.015373929,-0.05527937,0.03192529,1.07155179977417,-0.34162458777427673,9.762420654296875,-1.0465734004974365,0.2956281900405884, -0.08909378200769424
140,309079286,0.9978417,-0.015373343,-0.05528222,0.031930454,1.066728949546814,-0.3451237082481384,9.75770378112793,-0.9841168522834778,0.25357213616371155, -0.049855124205350876
141,309095953,0.99784124,-0.0153721385,-0.05528242,0.03194596,1.0645990371704102,-0.33581387996673584,9.756382942199707,-0.9820549488067627,0.2723974585533142, -0.041530996561050415
142,309112620,0.99784136,-0.015373376,-0.055284653,0.03193852,1.0683307647705078,-0.34304705262184143,9.742667198181152,-1.0002528429031372,0.25906604528427124, -0.12817876040935516
143,309129287,0.9978418,-0.015371939,-0.05527669,0.03193999,1.0751782655715942,-0.33555370569229126,9.759771347045898,-0.9817858934402466,0.3293345272541046, -0.11931674927473068
144,309145954,0.99784154,-0.015375645,-0.05527411,0.031950157,1.0712522268295288,-0.3385842740535736,9.751199722290039,-1.0118552446365356,0.29132524132728577, -0.028750253841280937
145,309162621,0.99784124,-0.015376434,-0.05527464,0.031959653,1.0766127109527588,-0.3408517837524414,9.757479667663574,-0.9934141039848328,0.26956722140312195, -0.0409034788608551
146,309179288,0.99784106,-0.015379005,-0.055269815,0.03196863,1.0754172801971436,-0.34491628408432007,9.758197784423828,-1.008717656135559,0.3081527650356293, -0.08116663992404938
147,309195955,0.9978405,-0.015378227,-0.055271514,0.03198289,1.0641452074050903,-0.3353307247161865,9.746095657348633,-0.9877793192863464,0.2628823518753052, -0.07202291488647461
148,309212622,0.9978396,-0.015387041,-0.05527541,0.032000072,1.0756264925003052,-0.3361798822879791,9.768625259399414,-1.0500054359436035,0.24835993349552155, -0.01988826133310795
149,309229289,0.99783874,-0.015389333,-0.055281855,0.032015603,1.0791376829147339,-0.33775585889816284,9.743724822998047,-1.007449984550476,0.22991879284381866, -0.04351597651839256
150,309245956,0.9978393,-0.015392649,-0.05527427,0.03201086,1.0691686868667603,-0.35234788060188293,9.761460304260254,-1.006322979927063,0.32524925470352173, -0.0667082741856575
151,309262623,0.997839,-0.015394026,-0.0552658,0.032034397,1.076959490776062,-0.33942872285842896,9.763461112976074,-0.9931452870368958,0.3310377299785614, 0.02433846704661846
152,309279290,0.99783826,-0.015394832,-0.05526825,0.032052882,1.0719313621520996,-0.3347627818584442,9.737282752990723,-0.9947075843811035,0.2567608952522278, -0.021924471482634544
153,309295957,0.99783736,-0.015406704,-0.055273425,0.032068156,1.0661544799804688,-0.3320990204811096,9.745205879211426,-1.0720579624176025,0.240676149725914, -0.03638284280896187
154,309312624,0.997837,-0.015407708,-0.055273667,0.032075845,1.0812393426895142,-0.34474748373031616,9.746030807495117,-0.9966540932655334,0.2721541225910187, -0.06731016933917999
155,309329291,0.9978367,-0.01540755,-0.055276953,0.032078844,1.0705888271331787,-0.3372366726398468,9.735335350036621,-0.9919285178184509,0.2519713044166565, -0.10850819200277328
156,309345958,0.99783653,-0.01540075,-0.055277392,0.03208773,1.0749428272247314,-0.3341582417488098,9.740596771240234,-0.9466966986656189,0.2704765200614929, -0.0993516743183136
157,309362625,0.9978366,-0.015404655,-0.05526881,0.032095198,1.083705186843872,-0.32842883467674255,9.752284049987793,-1.017912745475769,0.3347131311893463, -0.09664951264858246
158,309379292,0.997836,-0.015406839,-0.05527122,0.032109816,1.0652891397476196,-0.3400309383869171,9.767814636230469,-1.000035047531128,0.25619742274284363, 0.00503929890692234
159,309395959,0.99783576,-0.015400001,-0.055278614,0.032109067,1.0795902013778687,-0.33761927485466003,9.745427131652832,-0.9410618543624878,0.22040370106697083, -0.06914149224758148
160,309412626,0.9978344,-0.015393795,-0.055300195,0.03211816,1.0656909942626953,-0.332561731338501,9.75478744506836,-0.9531125426292419,0.124484121799469, -0.07687651365995407
161,309429293,0.9978337,-0.015393183,-0.05530284,0.032133248,1.0833766460418701,-0.333584189414978,9.755812644958496,-0.9855254292488098,0.2552369236946106, -0.03551200032234192
162,309445960,0.9978334,-0.01539029,-0.055302687,0.03214631,1.0647255182266235,-0.35224050283432007,9.744379997253418,-0.9680191278457642,0.27375489473342896, -0.03237444907426834
163,309462627,0.99783283,-0.015384131,-0.05530308,0.032164,1.0691932439804077,-0.33308032155036926,9.759782791137695,-0.9488863945007324,0.27019479870796204, -0.047626812011003494
164,309479294,0.99783254,-0.015380558,-0.055303,0.032175764,1.0711798667907715,-0.33449628949165344,9.754518508911133,-0.9627557396888733,0.27273041009902954, -0.03278425708413124
165,309495961,0.9978321,-0.015382791,-0.05530407,0.032185864,1.0739390850067139,-0.34844714403152466,9.746326446533203,-1.0061180591583252,0.26700595021247864, -0.0649666115641594
166,309512628,0.9978318,-0.015388697,-0.05529766,0.032204337,1.0802096128463745,-0.3528604209423065,9.738996505737305,-1.0270564556121826,0.31855154037475586, -0.012563027441501617
167,309529295,0.997831,-0.015389465,-0.055302486,0.032220993,1.0683388710021973,-0.3380696475505829,9.763248443603516,-1.0000606775283813,0.24217447638511658, -0.07697897404432297
168,309545962,0.99783045,-0.015393418,-0.055308547,0.0322249,1.0647258758544922,-0.3342624604701996,9.754964828491211,-1.0125468969345093,0.23118659853935242, -0.031029783189296722
169,309562629,0.9978307,-0.015400218,-0.055303417,0.03222341,1.0820494890213013,-0.3291204571723938,9.729446411132812,-1.0358927249908447,0.31066280603408813, -0.10519134998321533
170,309579296,0.9978304,-0.015393082,-0.05530548,0.032234315,1.069699764251709,-0.34081313014030457,9.750978469848633,-0.9416893124580383,0.2582080066204071, -0.06536360085010529
171,309595963,0.99782974,-0.015386529,-0.05531197,0.032244675,1.0694892406463623,-0.334224671125412,9.742506980895996,-0.94419926404953,0.22696052491664886, -0.04438680410385132
172,309612630,0.99782944,-0.015383948,-0.055309635,0.032259658,1.073885440826416,-0.3410083055496216,9.74188232421875,-0.9716433882713318,0.2893018424510956, -0.04706333950161934
173,309629297,0.9978289,-0.015387331,-0.055308644,0.03227634,1.068684697151184,-0.3271835744380951,9.746500015258789,-1.0105105638504028,0.28058069944381714, -0.01718612015247345
174,309645964,0.99782854,-0.015390386,-0.05531035,0.03228447,1.0772095918655396,-0.3321666121482849,9.752401351928711,-1.0095244646072388,0.26203712821006775, -0.05163520202040672
175,309662631,0.99782765,-0.015391512,-0.055309813,0.03231021,1.0631608963012695,-0.34637588262557983,9.773930549621582,-1.0007907152175903,0.2786213457584381, -0.03619074448943138
176,309679298,0.9978271,-0.015403427,-0.0553116,0.03231766,1.07949697971344,-0.33035701513290405,9.746387481689453,-1.0738637447357178,0.2643550932407379, -0.08320285379886627
177,309695965,0.9978268,-0.015399489,-0.055311173,0.032329578,1.0714280605316162,-0.34016045928001404,9.753105163574219,-0.9606170058250427,0.2750099301338196, -0.03689509257674217
178,309712632,0.99782693,-0.0154019,-0.05530603,0.03233349,1.072240948677063,-0.33591577410697937,9.768488883972168,-1.0022633075714111,0.30857542157173157, -0.053889114409685135
179,309729299,0.9978269,-0.015400418,-0.05530821,0.032330662,1.0627970695495605,-0.33671319484710693,9.768959999084473,-0.9830537438392639,0.25909164547920227, -0.13307078182697296
180,309745966,0.9978266,-0.015402494,-0.055307765,0.032340504,1.0697261095046997,-0.34079381823539734,9.753585815429688,-0.9991385340690613,0.27536851167678833, -0.01654580421745777
181,309762633,0.99782634,-0.015407523,-0.055306353,0.03234743,1.0929419994354248,-0.3310525119304657,9.748600959777832,-1.023086428642273,0.28385913372039795, -0.06136802211403847
182,309779300,0.9978271,-0.015404473,-0.055296868,0.03234494,1.075040578842163,-0.3274361789226532,9.74066162109375,-0.9642926454544067,0.33742812275886536, -0.08126910775899887
183,309795967,0.9978271,-0.015404116,-0.055296686,0.032345388,1.076897144317627,-0.34181687235832214,9.753229141235352,-0.9883555769920349,0.2750099301338196, -0.10125981271266937
184,309812634,0.9978265,-0.015392713,-0.055306707,0.032351565,1.0645734071731567,-0.341838538646698,9.746953010559082,-0.9105827808380127,0.20113013684749603, -0.04783172160387039
185,309829301,0.99782604,-0.015390229,-0.055306815,0.032364257,1.0713410377502441,-0.3362739682197571,9.756941795349121,-0.9776877760887146,0.2737036943435669, -0.09584271907806396
186,309845968,0.9978265,-0.015401961,-0.05529504,0.03236939,1.0616151094436646,-0.3364655673503876,9.726184844970703,-1.0723652839660645,0.358507364988327, -0.1131184995174408
187,309862635,0.99782604,-0.015403969,-0.05529504,0.03238033,1.0765697956085205,-0.3261403739452362,9.741633415222168,-0.9998173117637634,0.27255111932754517, -0.020272450521588326
188,309879302,0.9978254,-0.01540305,-0.055301137,0.03238888,1.0678191184997559,-0.3391042649745941,9.746885299682617,-0.9855638742446899,0.2313787192106247, -0.0700763389468193
189,309895969,0.9978254,-0.015400947,-0.05529719,0.032401223,1.0850287675857544,-0.34026017785072327,9.72072982788086,-0.9709389209747314,0.29898345470428467, -0.01995229348540306
190,309912636,0.99782485,-0.0154015245,-0.055301983,0.0324074,1.0759637355804443,-0.3338407278060913,9.759098052978516,-0.991557240486145,0.2395363599061966, -0.041518181562423706
191,309929303,0.99782443,-0.015403305,-0.05529936,0.032423653,1.0769211053848267,-0.33245572447776794,9.742705345153809,-1.0013158321380615,0.2919143736362457, -0.0353967510163784
192,309945970,0.9978241,-0.0153985275,-0.055304255,0.03242853,1.0790225267410278,-0.34158334136009216,9.764272689819336,-0.9564549922943115,0.23828133940696716, -0.06280232965946198
193,309962637,0.99782383,-0.015396732,-0.05530261,0.0324396,1.0777455568313599,-0.33995041251182556,9.758251190185547,-0.9762791991233826,0.2842817008495331, -0.04770364984869957
194,309979304,0.9978229,-0.015399006,-0.05531203,0.032451164,1.072687029838562,-0.33992889523506165,9.753220558166504,-1.0050550699234009,0.20849376916885376, -0.029595473781228065
195,309995971,0.99782217,-0.015404107,-0.055321563,0.032455772,1.0671268701553345,-0.32322612404823303,9.75083065032959,-1.0230224132537842,0.2079302966594696, -0.04057050868868828
196,310012638,0.9978212,-0.015402658,-0.05532784,0.032469872,1.0633866786956787,-0.3475837707519531,9.757644653320312,-0.9776623249053955,0.22875341773033142, -0.011372038163244724
197,310029305,0.997821,-0.015413179,-0.05533043,0.03247203,1.0767185688018799,-0.3310205042362213,9.74846363067627,-1.0623250007629395,0.25787508487701416, -0.07893834263086319
198,310045972,0.99782,-0.015408654,-0.055340856,0.03248273,1.0821999311447144,-0.33208340406417847,9.756444931030273,-0.9578253030776978,0.19960615038871765, -0.027546456083655357
199,310062639,0.99781877,-0.015415868,-0.05534614,0.032509435,1.0834349393844604,-0.3292422294616699,9.749320030212402,-1.0460481643676758,0.24044561386108398, -0.047831714153289795
200,310079306,0.99781805,-0.015420832,-0.05534171,0.032538366,1.0916250944137573,-0.3363109827041626,9.765439987182617,-1.0212551355361938,0.3046182096004486, 0.025811195373535156
201,310095973,0.9978175,-0.015421741,-0.05534413,0.032549765,1.0775463581085205,-0.326214998960495,9.75912857055664,-0.9948997497558594,0.25672250986099243, -0.03653651475906372
202,310112640,0.9978175,-0.015416644,-0.055340353,0.032558817,1.0857398509979248,-0.32505640387535095,9.76525592803955,-0.9547773003578186,0.29885539412498474, -0.06710527837276459
203,310129307,0.9978169,-0.015419361,-0.055346135,0.032567095,1.0925538539886475,-0.3312600255012512,9.76681900024414,-1.0147879123687744,0.23612986505031586, -0.10497364401817322
204,310145974,0.99781674,-0.015422081,-0.055343512,0.03257314,1.0709775686264038,-0.33176812529563904,9.73575210571289,-1.0108435153961182,0.2933870553970337, -0.09274357557296753
205,310162641,0.9978163,-0.015424158,-0.05533932,0.032590862,1.0684025287628174,-0.34614047408103943,9.764811515808105,-1.002711534500122,0.30303025245666504, -0.02200130932033062
206,310179308,0.9978166,-0.015417276,-0.055331286,0.032600533,1.073032259941101,-0.3426843583583832,9.761134147644043,-0.9397554993629456,0.32732388377189636, -0.04907393082976341
207,310195975,0.99781626,-0.015420574,-0.055335354,0.032602903,1.067631721496582,-0.33666664361953735,9.757942199707031,-1.0078468322753906,0.2447485476732254, -0.030146148055791855
208,310212642,0.99781597,-0.015431156,-0.055336192,0.032607373,1.0795773267745972,-0.34565308690071106,9.760884284973145,-1.0620434284210205,0.27009233832359314, -0.06501784175634384
209,310229309,0.9978157,-0.015426468,-0.055336118,0.032616522,1.071854591369629,-0.33935460448265076,9.755573272705078,-0.958683431148529,0.2735244333744049, -0.06919271498918533
210,310245976,0.99781525,-0.015422856,-0.055340394,0.032626465,1.076015591621399,-0.33166491985321045,9.76218032836914,-0.9671226739883423,0.24389052391052246, -0.06779681146144867
211,310262643,0.99781454,-0.015417075,-0.05534459,0.032641344,1.0725159645080566,-0.3262086808681488,9.744382858276367,-0.9560835957527161,0.24517114460468292, -0.08626356720924377
212,310279310,0.9978145,-0.015410381,-0.055338703,0.0326564,1.0819358825683594,-0.33537524938583374,9.769501686096191,-0.9419838190078735,0.3125453591346741, -0.03347579389810562
213,310295977,0.99781424,-0.015399244,-0.05534435,0.032660857,1.0732576847076416,-0.31895923614501953,9.750762939453125,-0.9162175059318542,0.23288987576961517, -0.0912836566567421
214,310312644,0.99781454,-0.015403674,-0.055336565,0.03266234,1.080438494682312,-0.3421386778354645,9.745091438293457,-1.0125597715377808,0.3263762295246124, -0.025894440710544586
215,310329311,0.99781454,-0.015399102,-0.055331826,0.032672733,1.067664384841919,-0.3370681703090668,9.745817184448242,-0.9572362899780273,0.3052713871002197, -0.051609594374895096
216,310345978,0.9978141,-0.015391936,-0.055335846,0.032682605,1.07394278049469,-0.33384913206100464,9.758225440979004,-0.9415355920791626,0.24445399641990662, -0.056104615330696106
217,310362645,0.99781424,-0.015387686,-0.055338193,0.032678306,1.0777041912078857,-0.3466748595237732,9.752856254577637,-0.9598614573478699,0.2561846077442169, -0.09121962636709213
218,310379312,0.9978144,-0.015384165,-0.0553329,0.032683328,1.0704669952392578,-0.3285810649394989,9.767318725585938,-0.9641132354736328,0.30926695466041565, -0.06903902441263199
219,310395979,0.9978144,-0.015372324,-0.055333603,0.03268732,1.0798591375350952,-0.3300766050815582,9.76407241821289,-0.9130286574363708,0.2675822675228119, -0.11715248972177505
220,310412646,0.9978145,-0.015371549,-0.05532975,0.032693855,1.0759974718093872,-0.3366670608520508,9.740243911743164,-0.9820420742034912,0.2994956970214844, -0.0496758297085762
221,310429313,0.9978145,-0.01537336,-0.055332955,0.032685272,1.0830163955688477,-0.3458866477012634,9.739814758300781,-0.9988953471183777,0.2506906986236572, -0.07945059984922409
222,310445980,0.9978142,-0.015372204,-0.055334773,0.032688066,1.0760878324508667,-0.3444410562515259,9.754716873168945,-0.98391193151474,0.2614608407020569, -0.09357599914073944
223,310462647,0.997814,-0.015371099,-0.055335492,0.03269883,1.0611006021499634,-0.3271729350090027,9.769391059875488,-0.9863834977149963,0.26990026235580444, -0.0878259539604187
224,310479314,0.99781394,-0.015367668,-0.055333886,0.032700688,1.0779080390930176,-0.3319711685180664,9.744239807128906,-0.9635241031646729,0.28312915563583374, -0.0608941912651062
225,310495981,0.9978132,-0.015375031,-0.055340353,0.032708213,1.0691026449203491,-0.3294527530670166,9.747994422912598,-1.043679118156433,0.2313787192106247, -0.07567272335290909
226,310512648,0.9978128,-0.01538207,-0.055344816,0.032710355,1.0601959228515625,-0.3473263084888458,9.75386905670166,-1.0394145250320435,0.24449244141578674, -0.07984759658575058
227,310529315,0.9978127,-0.015384903,-0.055343837,0.032714598,1.0787075757980347,-0.32298970222473145,9.748027801513672,-1.012457251548767,0.2819893956184387, -0.10361616313457489
228,310545982,0.9978126,-0.015381023,-0.05534042,0.0327236,1.0624035596847534,-0.3423907458782196,9.72215461730957,-0.9671483039855957,0.2976771891117096, -0.09898027032613754
229,310562649,0.9978123,-0.015378832,-0.05534656,0.032723244,1.0805516242980957,-0.3304978013038635,9.743371963500977,-0.9772012829780579,0.2310713529586792, -0.09939008206129074
230,310579316,0.9978121,-0.015381476,-0.055350076,0.03272442,1.0722118616104126,-0.3518427014350891,9.74051284790039,-1.0063741207122803,0.2492435872554779, -0.060253873467445374
231,310595983,0.99781185,-0.015381015,-0.05535233,0.03272855,1.068339228630066,-0.3414577543735504,9.739718437194824,-0.9880738258361816,0.2582336366176605, -0.0826137587428093
232,310612650,0.9978114,-0.015385122,-0.055361412,0.032727346,1.0732197761535645,-0.3225857615470886,9.764873504638672,-1.0223309993743896,0.21265585720539093, -0.11228608340024948
233,310629317,0.9978112,-0.015381667,-0.05536244,0.032732163,1.080814003944397,-0.3361555337905884,9.74800968170166,-0.9665849208831787,0.26572537422180176, -0.07407192885875702
234,310645984,0.99781007,-0.015385233,-0.05537044,0.0327492,1.0735350847244263,-0.3402447998523712,9.751741409301758,-1.0191420316696167,0.22010913491249084, -0.05511852726340294
235,310662651,0.9978094,-0.015394524,-0.055381056,0.03274796,1.0788642168045044,-0.32912933826446533,9.73980712890625,-1.0616592168807983,0.20429329574108124, -0.14094668626785278
236,310679318,0.99780965,-0.015400394,-0.0553769,0.032747142,1.0669580698013306,-0.33016687631607056,9.741986274719238,-1.0264801979064941,0.3025820553302765, -0.06325056403875351
237,310695985,0.99780905,-0.015401614,-0.055381525,0.032754622,1.0833485126495361,-0.33430978655815125,9.762113571166992,-0.9984982013702393,0.2415982037782669, -0.05310792848467827
238,310712652,0.9978092,-0.015409779,-0.05537357,0.03276185,1.0849987268447876,-0.3234257400035858,9.753347396850586,-1.0487247705459595,0.3315243721008301, -0.10143908113241196
239,310729319,0.99782103,-0.0153520955,-0.055277985,0.03258479,1.082633376121521,-0.32830584049224854,9.761523246765137,-1.0125340223312378,0.3150297701358795, -0.11950884759426117
240,310745986,0.9978217,-0.0153492,-0.055272117,0.032577544,1.0761326551437378,-0.34502023458480835,9.773538589477539,-0.9736284017562866,0.3116617500782013, -0.13686145842075348
241,310762653,0.9978214,-0.0153474305,-0.055273756,0.032585677,1.0691965818405151,-0.33960098028182983,9.752903938293457,-0.9811328053474426,0.25957828760147095, -0.06544044613838196
242,310779320,0.9978212,-0.015337524,-0.055269007,0.032600865,1.0688636302947998,-0.3272090554237366,9.74090576171875,-0.9236450791358948,0.30169835686683655, -0.04333668202161789
243,310795987,0.9978213,-0.015323891,-0.055273175,0.032600526,1.085409164428711,-0.3442569077014923,9.753836631774902,-0.9014132618904114,0.2399589568376541, -0.11058282852172852
244,310812654,0.99782073,-0.015326835,-0.055279158,0.032605216,1.066664695739746,-0.34717991948127747,9.741829872131348,-1.0116249322891235,0.22980356216430664, -0.05146872252225876
245,310829321,0.9978208,-0.015322067,-0.055281702,0.032601424,1.078454613685608,-0.3545287847518921,9.733449935913086,-0.956314206123352,0.25130540132522583, -0.0697689950466156
246,310845988,0.99782056,-0.015325467,-0.055276595,0.03261445,1.0704784393310547,-0.33960452675819397,9.754056930541992,-1.0122138261795044,0.3063342869281769, -0.02420399896800518
247,310862655,0.99782056,-0.015326896,-0.055274725,0.03261798,1.0735676288604736,-0.3392758369445801,9.755387306213379,-1.000905990600586,0.2840896546840668, -0.07181800901889801
248,310879322,0.9978207,-0.015323102,-0.055275366,0.03261411,1.0699681043624878,-0.32569313049316406,9.751832008361816,-0.9604761600494385,0.26398366689682007, -0.05182730033993721
249,310895989,0.99782044,-0.015328323,-0.055275887,0.032618977,1.0851272344589233,-0.3445807099342346,9.743812561035156,-1.0271589756011963,0.2682354152202606, -0.06211080029606819
250,310912656,0.9978201,-0.015327172,-0.05528081,0.03262143,1.0802191495895386,-0.32857319712638855,9.748199462890625,-0.9847058057785034,0.23677019774913788, -0.0766075849533081
251,310929323,0.9978193,-0.015327904,-0.055289518,0.0326318,1.0746694803237915,-0.3411528468132019,9.745200157165527,-0.9964876770973206,0.21051716804504395, -0.029941245913505554
252,310945990,0.99781895,-0.015329829,-0.05529146,0.032637946,1.0774376392364502,-0.33353227376937866,9.766286849975586,-1.00490140914917,0.2578878700733185, -0.0601770356297493
253,310962657,0.9978188,-0.015331087,-0.055292837,0.03263869,1.0632268190383911,-0.3280792832374573,9.735733985900879,-1.0026346445083618,0.26234447956085205, -0.09890343248844147
254,310979324,0.9978185,-0.015338581,-0.055295113,0.032639917,1.0784475803375244,-0.33286458253860474,9.772045135498047,-1.0446010828018188,0.2570938766002655, -0.08650688827037811
255,310995991,0.99781835,-0.015342161,-0.055297155,0.032642417,1.0676531791687012,-0.3211793005466461,9.752215385437012,-1.0199360847473145,0.2586306035518646, -0.10425648838281631
256,311012658,0.9978188,-0.0153508065,-0.05528579,0.032645006,1.0773531198501587,-0.3377206027507782,9.7597074508667,-1.045151710510254,0.3498630225658417, -0.04063454270362854
257,311029325,0.9978187,-0.015345196,-0.055281937,0.032656677,1.0741044282913208,-0.335702508687973,9.763593673706055,-0.9493218064308167,0.29507750272750854, -0.017570311203598976
258,311045992,0.99781895,-0.015344718,-0.0552753,0.032656867,1.06098210811615,-0.3399052619934082,9.744126319885254,-0.9885221123695374,0.31680986285209656, -0.09717457741498947
259,311062659,0.9978183,-0.015348734,-0.055280752,0.03266882,1.073911428451538,-0.33730506896972656,9.764688491821289,-1.0168753862380981,0.23297952115535736, -0.008772349916398525
260,311079326,0.99781823,-0.015349195,-0.055275373,0.032680277,1.0795032978057861,-0.3420758545398712,9.755821228027344,-0.991057813167572,0.30700019001960754, -0.020528575405478477
261,311095993,0.9978179,-0.015352421,-0.0552776,0.03268234,1.0710766315460205,-0.3410785496234894,9.733007431030273,-1.0146598815917969,0.25613340735435486, -0.07878466695547104
262,311112660,0.99781775,-0.015348239,-0.05528264,0.032681447,1.068766474723816,-0.34171080589294434,9.736331939697266,-0.959758996963501,0.23374788463115692, -0.04989353567361832
263,311129327,0.9978181,-0.015346793,-0.055282425,0.032669373,1.0809366703033447,-0.33934491872787476,9.753568649291992,-0.9829385280609131,0.27224376797676086, -0.1372968703508377
264,311145994,0.9978182,-0.015345574,-0.055276282,0.032681677,1.0597925186157227,-0.3364661931991577,9.755898475646973,-0.976855456829071,0.3112775385379791, 0.0030799268279224634
265,311162661,0.9978184,-0.015346657,-0.05527192,0.032682125,1.066123127937317,-0.3394373655319214,9.7584867477417,-0.9937343597412109,0.2995085120201111, -0.043118979781866074
266,311179328,0.9978181,-0.015341901,-0.055270214,0.032692093,1.092840313911438,-0.34000924229621887,9.771467208862305,-0.9557121992111206,0.2803245782852173, -0.026278628036379814
267,311195995,0.9978186,-0.015339573,-0.055263784,0.032691494,1.089159369468689,-0.338634192943573,9.752044677734375,-0.9704523086547852,0.31323692202568054, -0.05291583389043808
268,311212662,0.9978185,-0.015343166,-0.055266824,0.032687623,1.0822139978408813,-0.3325856328010559,9.77194881439209,-1.0194238424301147,0.251369446516037, -0.11920151859521866
269,311229329,0.99781907,-0.015337289,-0.05525652,0.032693297,1.075895071029663,-0.3296791911125183,9.74968433380127,-0.9474009275436401,0.33988693356513977, -0.052237097173929214
270,311245996,0.9978187,-0.015329116,-0.055254694,0.03270804,1.0653904676437378,-0.3378151059150696,9.761701583862305,-0.9348122477531433,0.28140029311180115, -0.03329651057720184
271,311262663,0.99781877,-0.015323642,-0.055254653,0.03270777,1.0802091360092163,-0.34059688448905945,9.743949890136719,-0.9554048180580139,0.27020758390426636, -0.09835276752710342
272,311279330,0.99781877,-0.015325173,-0.055254873,0.032705512,1.0761747360229492,-0.33118972182273865,9.759637832641602,-1.0052727460861206,0.270553320646286, -0.11959849298000336
273,311295997,0.997819,-0.01533213,-0.055254776,0.032698523,1.0791144371032715,-0.3406897485256195,9.770123481750488,-1.0360721349716187,0.27203887701034546, -0.07756806910037994
274,311312664,0.9978188,-0.015333999,-0.055254873,0.032701235,1.0663459300994873,-0.3291672468185425,9.726314544677734,-1.0025449991226196,0.26979777216911316, -0.05595093220472336
275,311329331,0.99781865,-0.015330814,-0.055257883,0.032701492,1.0730061531066895,-0.33872559666633606,9.738662719726562,-0.9708877205848694,0.24946126341819763, -0.08943953365087509
276,311345998,0.9978189,-0.015339692,-0.055255525,0.032700006,1.0743311643600464,-0.3251815736293793,9.750273704528809,-1.0501463413238525,0.2883926033973694, -0.06856519728899002
277,311362665,0.9978186,-0.015341192,-0.055256333,0.032703992,1.073879599571228,-0.32082822918891907,9.740945816040039,-1.0011491775512695,0.2651234567165375, -0.05915252864360809
278,311379332,0.9978187,-0.015336956,-0.055249874,0.032713782,1.0650501251220703,-0.33137261867523193,9.746971130371094,-0.956122100353241,0.3126862645149231, -0.004853607155382633
279,311395999,0.99781895,-0.0153285805,-0.05525009,0.032711662,1.0764846801757812,-0.3316267132759094,9.76114273071289,-0.9341335296630859,0.2672749161720276, -0.09274357557296753
280,311412666,0.9978187,-0.01532513,-0.05524627,0.032724798,1.0578879117965698,-0.3402365446090698,9.753665924072266,-0.9634730219841003,0.2949622869491577, -0.006172661203891039
281,311429333,0.99781835,-0.015323972,-0.055247936,0.032733418,1.073909044265747,-0.3376083970069885,9.756144523620605,-0.9817731380462646,0.2581311762332916, -0.032835476100444794
282,311446000,0.9978176,-0.015315946,-0.055255324,0.03274848,1.0860633850097656,-0.32781052589416504,9.74616527557373,-0.9342487454414368,0.2167026400566101, 0.001466326997615397
283,311462667,0.9978173,-0.015316539,-0.05525879,0.03275232,1.0886746644973755,-0.3382824659347534,9.758881568908691,-0.9956424236297607,0.24660545587539673, -0.06218763068318367
284,311479334,0.99781734,-0.015317827,-0.055257652,0.032752536,1.0552656650543213,-0.3269266188144684,9.745903015136719,-0.9972175359725952,0.27784013748168945, -0.05431172624230385
285,311496001,0.9978176,-0.01532062,-0.055252552,0.03275205,1.0768344402313232,-0.33790138363838196,9.749117851257324,-1.0096911191940308,0.3062574565410614, -0.08271621912717819
286,311512668,0.99781764,-0.015318791,-0.055246968,0.032756146,1.0711232423782349,-0.347461462020874,9.772964477539062,-0.9796857237815857,0.30913886427879333, -0.08610989153385162
287,311529335,0.99781793,-0.0153138,-0.055242445,0.032759476,1.070763111114502,-0.35267502069473267,9.75863265991211,-0.9561604261398315,0.30058419704437256, -0.07213816046714783
288,311546002,0.9978178,-0.015317411,-0.055247184,0.032753866,1.0719283819198608,-0.33867147564888,9.746479034423828,-1.0197439193725586,0.23947232961654663, -0.12208292633295059
289,311562669,0.99781716,-0.015326375,-0.05525455,0.032759614,1.0787107944488525,-0.33130547404289246,9.755537986755371,-1.0541675090789795,0.2215946614742279, -0.05483678728342056
290,311579336,0.9978168,-0.015331773,-0.05525066,0.032773126,1.0784460306167603,-0.3346420228481293,9.734359741210938,-1.0248280763626099,0.2974722683429718, -0.006633688695728779
291,311596003,0.9978166,-0.015327772,-0.055249304,0.032782227,1.081872582435608,-0.34008359909057617,9.747562408447266,-0.9585040211677551,0.27743029594421387, -0.007030684966593981
292,311612670,0.9978164,-0.0153326215,-0.05525081,0.032785133,1.067204475402832,-0.3288533687591553,9.740179061889648,-1.0238547325134277,0.2609741985797882, -0.05994652211666107
293,311629337,0.99781674,-0.015335606,-0.055249564,0.032775313,1.080418348312378,-0.3325567841529846,9.750165939331055,-1.0136609077453613,0.2804270386695862, -0.13345496356487274
294,311646004,0.9978172,-0.01533413,-0.055244524,0.032769244,1.0843780040740967,-0.33029705286026,9.754228591918945,-0.9791351556777954,0.304618239402771, -0.09387055039405823
295,311662671,0.9978178,-0.015332706,-0.0552332,0.0327696,1.076967477798462,-0.3337293267250061,9.751503944396973,-0.980108380317688,0.34853118658065796, -0.08908095955848694
296,311679338,0.9978177,-0.0153371375,-0.055227708,0.032781348,1.0680522918701172,-0.3410143256187439,9.746764183044434,-1.0181431770324707,0.3086009919643402, -0.015342005528509617
297,311696005,0.99781716,-0.015333801,-0.05523447,0.032789104,1.06920325756073,-0.33550551533699036,9.75314712524414,-0.965265691280365,0.22183798253536224, -0.012550221756100655
298,311712672,0.9978169,-0.015333822,-0.055233456,0.032794368,1.0687819719314575,-0.33832091093063354,9.760871887207031,-0.9908275008201599,0.2773151099681854, -0.05945988744497299
299,311729339,0.99781686,-0.0153317405,-0.05523134,0.03280156,1.0626134872436523,-0.34780049324035645,9.753021240234375,-0.9727703928947449,0.2834237515926361, -0.021232929080724716
300,311746006,0.9978172,-0.015328914,-0.055230066,0.032794718,1.0768674612045288,-0.32999205589294434,9.747966766357422,-0.9711182117462158,0.278429239988327, -0.09996636211872101
301,311762673,0.9978173,-0.015327148,-0.055228416,0.032795426,1.0690077543258667,-0.33215969800949097,9.730347633361816,-0.9769963622093201,0.2808496654033661, -0.06232849881052971
302,311779340,0.9978172,-0.015329788,-0.055229604,0.03279662,1.0720206499099731,-0.3480651378631592,9.766900062561035,-1.0091915130615234,0.2627158463001251, -0.07026843726634979
303,311796007,0.99781734,-0.015326571,-0.05522752,0.032798585,1.08159339427948,-0.3311869502067566,9.7605619430542,-0.9741021394729614,0.2857544720172882, -0.12437526136636734
304,311812674,0.99781805,-0.015320357,-0.055219095,0.03279494,1.0832244157791138,-0.3306055963039398,9.750118255615234,-0.9485278129577637,0.32770806550979614, -0.11192748695611954
305,311829341,0.99781823,-0.015311116,-0.055215064,0.032797325,1.0705156326293945,-0.32416003942489624,9.751727104187012,-0.9268595576286316,0.2961660325527191, -0.0776192843914032
306,311846008,0.9978181,-0.015310782,-0.055214893,0.03280082,1.0584371089935303,-0.33789804577827454,9.75363540649414,-0.9884580373764038,0.2714497745037079, -0.06380122900009155
307,311862675,0.9978179,-0.015311001,-0.05521591,0.032805637,1.0572222471237183,-0.3312497138977051,9.76618766784668,-0.9923128485679626,0.2632409334182739, -0.05660407245159149
308,311879342,0.9978181,-0.015304224,-0.055209823,0.03281333,1.0835413932800293,-0.3342805802822113,9.740460395812988,-0.9421248435974121,0.31030428409576416, -0.04475819319486618
309,311896009,0.9978182,-0.015299773,-0.05520444,0.032822046,1.0618489980697632,-0.33669549226760864,9.767641067504883,-0.9574795365333557,0.3058348298072815, -0.03371911868453026
310,311912676,0.99781805,-0.0152966045,-0.05520594,0.032825682,1.071991205215454,-0.33709415793418884,9.742698669433594,-0.9701194167137146,0.2593093514442444, -0.06967934221029282
311,311929343,0.99781865,-0.0152951805,-0.0551956,0.032825965,1.063631534576416,-0.33781999349594116,9.736268997192383,-0.9763303995132446,0.34024548530578613, -0.05248041823506355
312,311946010,0.99781847,-0.015299527,-0.055193234,0.0328332,1.0745998620986938,-0.34059759974479675,9.735969543457031,-1.0187194347381592,0.2868686020374298, -0.034756433218717575
313,311962677,0.99781823,-0.015294306,-0.05519463,0.03284139,1.0700281858444214,-0.33921217918395996,9.762274742126465,-0.9535737037658691,0.25886115431785583, -0.03443627804517746
314,311979344,0.99781775,-0.0153009705,-0.05519649,0.032849528,1.0730124711990356,-0.33950161933898926,9.749950408935547,-1.0357774496078491,0.2584001123905182, -0.03357824683189392
315,311996011,0.9978176,-0.0153029375,-0.05519465,0.032858066,1.069893717765808,-0.3245978057384491,9.761561393737793,-0.9995611906051636,0.28192538022994995, -0.00635194918140769
316,312012678,0.9978178,-0.015292529,-0.055191584,0.03286088,1.0740801095962524,-0.3414861857891083,9.764827728271484,-0.9178311228752136,0.28864872455596924, -0.06157293543219566
317,312029345,0.9978175,-0.015295088,-0.055194035,0.032863375,1.0625317096710205,-0.33106866478919983,9.761092185974121,-1.0084359645843506,0.2536233365535736, -0.061265576630830765
318,312046012,0.9978177,-0.015297545,-0.055184662,0.03287149,1.0794589519500732,-0.33574163913726807,9.749250411987305,-1.0058107376098633,0.33516135811805725, -0.049688637256622314
319,312062679,0.9978169,-0.0153028425,-0.055192303,0.03288158,1.0778292417526245,-0.33225104212760925,9.7332763671875,-1.0263007879257202,0.21785521507263184, -0.015418843366205692
320,312079346,0.9978168,-0.015299934,-0.055191845,0.032883774,1.0707634687423706,-0.3271764814853668,9.758302688598633,-0.9709005951881409,0.27257677912712097, -0.07026845216751099
321,312096013,0.99781674,-0.0152972415,-0.055190887,0.03288965,1.0749270915985107,-0.33898910880088806,9.765482902526855,-0.9723863005638123,0.276149719953537, -0.05903727561235428
322,312112680,0.9978173,-0.015288022,-0.05517921,0.032897495,1.0731922388076782,-0.33045539259910583,9.754502296447754,-0.9233761429786682,0.3479804992675781, -0.0375354066491127
323,312129347,0.99781704,-0.015293247,-0.055178896,0.03290436,1.060865879058838,-0.3355180621147156,9.766376495361328,-1.026364803314209,0.27326828241348267, -0.047678038477897644
324,312146014,0.99781644,-0.0152961565,-0.055179797,0.03291954,1.0567283630371094,-0.33688512444496155,9.773613929748535,-1.0063742399215698,0.2630232274532318, 0.020061150193214417
325,312162681,0.997816,-0.0152977435,-0.055185102,0.032922067,1.0645253658294678,-0.33406156301498413,9.745298385620117,-1.0033645629882812,0.233939990401268, -0.07090875506401062
326,312179348,0.997816,-0.015294571,-0.05518559,0.032924347,1.0662885904312134,-0.3354722857475281,9.751212120056152,-0.9690180420875549,0.26580217480659485, -0.0677327811717987
327,312196015,0.99781567,-0.015294165,-0.05519155,0.03292224,1.0750330686569214,-0.3367081880569458,9.759867668151855,-0.988688588142395,0.2285357117652893, -0.076594777405262
328,312212682,0.99781495,-0.0152927525,-0.05519967,0.032933194,1.0617027282714844,-0.34333834052085876,9.773355484008789,-0.9880738258361816,0.21530674397945404, -0.0846627801656723
329,312229349,0.99781394,-0.015296529,-0.05521473,0.032936037,1.0835944414138794,-0.3294868767261505,9.753250122070312,-1.0198208093643188,0.16698838770389557, -0.06287917494773865
330,312246016,0.99781346,-0.015288535,-0.05521902,0.032946926,1.0641288757324219,-0.3390151858329773,9.759353637695312,-0.9330833554267883,0.23742330074310303, -0.006083015352487564
331,312262683,0.99781334,-0.015281997,-0.05522097,0.032949477,1.0643668174743652,-0.33095136284828186,9.752300262451172,-0.9457616806030273,0.2548143267631531, -0.06307126581668854
332,312279350,0.99781346,-0.01528062,-0.055222154,0.032945227,1.0755802392959595,-0.3316787779331207,9.758352279663086,-0.9832844138145447,0.26192188262939453, -0.10624148696660995
333,312296017,0.997813,-0.015287346,-0.055223905,0.03295381,1.0577110052108765,-0.34035226702690125,9.766855239868164,-1.0383388996124268,0.2596167325973511, -0.0519169457256794
334,312312684,0.99781305,-0.015291922,-0.055231273,0.03293742,1.0690102577209473,-0.3308529257774353,9.747016906738281,-1.0239187479019165,0.22010910511016846, -0.13134190440177917
335,312329351,0.9978129,-0.015293661,-0.055231627,0.03294188,1.0782595872879028,-0.33658331632614136,9.76757526397705,-0.9996635913848877,0.26671141386032104, -0.03076085075736046
336,312346018,0.99781287,-0.0152895795,-0.055231612,0.032943793,1.0824557542800903,-0.3423033654689789,9.742786407470703,-0.9622050523757935,0.2687476575374603, -0.06512029469013214
337,312362685,0.99781257,-0.015283916,-0.055235654,0.032947812,1.0778838396072388,-0.3397056758403778,9.743372917175293,-0.9537913203239441,0.2410603165626526, -0.07316268235445023
338,312379352,0.9978125,-0.015279397,-0.0552379,0.032947354,1.0804907083511353,-0.3434363305568695,9.766324996948242,-0.9611548781394958,0.2536873519420624, -0.0873136967420578
339,312396019,0.9978124,-0.015286209,-0.05524123,0.032940812,1.0746104717254639,-0.328689306974411,9.761634826660156,-1.0411689281463623,0.24938443303108215, -0.1221981793642044
340,312412686,0.99781233,-0.015285791,-0.055245254,0.032938763,1.0670119524002075,-0.33942344784736633,9.775022506713867,-0.9900716543197632,0.24252024292945862, -0.09472855925559998
341,312429353,0.9978128,-0.015275082,-0.0552411,0.03293785,1.0717878341674805,-0.3355191648006439,9.763885498046875,-0.9150266051292419,0.2956666052341461, -0.07143381237983704
342,312446020,0.99781233,-0.015277422,-0.055249047,0.032938134,1.0710158348083496,-0.3326587975025177,9.750140190124512,-1.0112022161483765,0.21643373370170593, -0.09786612540483475
343,312462687,0.99781144,-0.01527996,-0.05525569,0.032950267,1.0683141946792603,-0.34007272124290466,9.749284744262695,-1.0051319599151611,0.2231442630290985, 0.009265393950045109
344,312479354,0.99781173,-0.015280563,-0.055252332,0.032947198,1.079015851020813,-0.3437325656414032,9.748760223388672,-0.9910065531730652,0.2920807898044586, -0.05884517356753349
345,312496021,0.9978119,-0.015284604,-0.055247165,0.03294864,1.0699406862258911,-0.3438413739204407,9.746040344238281,-1.0188859701156616,0.3067953288555145, -0.08348459750413895
346,312512688,0.99781114,-0.015289754,-0.055256594,0.03295409,1.0616751909255981,-0.34775009751319885,9.743237495422363,-1.0315898656845093,0.2070978730916977, -0.08691669255495071
347,312529355,0.99781096,-0.015297766,-0.055256486,0.03295545,1.0764318704605103,-0.3325139880180359,9.757735252380371,-1.045408010482788,0.2721925675868988, -0.06591429561376572
348,312546022,0.99781024,-0.015296771,-0.055262603,0.032966528,1.0815073251724243,-0.33293235301971436,9.74659538269043,-0.9809151887893677,0.2261793464422226, -0.0010501205688342452
349,312562689,0.99780995,-0.015296336,-0.05526122,0.032977205,1.073324203491211,-0.345050573348999,9.744513511657715,-0.9854998588562012,0.2786085307598114, -0.022270239889621735
350,312579356,0.9978102,-0.015294784,-0.055257335,0.032981064,1.0787361860275269,-0.3448322117328644,9.74220085144043,-0.9806462526321411,0.29678070545196533, -0.07706859707832336
351,312596023,0.9978098,-0.015296278,-0.0552566,0.032993417,1.0767356157302856,-0.3384195566177368,9.738673210144043,-0.9974864721298218,0.27419033646583557, -0.004149257205426693
352,312612690,0.9978099,-0.015298044,-0.05525072,0.032997247,1.0768673419952393,-0.3337986469268799,9.750761985778809,-1.0037745237350464,0.3113928437232971, -0.08468839526176453
353,312629357,0.99781024,-0.015282392,-0.05525429,0.032988477,1.0784313678741455,-0.32782596349716187,9.757009506225586,-0.8858920335769653,0.24234095215797424, -0.12848611176013947
354,312646024,0.9978104,-0.015280717,-0.055250794,0.032988742,1.064108967781067,-0.33194825053215027,9.742846488952637,-0.978878915309906,0.2938096523284912, -0.08001407235860825
355,312662691,0.99780995,-0.015286649,-0.055253554,0.03299606,1.0657129287719727,-0.334452748298645,9.743413925170898,-1.030642032623291,0.2516767978668213, -0.03611390292644501
356,312679358,0.99781,-0.015279776,-0.055253524,0.032999877,1.0761393308639526,-0.3490925431251526,9.734570503234863,-0.943443775177002,0.2685171663761139, -0.0653892233967781
357,312696025,0.9978106,-0.015271304,-0.05524137,0.033005126,1.0734518766403198,-0.3323790431022644,9.749137878417969,-0.9258735775947571,0.350452184677124, -0.02535657212138176
358,312712692,0.99781,-0.015274942,-0.055245504,0.03301432,1.0888868570327759,-0.333029568195343,9.75068473815918,-1.0127005577087402,0.2409834861755371, -0.007030685897916555
359,312729359,0.9978109,-0.015316061,-0.055288758,0.032893814,1.0654168128967285,-0.34199580550193787,9.744649887084961,-0.9926201105117798,0.2783139944076538, -0.07946339249610901
360,312746026,0.99781126,-0.015313592,-0.055285625,0.032891065,1.0687538385391235,-0.32976680994033813,9.728226661682129,-0.9710030555725098,0.2913892865180969, -0.07478908449411392
361,312762693,0.997811,-0.01530982,-0.055287387,0.03289657,1.071584939956665,-0.33920639753341675,9.742403984069824,-0.96111661195755,0.2567865550518036, -0.028558161109685898
362,312779360,0.9978107,-0.015310348,-0.05529246,0.03289514,1.0665396451950073,-0.3445248007774353,9.76974868774414,-0.995130181312561,0.2360786348581314, -0.08438102900981903
363,312796027,0.9978108,-0.015307133,-0.05529135,0.032897025,1.0672829151153564,-0.33570724725723267,9.76154899597168,-0.9656500220298767,0.27703338861465454, -0.053261611610651016
364,312812694,0.99781096,-0.01529824,-0.0552872,0.03290284,1.0788989067077637,-0.33919304609298706,9.76934814453125,-0.9249770045280457,0.2963581085205078, -0.031746938824653625
365,312829361,0.9978108,-0.015296224,-0.055294864,0.03289484,1.0828475952148438,-0.3355221748352051,9.73522663116455,-0.9749858379364014,0.21667702496051788, -0.08052632212638855
366,312846028,0.9978104,-0.0153007405,-0.05530636,0.032888945,1.072243332862854,-0.34710007905960083,9.755383491516113,-1.0253020524978638,0.1932414323091507, -0.11235010623931885
367,312862695,0.9978102,-0.015294315,-0.05530877,0.03289221,1.0857470035552979,-0.33886539936065674,9.743660926818848,-0.9415613412857056,0.2512029707431793, -0.024933964014053345
368,312879362,0.9978098,-0.015287963,-0.055312652,0.032901112,1.072034239768982,-0.32665425539016724,9.745197296142578,-0.94449383020401,0.24181587994098663, -0.02356368489563465
369,312896029,0.9978095,-0.015287077,-0.05531488,0.03290629,1.0845136642456055,-0.33341583609580994,9.755434036254883,-0.985461413860321,0.2556851804256439, -0.07043492048978806
370,312912696,0.9978092,-0.01529299,-0.055318724,0.032909278,1.0787838697433472,-0.31829574704170227,9.752784729003906,-1.026659369468689,0.2442234754562378, -0.021732375025749207
371,312929363,0.9978085,-0.015297702,-0.055325586,0.03291635,1.071032166481018,-0.33912646770477295,9.763628005981445,-1.02211332321167,0.2241431474685669, -0.03652371093630791
372,312946030,0.9978078,-0.0153011,-0.05533475,0.032917816,1.0741889476776123,-0.3438887894153595,9.752272605895996,-1.0109844207763672,0.2071106880903244, -0.03076085075736046
373,312962697,0.99780774,-0.01530116,-0.05532939,0.03292868,1.0802723169326782,-0.33422520756721497,9.765192985534668,-0.9881762862205505,0.30743563175201416, -0.03065839782357216
374,312979364,0.9978069,-0.015306582,-0.055342413,0.032929797,1.0692986249923706,-0.3397262990474701,9.736538887023926,-1.0257245302200317,0.18102416396141052, -0.030696822330355644
375,312996031,0.99780613,-0.015318321,-0.05534789,0.03293823,1.0685969591140747,-0.3310551047325134,9.755146980285645,-1.0671786069869995,0.23429857194423676, -0.001792888855561614
376,313012698,0.99780613,-0.01531453,-0.055346858,0.032941926,1.0737838745117188,-0.3397718667984009,9.74128246307373,-0.962845504283905,0.2768156826496124, -0.05878115072846413
377,313029365,0.9978055,-0.015319656,-0.05535477,0.032947794,1.0692893266677856,-0.3261549472808838,9.746569633483887,-1.026659369468689,0.2174069881439209, -0.05272373929619789
378,313046032,0.9978045,-0.015319318,-0.055362284,0.032963835,1.0678385496139526,-0.3348633944988251,9.756908416748047,-0.9855509400367737,0.2178295999765396, 0.012108402326703072
379,313062699,0.9978041,-0.015318864,-0.05536533,0.03296982,1.0911974906921387,-0.3385014533996582,9.753320693969727,-0.9849235415458679,0.2488337755203247, -0.03313002735376358
380,313079366,0.9978044,-0.015314782,-0.055362638,0.032966588,1.0619137287139893,-0.3311103582382202,9.740903854370117,-0.9603608846664429,0.28814923763275146, -0.07966829836368561
381,313096033,0.9978034,-0.015311808,-0.055378955,0.03297313,1.077082633972168,-0.34975871443748474,9.749517440795898,-0.9710670113563538,0.15714031457901, -0.03557603806257248
382,313112700,0.9978029,-0.015308376,-0.055377983,0.0329912,1.0666707754135132,-0.3298256993293762,9.744097709655762,-0.9604377150535583,0.27490749955177307, 0.036773432046175
383,313129367,0.99780256,-0.015306768,-0.055377144,0.033002555,1.0646123886108398,-0.33556440472602844,9.745780944824219,-0.973807692527771,0.27460014820098877, 0.0053850701078772545
384,313146034,0.997803,-0.015303908,-0.05537249,0.03299886,1.0634905099868774,-0.3430565297603607,9.762516975402832,-0.9682113528251648,0.30183926224708557, -0.08074404299259186
385,313162701,0.9978027,-0.015301185,-0.05537472,0.033005062,1.068922996520996,-0.3361310064792633,9.731490135192871,-0.9733337759971619,0.25530096888542175, -0.07194606959819794
386,313179368,0.99780244,-0.015297479,-0.055380028,0.0330055,1.0767375230789185,-0.33575862646102905,9.732752799987793,-0.9660725593566895,0.23346613347530365, -0.08073122054338455
387,313196035,0.9978027,-0.015297541,-0.05538056,0.03299615,1.0758576393127441,-0.34423568844795227,9.74089527130127,-0.9879457950592041,0.26621198654174805, -0.08429139107465744
388,313212702,0.9978025,-0.015299314,-0.05538338,0.032994475,1.079659104347229,-0.34237825870513916,9.745953559875488,-1.0022761821746826,0.2515103220939636, -0.07692775130271912
389,313229369,0.99780273,-0.015294647,-0.055384554,0.032991055,1.089490294456482,-0.3419557213783264,9.758980751037598,-0.9561347961425781,0.2610509991645813, -0.07318828254938126
390,313246036,0.99780273,-0.015294686,-0.055381678,0.032995112,1.0728278160095215,-0.3410651385784149,9.742194175720215,-0.9876512289047241,0.2899421453475952, -0.045923568308353424
391,313262703,0.9978026,-0.015286299,-0.055386323,0.032995593,1.0598446130752563,-0.33355242013931274,9.7334623336792,-0.93511962890625,0.23746171593666077, -0.09416509419679642
392,313279370,0.9978029,-0.015283443,-0.05538223,0.032994613,1.075894832611084,-0.3435659408569336,9.735703468322754,-0.9677886962890625,0.2979077100753784, -0.06909026205539703
393,313296037,0.9978024,-0.015288232,-0.055392522,0.032992877,1.0761395692825317,-0.34821170568466187,9.75301456451416,-1.0257372856140137,0.2011941522359848, -0.0879283919930458
394,313312704,0.9978027,-0.015283532,-0.05539204,0.03298498,1.0729355812072754,-0.33451125025749207,9.772956848144531,-0.9589908123016357,0.27344760298728943, -0.11994427442550659
395,313329371,0.99780244,-0.015281648,-0.05538996,0.032995913,1.0815660953521729,-0.33867573738098145,9.746889114379883,-0.9751906991004944,0.2843329608440399, -0.03047911264002323
396,313346038,0.9978025,-0.015283783,-0.055392798,0.032989267,1.0786503553390503,-0.3312007188796997,9.744366645812988,-1.0082181692123413,0.2526244521141052, -0.1266675889492035
397,313362705,0.9978027,-0.01529246,-0.05538189,0.032997657,1.074517011642456,-0.3377382457256317,9.744710922241211,-1.042231798171997,0.3463156819343567, -0.001780082588084042
398,313379372,0.99780273,-0.015299078,-0.055375513,0.03300176,1.0798460245132446,-0.32945361733436584,9.735198974609375,-1.0345097780227661,0.316336065530777, -0.06623444706201553
399,313396039,0.99780273,-0.015300009,-0.05537424,0.033007137,1.0837680101394653,-0.34767428040504456,9.759882926940918,-0.9963341355323792,0.2799403965473175, -0.062264472246170044
400,313412706,0.99780285,-0.015298221,-0.055370882,0.03300901,1.081984043121338,-0.3274165689945221,9.749950408935547,-0.9752164483070374,0.29306691884994507, -0.05879395455121994
401,313429373,0.99780315,-0.015285,-0.05537128,0.033004858,1.0678069591522217,-0.34053120017051697,9.767850875854492,-0.9010034799575806,0.26569971442222595, -0.11421982944011688
402,313446040,0.9978028,-0.015292583,-0.055371694,0.03301101,1.057113528251648,-0.34485378861427307,9.750130653381348,-1.039235234260559,0.2687476575374603, -0.02810993790626526
403,313462707,0.9978029,-0.015292641,-0.05536789,0.033017926,1.0671210289001465,-0.3264029026031494,9.747013092041016,-0.986319363117218,0.29601237177848816, -0.02490834891796112
404,313479374,0.9978029,-0.015291938,-0.055365387,0.03301849,1.0648661851882935,-0.340999960899353,9.742237091064453,-0.9855126142501831,0.288072407245636, -0.08484206348657608
405,313496041,0.9978024,-0.015295823,-0.055367332,0.03302917,1.0766451358795166,-0.33187687397003174,9.768954277038574,-1.0106772184371948,0.25614622235298157, 0.020458146929740906
406,313512708,0.9978024,-0.015282434,-0.05537002,0.0330308,1.0630851984024048,-0.3281344473361969,9.768242835998535,-0.8981860876083374,0.24910271167755127, -0.07376457005739212
407,313529375,0.99780315,-0.0152769,-0.055356193,0.033032823,1.076507568359375,-0.332599014043808,9.76258659362793,-0.9478492736816406,0.36433425545692444, -0.06422384083271027
408,313546042,0.99780345,-0.01528055,-0.05534982,0.033033993,1.0811407566070557,-0.31950250267982483,9.748677253723145,-1.0121115446090698,0.31500422954559326, -0.06074051931500435
409,313562709,0.99780357,-0.015279342,-0.055348773,0.033031214,1.0830626487731934,-0.33558088541030884,9.751646995544434,-0.9806974530220032,0.277468740940094, -0.08304917067289352
410,313579376,0.9978032,-0.015280029,-0.055353153,0.033033937,1.0623514652252197,-0.3416987359523773,9.764009475708008,-0.9915444254875183,0.23945952951908112, -0.031081009656190872
411,313596043,0.99780303,-0.015288686,-0.055354446,0.033033203,1.075134038925171,-0.34468400478363037,9.752224922180176,-1.0500566959381104,0.2638428211212158, -0.08060315996408463
412,313612710,0.99780226,-0.015285563,-0.055364452,0.033041984,1.0596431493759155,-0.33898329734802246,9.742751121520996,-0.966200590133667,0.19973422586917877, -0.008529028855264187
413,313629377,0.99780166,-0.015277153,-0.055375516,0.03304635,1.0734504461288452,-0.33525699377059937,9.740887641906738,-0.9336212277412415,0.19234497845172882, -0.05724438279867172
414,313646044,0.9978018,-0.015268427,-0.055378325,0.033041496,1.0661851167678833,-0.3290899693965912,9.760937690734863,-0.93177729845047,0.24971742928028107, -0.10797034204006195
415,313662711,0.9978018,-0.015270421,-0.055373866,0.033048894,1.0639451742172241,-0.3340997099876404,9.755491256713867,-1.0006113052368164,0.301109254360199, -0.03247690200805664
416,313679378,0.99780214,-0.015273346,-0.05536143,0.033056792,1.0572806596755981,-0.33719590306282043,9.757266998291016,-1.0038129091262817,0.35575398802757263, -0.01789047196507454
417,313696045,0.9978022,-0.01527256,-0.055360653,0.033057943,1.072553277015686,-0.33808037638664246,9.746087074279785,-0.9817858934402466,0.27499714493751526, -0.051481522619724274
418,313712712,0.99780166,-0.015276756,-0.05536536,0.033064645,1.0846881866455078,-0.3344708979129791,9.756488800048828,-1.0180280208587646,0.23856306076049805, -0.03772750869393349
419,313729379,0.9978015,-0.01527358,-0.055367608,0.033068337,1.0637125968933105,-0.32242533564567566,9.733577728271484,-0.9690437912940979,0.25458383560180664, -0.07035808265209198
420,313746046,0.99780166,-0.0152772125,-0.055361334,0.03307142,1.085001826286316,-0.33994635939598083,9.77053451538086,-1.0117655992507935,0.3140309154987335, -0.05011124908924103
421,313762713,0.99780166,-0.015274076,-0.055358086,0.03307815,1.0827945470809937,-0.34330257773399353,9.751770973205566,-0.96880042552948,0.2926187217235565, -0.06617041677236557
422,313779380,0.9978016,-0.015272427,-0.055362396,0.033072975,1.067584753036499,-0.3307081162929535,9.753569602966309,-0.9805309772491455,0.2408810257911682, -0.10492242127656937
423,313796047,0.99780214,-0.015265285,-0.055357054,0.033069048,1.069091796875,-0.318579763174057,9.746626853942871,-0.9368740916252136,0.30486154556274414, -0.06821943074464798
424,313812714,0.9978021,-0.015274821,-0.05535736,0.033064753,1.077666997909546,-0.3325597047805786,9.758251190185547,-1.0571640729904175,0.27111682295799255, -0.10503768175840378
425,313829381,0.99780184,-0.015277033,-0.055358045,0.033068795,1.0733407735824585,-0.33381983637809753,9.755398750305176,-1.0048375129699707,0.2661992013454437, -0.05992091819643974
426,313846048,0.9978007,-0.015280691,-0.05536921,0.0330861,1.0871285200119019,-0.33742162585258484,9.755654335021973,-1.0138403177261353,0.19340789318084717, 0.016744302585721016
427,313862715,0.9978001,-0.015278997,-0.055375647,0.033090696,1.064430594444275,-0.34732136130332947,9.763228416442871,-0.9786612391471863,0.2255518138408661, -0.05315915495157242
428,313879382,0.99780047,-0.015281278,-0.055370614,0.03308927,1.0605632066726685,-0.34437480568885803,9.767780303955078,-1.0057594776153564,0.3061549961566925, -0.09402421861886978
429,313896049,0.99780005,-0.015287967,-0.0553723,0.03309656,1.0798354148864746,-0.3329821228981018,9.753375053405762,-1.0340615510940552,0.25971919298171997, -0.02887832000851631
430,313912716,0.9978001,-0.0152877625,-0.055369075,0.033100653,1.0855611562728882,-0.32545262575149536,9.748880386352539,-0.9838479161262512,0.2914789319038391, -0.02712384983897209
431,313929383,0.9977993,-0.015294646,-0.055377748,0.03310442,1.0802032947540283,-0.340776652097702,9.74738883972168,-1.038146734237671,0.21209236979484558, -0.055400263518095016
432,313946050,0.9977992,-0.015300453,-0.055376783,0.03310504,1.0762196779251099,-0.32767072319984436,9.739388465881348,-1.0285933017730713,0.2782244086265564, -0.06442874670028687
433,313962717,0.99779916,-0.015297922,-0.055381034,0.033105046,1.0578497648239136,-0.3407430052757263,9.739015579223633,-0.9722324013710022,0.24041999876499176, -0.06606795638799667
434,313979384,0.9977988,-0.015299335,-0.055387173,0.033104155,1.0795449018478394,-0.3285965621471405,9.75014591217041,-1.000137448310852,0.2283179610967636, -0.07199729233980179
435,313996051,0.99779856,-0.015288574,-0.055387747,0.033115946,1.0788565874099731,-0.3389042019844055,9.742902755737305,-0.9144886136054993,0.2637019455432892, -0.025894438847899437
436,314012718,0.99779874,-0.01528741,-0.05538794,0.03311061,1.0724002122879028,-0.3243543803691864,9.742158889770508,-0.9831818342208862,0.26937514543533325, -0.10830329358577728
437,314029385,0.9977988,-0.01528734,-0.055383753,0.033115406,1.066244125366211,-0.34112778306007385,9.749063491821289,-0.9851669669151306,0.2983175218105316, -0.030709628015756607
438,314046052,0.9977984,-0.015293777,-0.055386927,0.033119228,1.0713196992874146,-0.3564739227294922,9.75373363494873,-1.033370018005371,0.24966619908809662, -0.048100654035806656
439,314062719,0.9977985,-0.015292316,-0.05538721,0.033116017,1.0784144401550293,-0.3385274410247803,9.75203800201416,-0.9799290895462036,0.2683122158050537, -0.0895548090338707
440,314079386,0.9977985,-0.015298601,-0.0553897,0.033107698,1.0753618478775024,-0.32459795475006104,9.737663269042969,-1.034970760345459,0.25530099868774414, -0.11599992215633392
441,314096053,0.9977979,-0.015294788,-0.055396196,0.03311781,1.0639407634735107,-0.3343496322631836,9.772037506103516,-0.9605146646499634,0.22356685996055603, -0.002471625804901123
442,314112720,0.99779755,-0.01529262,-0.055403713,0.033115007,1.0716121196746826,-0.3403339385986328,9.75678539276123,-0.975715696811676,0.21798327565193176, -0.08120506256818771
443,314129387,0.9977972,-0.015290737,-0.055408746,0.033117976,1.0752501487731934,-0.3322596251964569,9.745882034301758,-0.9748193621635437,0.23440101742744446, -0.03826536983251572
444,314146054,0.99779665,-0.01528354,-0.055411167,0.03313324,1.0741655826568604,-0.3339249789714813,9.752152442932129,-0.9358881115913391,0.25070351362228394, 0.018229840323328972
445,314162721,0.9977958,-0.015289987,-0.05541751,0.03314442,1.0648711919784546,-0.3355155289173126,9.76637077331543,-1.0329985618591309,0.22745998203754425, -0.013638761825859547
446,314179388,0.9977959,-0.015283862,-0.055412438,0.03315623,1.0709706544876099,-0.33649036288261414,9.758155822753906,-0.9419198036193848,0.3025820255279541, 0.005833292379975319
447,314196055,0.9977955,-0.015281247,-0.055419885,0.033155736,1.0828418731689453,-0.3288556635379791,9.747842788696289,-0.9709389209747314,0.2178167849779129, -0.05515694618225098
448,314212722,0.99779534,-0.015283779,-0.055418786,0.033160545,1.0758075714111328,-0.3260434865951538,9.756135940551758,-1.0037360191345215,0.2775968313217163, -0.030235789716243744
449,314229389,0.99779516,-0.015279627,-0.055420212,0.03316655,1.0785064697265625,-0.3292793333530426,9.754237174987793,-0.9592980742454529,0.2590148150920868, -0.036318808794021606
450,314246056,0.9977943,-0.015281493,-0.055431444,0.033174638,1.0657365322113037,-0.33573442697525024,9.757232666015625,-1.0040563344955444,0.19317740201950073, -0.037279289215803146
451,314262723,0.99779403,-0.015284989,-0.05543633,0.033172835,1.0728254318237305,-0.3353453576564789,9.758721351623535,-1.0144420862197876,0.23744891583919525, -0.07809311896562576
452,314279390,0.99779385,-0.015286791,-0.055439662,0.033170145,1.0677709579467773,-0.3232082724571228,9.74105167388916,-1.0063486099243164,0.24901306629180908, -0.11738299578428268
453,314296057,0.99779385,-0.015283815,-0.05543524,0.03317876,1.0755468606948853,-0.34572598338127136,9.758419036865234,-0.9654322862625122,0.2992396056652069, -0.020490160211920738
454,314312724,0.99779415,-0.015279271,-0.055434007,0.033173412,1.0717430114746094,-0.3435615599155426,9.74913215637207,-0.9593877196311951,0.2782115340232849, -0.1056651920080185
455,314329391,0.99779296,-0.015289715,-0.055444986,0.03318505,1.0770702362060547,-0.33437249064445496,9.75221061706543,-1.0596741437911987,0.19587953388690948, 0.006447996944189072
456,314346058,0.9977927,-0.015283122,-0.05545009,0.033186954,1.0792385339736938,-0.3348805606365204,9.767295837402344,-0.9426625967025757,0.2329026758670807, -0.04591076076030731
457,314362725,0.9977922,-0.015291748,-0.05545695,0.03318787,1.0759594440460205,-0.3455316424369812,9.766654968261719,-1.0490320920944214,0.22461692988872528, -0.0570138655602932
458,314379392,0.99779195,-0.0152985295,-0.055460867,0.033186313,1.0716546773910522,-0.33379748463630676,9.723578453063965,-1.0386205911636353,0.2454272359609604, -0.09171906858682632
459,314396059,0.99779177,-0.015293225,-0.055459913,0.03319527,1.0776824951171875,-0.33617082238197327,9.757930755615234,-0.9489505290985107,0.2745233476161957, -0.008990057744085789
460,314412726,0.99779123,-0.015289044,-0.055463325,0.033208188,1.0745500326156616,-0.3380197286605835,9.76807975769043,-0.9582991600036621,0.24487660825252533, -0.002753365086391568
461,314429393,0.99779046,-0.015285627,-0.055477,0.0332118,1.0685646533966064,-0.34147727489471436,9.739056587219238,-0.9675580859184265,0.17492830753326416, -0.04990633949637413
462,314446060,0.9977896,-0.015282262,-0.055486597,0.033223137,1.075488805770874,-0.34388816356658936,9.743936538696289,-0.9671738743782043,0.20307667553424835, -0.024127161130309105
463,314462727,0.99778974,-0.015277666,-0.055481907,0.03322646,1.0950323343276978,-0.31996873021125793,9.754732131958008,-0.9566470980644226,0.3014678657054901, -0.062456563115119934
464,314479394,0.9977899,-0.015281527,-0.05547862,0.033223838,1.0783528089523315,-0.3365382254123688,9.730996131896973,-1.0165936946868896,0.2942451238632202, -0.09518960863351822
465,314496061,0.99778944,-0.015280618,-0.055481624,0.033232946,1.0729577541351318,-0.34344521164894104,9.756820678710938,-0.9812480211257935,0.2486288696527481, -0.01709647662937641
466,314512728,0.9977889,-0.015282905,-0.055486638,0.03324083,1.0754923820495605,-0.3357259929180145,9.754490852355957,-1.0033774375915527,0.23551517724990845, -0.018748493865132332
467,314529395,0.9977892,-0.015281164,-0.055481307,0.033241637,1.0748238563537598,-0.331745982170105,9.751625061035156,-0.9762920141220093,0.3067696690559387, -0.07460979372262955
468,314546062,0.9977883,-0.015280752,-0.055495374,0.033245742,1.0819612741470337,-0.3318326771259308,9.756119728088379,-0.9894441366195679,0.17327630519866943, -0.056155841797590256
469,314562729,0.9977882,-0.0152795045,-0.055492822,0.03325316,1.080578088760376,-0.33193671703338623,9.739725112915039,-0.9781361222267151,0.2869326174259186, -0.02986440248787403
470,314579396,0.99778754,-0.015279252,-0.05549795,0.03326422,1.097298264503479,-0.32835766673088074,9.72774887084961,-0.9853333234786987,0.23385034501552582, -0.003073523985221982
471,314596063,0.99778724,-0.0152824065,-0.055497415,0.033272333,1.07294762134552,-0.34084397554397583,9.7554292678833,-1.0075011253356934,0.2737036943435669, -0.013689987361431122
472,314612730,0.9977865,-0.015280194,-0.05550908,0.033279248,1.063636302947998,-0.33837130665779114,9.759840965270996,-0.9767659306526184,0.18951478600502014, -0.04922761023044586
473,314629397,0.99778634,-0.015283278,-0.055510078,0.033281364,1.079422950744629,-0.33345291018486023,9.760887145996094,-1.0089994668960571,0.2635994851589203, -0.04790855199098587
474,314646064,0.99778605,-0.015277313,-0.055512268,0.033285875,1.0754493474960327,-0.33110660314559937,9.760820388793945,-0.9505257606506348,0.2543405294418335, -0.07618497312068939
475,314662731,0.997786,-0.015273174,-0.055515897,0.033285756,1.078899621963501,-0.3356276750564575,9.765321731567383,-0.9615647196769714,0.24438996613025665, -0.07227903604507446
476,314679398,0.9977859,-0.015273089,-0.055516474,0.033287067,1.074428915977478,-0.3242715001106262,9.74339485168457,-0.9864602088928223,0.26558446884155273, -0.04789574816823006
477,314696065,0.99778503,-0.015272446,-0.055529624,0.033293493,1.085389494895935,-0.3234986364841461,9.74730396270752,-0.9852950572967529,0.17883428931236267, -0.027892231941223145
478,314712732,0.9977842,-0.015273046,-0.055533975,0.033311073,1.084807276725769,-0.3270229995250702,9.758162498474121,-0.9920439124107361,0.23969006538391113, 0.010763737373054028
479,314729399,0.99779516,-0.01528529,-0.055396046,0.033203285,1.0622340440750122,-0.31820178031921387,9.751628875732422,-0.9270899891853333,0.29621726274490356, 0.010097806341946125
480,314746066,0.9977947,-0.0152801005,-0.055400606,0.033211324,1.0704902410507202,-0.322094202041626,9.765166282653809,-0.9515373706817627,0.2346443235874176, -0.019171103835105896
481,314762733,0.997795,-0.015280184,-0.05539479,0.033213895,1.0743461847305298,-0.3323669135570526,9.75757884979248,-0.9861913919448853,0.3074612319469452, -0.04228656738996506
482,314779400,0.9977954,-0.015274471,-0.055384435,0.03322174,1.0648432970046997,-0.34275022149086,9.748137474060059,-0.9455184936523438,0.3374921679496765, -0.028455711901187897
483,314796067,0.9977957,-0.015268559,-0.055380773,0.033220444,1.063906192779541,-0.33812448382377625,9.743282318115234,-0.9474393725395203,0.2918631434440613, -0.07582639902830124
484,314812734,0.9977956,-0.015268224,-0.0553841,0.033219673,1.082554578781128,-0.343095064163208,9.741904258728027,-0.9857815504074097,0.24445399641990662, -0.05765417963266373
485,314829401,0.99779606,-0.015263853,-0.05538265,0.03321054,1.0690279006958008,-0.32836341857910156,9.761090278625488,-0.9616287350654602,0.2780066430568695, -0.1305479258298874
486,314846068,0.99779564,-0.015268671,-0.05538737,0.0332143,1.0696972608566284,-0.32997357845306396,9.750335693359375,-1.0247769355773926,0.23716719448566437, -0.07125453650951385
487,314862735,0.9977952,-0.0152687095,-0.055388298,0.03322246,1.0775587558746338,-0.32454055547714233,9.742249488830566,-0.9856022596359253,0.2603466808795929, -0.007594164926558733
488,314879402,0.997795,-0.015259461,-0.05539519,0.033221453,1.0684607028961182,-0.3405662775039673,9.736376762390137,-0.9270516633987427,0.21850833296775818, -0.07756806164979935
489,314896069,0.99779415,-0.0152633665,-0.055409085,0.033222266,1.0779443979263306,-0.3461635410785675,9.754775047302246,-1.0195262432098389,0.17337875068187714, -0.07052456587553024
490,314912736,0.99779433,-0.015268781,-0.05540758,0.033217918,1.0889922380447388,-0.3265545964241028,9.754054069519043,-1.0267106294631958,0.279863566160202, -0.0903744101524353
491,314929403,0.99779385,-0.015275113,-0.05541141,0.03322323,1.0676268339157104,-0.33656731247901917,9.76736068725586,-1.0288108587265015,0.2417006492614746, -0.009873696602880955
492,314946070,0.9977935,-0.015285879,-0.0554111,0.03322943,1.0765081644058228,-0.32878923416137695,9.769580841064453,-1.0603913068771362,0.27174434065818787, -0.022667238488793373
493,314962737,0.9977934,-0.015284035,-0.05541362,0.033231165,1.0721396207809448,-0.32189372181892395,9.747244834899902,-0.976010262966156,0.24997353553771973, -0.057205963879823685
494,314979404,0.9977932,-0.0152868,-0.055410925,0.033236567,1.0757408142089844,-0.3264247477054596,9.761953353881836,-1.0049399137496948,0.2863819897174835, -0.02826361358165741
495,314996071,0.997793,-0.015289459,-0.05540949,0.033244036,1.07285737991333,-0.3361653983592987,9.754327774047852,-1.0075267553329468,0.278582900762558, -0.0480366125702858
496,315012738,0.9977928,-0.015293943,-0.0554113,0.03324582,1.082284927368164,-0.3252648115158081,9.765135765075684,-1.0173876285552979,0.2556467652320862, -0.03808608651161194
497,315029405,0.9977926,-0.015296308,-0.055411585,0.03324965,1.0657689571380615,-0.3329232335090637,9.76767349243164,-1.0027884244918823,0.2657766044139862, -0.034397855401039124
498,315046072,0.9977924,-0.015295758,-0.055415582,0.033247605,1.0774741172790527,-0.3296012282371521,9.742538452148438,-0.9876255989074707,0.24072735011577606, -0.08997742086648941
499,315062739,0.9977921,-0.015297929,-0.055422813,0.033243094,1.0728274583816528,-0.33918219804763794,9.755800247192383,-1.0087050199508667,0.2196737378835678, -0.11447597295045853
500,315079406,0.997792,-0.015298484,-0.055424444,0.033244856,1.078721523284912,-0.33545559644699097,9.733099937438965,-0.9929402470588684,0.2567480802536011, -0.060612455010414124
501,315096073,0.9977924,-0.01529915,-0.055422843,0.033234395,1.080568552017212,-0.33945581316947937,9.765534400939941,-0.9916085004806519,0.2786085307598114, -0.09121962636709213
502,315112740,0.997792,-0.015299583,-0.055430423,0.033234343,1.0810997486114502,-0.3326161503791809,9.740006446838379,-0.9939007759094238,0.21594706177711487, -0.07303459942340851
503,315129407,0.9977916,-0.015304774,-0.055433072,0.033240188,1.0769295692443848,-0.32810384035110474,9.768794059753418,-1.0230865478515625,0.2501656711101532, -0.027789780870079994
504,315146074,0.99779177,-0.015302706,-0.055432048,0.03323606,1.0675426721572876,-0.3215791881084442,9.760246276855469,-0.9740509390830994,0.2743440270423889, -0.08014213293790817
505,315162741,0.9977913,-0.015302922,-0.055438124,0.033239774,1.084043025970459,-0.3447819948196411,9.737424850463867,-0.9916595816612244,0.2260897010564804, -0.05501607805490494
506,315179408,0.99779135,-0.015314776,-0.055437714,0.033237223,1.0731641054153442,-0.33519241213798523,9.759199142456055,-1.0703163146972656,0.27346035838127136, -0.07440488785505295
507,315196075,0.997791,-0.015309017,-0.05543943,0.033242658,1.0618969202041626,-0.3430578410625458,9.768180847167969,-0.9514092803001404,0.2552753686904907, -0.06847555190324783
508,315212742,0.99779123,-0.015313623,-0.05543577,0.033243172,1.0691936016082764,-0.33779361844062805,9.755453109741211,-1.0159149169921875,0.2929772436618805, -0.03086329810321331
509,315229409,0.9977911,-0.015310469,-0.055437043,0.03324618,1.084053635597229,-0.33205944299697876,9.743820190429688,-0.9666617512702942,0.25815680623054504, -0.052147459238767624
510,315246076,0.99779195,-0.015307077,-0.05542519,0.03324344,1.0695033073425293,-0.33299311995506287,9.758747100830078,-0.964702308177948,0.3493123948574066, -0.09565062075853348
511,315262743,0.9977917,-0.015299101,-0.05542827,0.033249434,1.0767908096313477,-0.3253020942211151,9.757622718811035,-0.9315338730812073,0.24381369352340698, -0.022628819569945335
512,315279410,0.99779177,-0.015297252,-0.05542833,0.033247944,1.0652494430541992,-0.33165329694747925,9.7564697265625,-0.9796857237815857,0.2680688798427582, -0.1065872460603714
513,315296077,0.99779075,-0.015307311,-0.055436388,0.033257313,1.0840829610824585,-0.34896552562713623,9.747007369995117,-1.0573691129684448,0.2137443721294403, -0.011128718964755535
514,315312744,0.9977908,-0.015306184,-0.055436205,0.03325907,1.079384207725525,-0.33741894364356995,9.755446434020996,-0.9792503118515015,0.26827380061149597, -0.0464102104306221
515,315329411,0.99779063,-0.015310271,-0.055442575,0.033252697,1.074432373046875,-0.33739736676216125,9.73470401763916,-1.0207043886184692,0.22560304403305054, -0.11083894968032837
516,315346078,0.9977907,-0.015307304,-0.05544135,0.033250794,1.0645064115524292,-0.3447316884994507,9.758614540100098,-0.9685826301574707,0.275675892829895, -0.0798603966832161
517,315362745,0.99779075,-0.015304443,-0.055447,0.03324192,1.0705132484436035,-0.3407943844795227,9.75273609161377,-0.9711053967475891,0.22847166657447815, -0.10467910021543503
518,315379412,0.9977911,-0.0153080905,-0.055444043,0.033234995,1.0649508237838745,-0.345653235912323,9.7545166015625,-1.0142371654510498,0.2892377972602844, -0.1003633588552475
519,315396079,0.99779105,-0.015306368,-0.055444684,0.033233903,1.0766021013259888,-0.32391247153282166,9.752443313598633,-0.977598249912262,0.2630872428417206, -0.07701738178730011
520,315412746,0.9977909,-0.015306135,-0.05544306,0.033247177,1.0689553022384644,-0.33909377455711365,9.771018028259277,-0.9853847026824951,0.27848049998283386, -0.011474489234387875
521,315429413,0.9977906,-0.015304144,-0.05545073,0.033239894,1.073573112487793,-0.339884489774704,9.756302833557129,-0.976292073726654,0.21428225934505463, -0.08928588032722473
522,315446080,0.99779,-0.015310194,-0.055450328,0.033256058,1.0784152746200562,-0.33402734994888306,9.748284339904785,-1.0277351140975952,0.2710399627685547, 0.011365635320544243
523,315462747,0.9977896,-0.015314255,-0.05545287,0.03326101,1.0794174671173096,-0.3327299654483795,9.754508018493652,-1.0164399147033691,0.2509468197822571, -0.04366965591907501
524,315479414,0.99778974,-0.0153138675,-0.055449925,0.033265032,1.0763158798217773,-0.3312959372997284,9.752277374267578,-0.9853845834732056,0.28793156147003174, -0.05351773276925087
525,315496081,0.99779016,-0.015315898,-0.055446133,0.033258393,1.0701171159744263,-0.33688655495643616,9.720706939697266,-1.0055290460586548,0.29539766907691956, -0.12306903302669525
526,315512748,0.9977901,-0.0153131075,-0.055447318,0.03326022,1.0801879167556763,-0.3307230472564697,9.7432222366333,-0.9702730178833008,0.2590404152870178, -0.06613198667764664
527,315529415,0.99778956,-0.015311185,-0.055447746,0.03327279,1.0633091926574707,-0.3321996331214905,9.756199836730957,-0.9716946482658386,0.2630232274532318, 0.01103267166763544
528,315546082,0.99778986,-0.015311671,-0.05544102,0.033276785,1.0665888786315918,-0.3281570076942444,9.752025604248047,-0.9905455112457275,0.31414616107940674, -0.05328721925616264
529,315562749,0.9977893,-0.015324105,-0.055442795,0.03328561,1.0713365077972412,-0.3328777551651001,9.7750883102417,-1.071187138557434,0.257170706987381, -0.0025740761775523424
530,315579416,0.9977885,-0.015328638,-0.0554523,0.033292457,1.0736370086669922,-0.34112703800201416,9.754767417907715,-1.0196031332015991,0.2025260031223297, -0.02109205536544323
531,315596083,0.99778765,-0.0153394565,-0.055458274,0.033302628,1.0742051601409912,-0.33965015411376953,9.765522003173828,-1.0600584745407104,0.22762645781040192, 0.008266499266028404
532,315612750,0.9977871,-0.015346467,-0.0554612,0.03330841,1.0813549757003784,-0.3378106951713562,9.760659217834473,-1.0379034280776978,0.24919235706329346, -0.05014966055750847
533,315629417,0.99778676,-0.0153423725,-0.0554638,0.033314705,1.0680344104766846,-0.3351512551307678,9.755860328674316,-0.9550206661224365,0.24699604511260986, 0.005762856919318438
534,315646084,0.99778646,-0.015350558,-0.055463564,0.033322353,1.0731335878372192,-0.32727962732315063,9.757647514343262,-1.042103886604309,0.2702844440937042, -0.014010145328938961
535,315662751,0.9977863,-0.0153478375,-0.055463333,0.03332961,1.077802062034607,-0.3294268846511841,9.761234283447266,-0.9659956693649292,0.26733893156051636, -0.007811873219907284
536,315679418,0.99778634,-0.015351041,-0.05545846,0.03333471,1.0715919733047485,-0.31842002272605896,9.748116493225098,-1.0085384845733643,0.30160874128341675, -0.039225853979587555
537,315696085,0.99778587,-0.015348779,-0.05546229,0.03334533,1.0697720050811768,-0.353762149810791,9.751871109008789,-0.9701706171035767,0.23953638970851898, 0.0035793751012533903
538,315712752,0.99778557,-0.015347451,-0.055470753,0.033340186,1.0715705156326294,-0.34105512499809265,9.755468368530273,-0.98240065574646,0.20932617783546448, -0.09419069439172745
539,315729419,0.9977851,-0.015348317,-0.055478226,0.03334244,1.0637526512145996,-0.34100672602653503,9.751081466674805,-0.994861364364624,0.21595989167690277, -0.048139072954654694
540,315746086,0.9977853,-0.015344811,-0.055474803,0.0333441,1.0752241611480713,-0.34139707684516907,9.75485897064209,-0.9634600877761841,0.2902494966983795, -0.058909207582473755
541,315762753,0.99778503,-0.015343835,-0.055476207,0.033350106,1.0700044631958008,-0.33893492817878723,9.742181777954102,-0.98015958070755,0.2569786012172699, -0.025920050218701363
542,315779420,0.99778515,-0.01534728,-0.055469077,0.03335319,1.0975571870803833,-0.3411443531513214,9.737730979919434,-1.0101264715194702,0.31720688939094543, -0.05072595551609993
543,315796087,0.997785,-0.015349364,-0.05546887,0.033357367,1.0603089332580566,-0.34843915700912476,9.74328327178955,-1.0001503229141235,0.2686963975429535, -0.02840448170900345
544,315812754,0.997785,-0.015343811,-0.055470873,0.03335662,1.0750720500946045,-0.3178546130657196,9.764883995056152,-0.9525234699249268,0.252983033657074, -0.08436822891235352
545,315829421,0.99778485,-0.015345854,-0.055469945,0.033361815,1.0711933374404907,-0.32888954877853394,9.753602027893066,-0.9999967217445374,0.2735884487628937, -0.027149463072419167
546,315846088,0.997785,-0.015348709,-0.055472918,0.033352762,1.0676162242889404,-0.3323296010494232,9.756006240844727,-1.0121883153915405,0.24879537522792816, -0.12807630002498627
547,315862755,0.9977857,-0.015347223,-0.055464804,0.033344876,1.0716724395751953,-0.3271563947200775,9.727940559387207,-0.9772396683692932,0.3232898712158203, -0.10105490684509277
548,315879422,0.9977854,-0.015351217,-0.055461112,0.03335687,1.0864063501358032,-0.32857266068458557,9.756387710571289,-1.0115607976913452,0.2926698923110962, 0.009342231787741184
549,315896089,0.9977852,-0.015352852,-0.055467226,0.033351414,1.08624267578125,-0.32516664266586304,9.747258186340332,-1.0033645629882812,0.2264995127916336, -0.10524258017539978
550,315912756,0.99778533,-0.015359028,-0.055461258,0.033354715,1.0798413753509521,-0.33329328894615173,9.761306762695312,-1.0277481079101562,0.3094206154346466, -0.03654932603240013
551,315929423,0.99778533,-0.015366841,-0.055460762,0.033355672,1.073599100112915,-0.3428487181663513,9.759654998779297,-1.0422064065933228,0.27273041009902954, -0.06071490794420242
552,315946090,0.99778545,-0.015370476,-0.05545687,0.033354256,1.0628399848937988,-0.33651572465896606,9.744102478027344,-1.0144038200378418,0.2956410348415375, -0.084355428814888
553,315962757,0.99778557,-0.015373593,-0.05545717,0.033347905,1.0747028589248657,-0.3325112462043762,9.758548736572266,-1.0115351676940918,0.26660898327827454, -0.09896747022867203
554,315979424,0.99778557,-0.01538137,-0.05545382,0.033352982,1.0847835540771484,-0.34073376655578613,9.751992225646973,-1.0388126373291016,0.2916838228702545, -0.02501080185174942
555,315996091,0.99778515,-0.015390872,-0.05545755,0.033354126,1.0763949155807495,-0.3366956412792206,9.742051124572754,-1.0565365552902222,0.24449241161346436, -0.07800347357988358
556,316012758,0.99778605,-0.015382639,-0.055449206,0.033345472,1.0681291818618774,-0.33988189697265625,9.777908325195312,-0.9307526350021362,0.323277086019516, -0.10375703871250153
557,316029425,0.99778616,-0.015388425,-0.055447485,0.033342082,1.0824534893035889,-0.3416236937046051,9.762701034545898,-1.0284907817840576,0.28082403540611267, -0.08112821727991104
558,316046092,0.99778605,-0.015395522,-0.05544876,0.033340625,1.0704182386398315,-0.33727097511291504,9.759474754333496,-1.037941813468933,0.2604939341545105, -0.07204851508140564
559,316062759,0.99778557,-0.015395305,-0.055458445,0.033339232,1.0779472589492798,-0.33535462617874146,9.756492614746094,-0.9898155331611633,0.20092521607875824, -0.07576236128807068
560,316079426,0.99778605,-0.015394166,-0.055453908,0.033331446,1.0690480470657349,-0.3537254333496094,9.756260871887207,-0.9822342395782471,0.29925236105918884, -0.11465524137020111
561,316096093,0.9977863,-0.015396636,-0.05544738,0.033332597,1.069832444190979,-0.3344469368457794,9.759212493896484,-1.0067583322525024,0.313813179731369, -0.08722404390573502
562,316112760,0.99778646,-0.015398393,-0.055446777,0.03332765,1.076073169708252,-0.32458701729774475,9.736367225646973,-1.0039536952972412,0.273101806640625, -0.11340022087097168
563,316129427,0.9977868,-0.015403905,-0.055438258,0.033329573,1.0633161067962646,-0.3289685845375061,9.762350082397461,-1.0234835147857666,0.32713180780410767, -0.050341762602329254
564,316146094,0.9977868,-0.015407933,-0.05543535,0.03333368,1.0701961517333984,-0.3399796187877655,9.779464721679688,-1.0136737823486328,0.28785476088523865, -0.034205760806798935
565,316162761,0.9977871,-0.015412984,-0.055429053,0.03333315,1.0712215900421143,-0.34210050106048584,9.77707290649414,-1.0210118293762207,0.3117385506629944, -0.05937023460865021
566,316179428,0.9977874,-0.015413654,-0.055422995,0.033334635,1.07453191280365,-0.3310856521129608,9.747493743896484,-0.9903150200843811,0.30884435772895813, -0.048241518437862396
567,316196095,0.9977874,-0.015417545,-0.055420086,0.033334948,1.087286353111267,-0.33738234639167786,9.76231861114502,-1.0136992931365967,0.2880595922470093, -0.05747489631175995
568,316212762,0.99778706,-0.015417433,-0.055425204,0.033336896,1.0616347789764404,-0.34561389684677124,9.764496803283691,-0.9857943654060364,0.23123784363269806, -0.031093815341591835
569,316229429,0.9977869,-0.01542722,-0.055423167,0.033339567,1.059751033782959,-0.3422117531299591,9.767166137695312,-1.0539625883102417,0.2832956612110138, -0.04281162470579147
570,316246096,0.99778694,-0.015429022,-0.05541847,0.033344746,1.0813289880752563,-0.33301568031311035,9.754315376281738,-0.9953222870826721,0.298676073551178, -0.005583568476140499
571,316262763,0.99778605,-0.015432841,-0.05542464,0.033362217,1.0594285726547241,-0.3365405797958374,9.743343353271484,-1.0100239515304565,0.22386136651039124, 0.050860412418842316
572,316279430,0.99778545,-0.015429396,-0.05542749,0.033376664,1.0653969049453735,-0.33404093980789185,9.760204315185547,-0.9661749601364136,0.24724577367305756, -0.023474037647247314
573,316296097,0.997786,-0.015434012,-0.055420157,0.033371065,1.0710828304290771,-0.33950480818748474,9.7401123046875,-1.0211398601531982,0.3196912705898285, -0.10554993152618408
574,316312764,0.99778533,-0.015442255,-0.055426076,0.033378728,1.0668880939483643,-0.334288090467453,9.773147583007812,-1.0436151027679443,0.22753684222698212, -0.010590852238237858
575,316329431,0.99778485,-0.015449998,-0.055425182,0.033388004,1.0761165618896484,-0.33223989605903625,9.768051147460938,-1.0382620096206665,0.2741391360759735, -0.00098608888220042
576,316346098,0.9977844,-0.015456419,-0.055430114,0.03339102,1.0700854063034058,-0.3498024344444275,9.74929428100586,-1.030526876449585,0.23390159010887146, -0.025484636425971985
577,316362765,0.9977845,-0.015455937,-0.0554247,0.033395577,1.0751852989196777,-0.3360815644264221,9.741535186767578,-0.9827848076820374,0.30414438247680664, -0.04094189777970314
578,316379432,0.9977842,-0.015448891,-0.055433292,0.033395316,1.0887525081634521,-0.332984983921051,9.760470390319824,-0.9407287836074829,0.20621421933174133, -0.05853782221674919
579,316396099,0.9977838,-0.015456137,-0.055432364,0.033405084,1.081474781036377,-0.3229503929615021,9.753569602966309,-1.0350092649459839,0.27447211742401123, -0.0032528131268918514
580,316412766,0.9977838,-0.01546787,-0.055431876,0.033400286,1.0757224559783936,-0.3290601670742035,9.753862380981445,-1.0701113939285278,0.2736140489578247, -0.08764665573835373
581,316429433,0.99778354,-0.0154738575,-0.055431273,0.033406336,1.0692951679229736,-0.33660176396369934,9.761728286743164,-1.0271332263946533,0.27211570739746094, -0.019965099170804024
582,316446100,0.99778295,-0.015470849,-0.0554398,0.033411864,1.077398657798767,-0.34134626388549805,9.755170822143555,-0.9681856036186218,0.20746925473213196, -0.03332211822271347
583,316462767,0.9977829,-0.015466986,-0.05544533,0.033407144,1.0847495794296265,-0.3310995101928711,9.749734878540039,-0.964702308177948,0.228843092918396, -0.09675197303295135
584,316479434,0.9977828,-0.01547029,-0.05544654,0.033404008,1.0659898519515991,-0.3259519934654236,9.738814353942871,-1.012175440788269,0.25997528433799744, -0.08080806583166122
585,316496101,0.997783,-0.015472572,-0.055449314,0.03339402,1.0918763875961304,-0.32892435789108276,9.770094871520996,-1.008589744567871,0.24992233514785767, -0.1338391751050949
586,316512768,0.9977837,-0.015470536,-0.05543714,0.03339536,1.068121314048767,-0.36283078789711,9.749667167663574,-0.9699273109436035,0.3501448333263397, -0.046090055257081985
587,316529435,0.9977843,-0.015477022,-0.0554261,0.03339291,1.0743048191070557,-0.3422568142414093,9.74168586730957,-1.0314873456954956,0.34516313672065735, -0.08023178577423096
588,316546102,0.9977845,-0.0154792825,-0.055421382,0.03339082,1.0732728242874146,-0.33652856945991516,9.745351791381836,-1.0025193691253662,0.300135999917984, -0.0688469335436821
589,316562769,0.9977848,-0.015483861,-0.055417087,0.03338744,1.0797624588012695,-0.34904783964157104,9.749128341674805,-1.0211526155471802,0.2985992729663849, -0.09492065757513046
590,316579436,0.99778533,-0.015484424,-0.055407554,0.03338766,1.0676374435424805,-0.3428117036819458,9.7603178024292,-0.9900076389312744,0.333086758852005, -0.06360913813114166
591,316596103,0.99778575,-0.015483629,-0.055406805,0.033377327,1.0749293565750122,-0.3397217392921448,9.757574081420898,-0.9881250858306885,0.2739982306957245, -0.14904028177261353
592,316612770,0.99778587,-0.015475441,-0.05540215,0.033383753,1.074185848236084,-0.33886784315109253,9.741517066955566,-0.9281785488128662,0.2965502142906189, -0.018850944936275482
593,316629437,0.99778545,-0.015484234,-0.055401903,0.033393685,1.0826348066329956,-0.32747286558151245,9.744401931762695,-1.0453567504882812,0.26991304755210876, 0.003297635354101658
594,316646104,0.9977859,-0.015493794,-0.055392712,0.03338848,1.0726876258850098,-0.3377455770969391,9.763983726501465,-1.056280493736267,0.3340984284877777, -0.11670425534248352
595,316662771,0.9977859,-0.015499672,-0.055395696,0.033384096,1.0761659145355225,-0.3349332809448242,9.752156257629395,-1.0328065156936646,0.24921797215938568, -0.10917412489652634
596,316679438,0.9977857,-0.015504245,-0.05539695,0.033387315,1.0732152462005615,-0.33741295337677,9.75667953491211,-1.0215240716934204,0.26018017530441284, -0.06494099646806717
597,316696105,0.9977856,-0.015501108,-0.055399895,0.033383638,1.0692164897918701,-0.3363569676876068,9.748592376708984,-0.9680959582328796,0.2464902102947235, -0.08274182677268982
598,316712772,0.9977855,-0.015506178,-0.055401187,0.033383805,1.073601245880127,-0.3482653498649597,9.765603065490723,-1.0245592594146729,0.2598472535610199, -0.0703836977481842
599,316729439,0.9977878,-0.015384386,-0.055409584,0.03335775,1.07622492313385,-0.3446210026741028,9.736246109008789,-1.0685232877731323,0.2504729926586151, -0.016225645318627357
600,316746106,0.99778825,-0.0153926425,-0.055405464,0.033347376,1.0726085901260376,-0.3303481638431549,9.749859809875488,-1.050184726715088,0.2990090250968933, -0.13436423242092133
601,316762773,0.99778813,-0.015389505,-0.055404887,0.033352446,1.065719485282898,-0.33074694871902466,9.756609916687012,-0.9664055109024048,0.2700282633304596, -0.02857096493244171
602,316779440,0.99778825,-0.015387927,-0.055401936,0.03335445,1.076439380645752,-0.3453327417373657,9.759231567382812,-0.9766889810562134,0.28670212626457214, -0.03949478641152382
603,316796107,0.99778837,-0.015387532,-0.055395678,0.033361506,1.0801897048950195,-0.34026017785072327,9.748327255249023,-0.9843473434448242,0.3099328875541687, -0.024396099150180817
604,316812774,0.9977879,-0.015392605,-0.05539612,0.03337394,1.0601990222930908,-0.3350316882133484,9.746745109558105,-1.020909309387207,0.2642013430595398, 0.01806335709989071
605,316829441,0.9977868,-0.015400756,-0.055403315,0.033389412,1.0781012773513794,-0.3401300013065338,9.74299144744873,-1.0415403842926025,0.21772713959217072, 0.05185931175947189
606,316846108,0.99778694,-0.015403908,-0.055400573,0.03338852,1.0573081970214844,-0.3266943395137787,9.738537788391113,-1.011202096939087,0.28700947761535645, -0.06481293588876724
607,316862775,0.9977866,-0.015410337,-0.05539941,0.0333974,1.076552391052246,-0.3335708677768707,9.75269603729248,-1.0316026210784912,0.2760472595691681, -0.007709421683102846
608,316879442,0.9977863,-0.015411434,-0.055404633,0.033396665,1.0715868473052979,-0.3424982726573944,9.756525039672852,-1.000867486000061,0.23236480355262756, -0.08553360402584076
609,316896109,0.9977861,-0.015410344,-0.055406705,0.033399872,1.06380033493042,-0.3514925539493561,9.745525360107422,-0.9822213649749756,0.2525860369205475, -0.04603882506489754
610,316912776,0.9977857,-0.015414263,-0.05541002,0.033406384,1.078490972518921,-0.33788448572158813,9.736967086791992,-1.014454960823059,0.24436435103416443, -0.008849186822772026
611,316929443,0.9977857,-0.015426863,-0.055408623,0.033404127,1.0740619897842407,-0.34784653782844543,9.768004417419434,-1.0777438879013062,0.2802349328994751, -0.08071842044591904
612,316946110,0.9977851,-0.015427004,-0.055416938,0.033405155,1.0711294412612915,-0.33857280015945435,9.759669303894043,-0.9928250908851624,0.21001775562763214, -0.05961356312036514
613,316962777,0.9977851,-0.015428183,-0.055416755,0.03340519,1.0680798292160034,-0.333266943693161,9.756396293640137,-0.99979168176651,0.26928550004959106, -0.07708140462636948
614,316979444,0.99778503,-0.015428316,-0.05541753,0.033404678,1.0757033824920654,-0.33895963430404663,9.74315071105957,-0.990763247013092,0.26201149821281433, -0.06363475322723389
615,316996111,0.9977849,-0.015439121,-0.055415176,0.0334105,1.0684109926223755,-0.34357064962387085,9.757383346557617,-1.0648479461669922,0.2863691747188568, -0.04836957901716232
616,317012778,0.99778473,-0.015443142,-0.05541393,0.0334158,1.070834755897522,-0.3326447904109955,9.743986129760742,-1.014749526977539,0.2759576141834259, -0.018710078671574593
617,317029445,0.9977848,-0.015444713,-0.05541434,0.03341437,1.0838736295700073,-0.3354598879814148,9.746000289916992,-1.0014821290969849,0.265046626329422, -0.0734316036105156
618,317046112,0.9977849,-0.0154491775,-0.055414855,0.033405412,1.0762602090835571,-0.34016305208206177,9.74615478515625,-1.0172724723815918,0.2636379301548004, -0.05993372201919556
619,317062779,0.9977842,-0.015460858,-0.055419974,0.033411577,1.071431040763855,-0.32899796962738037,9.768790245056152,-1.068484902381897,0.23374788463115692, -0.010437175631523132
620,317079446,0.99778396,-0.0154665895,-0.055418853,0.03341934,1.0637186765670776,-0.32923623919487,9.757494926452637,-1.0278376340866089,0.2759320139884949, -0.022026920691132545
621,317096113,0.9977835,-0.01546756,-0.0554201,0.033430565,1.07677161693573,-0.3249923884868622,9.750252723693848,-0.9935038685798645,0.2578110098838806, 0.008087209425866604
622,317112780,0.99778306,-0.015467767,-0.05543152,0.03342374,1.0783989429473877,-0.32498687505722046,9.75011157989502,-0.9939391613006592,0.18868234753608704, -0.08416332304477692
623,317129447,0.99778306,-0.015471438,-0.05543315,0.033419672,1.0798336267471313,-0.3286936283111572,9.75895881652832,-1.0164144039154053,0.2571578919887543, -0.08246008306741714
624,317146114,0.9977823,-0.015482474,-0.055442132,0.033423357,1.0671859979629517,-0.3367813229560852,9.754739761352539,-1.0681006908416748,0.20799432694911957, -0.04740910232067108
625,317162781,0.9977827,-0.015486536,-0.055433087,0.033423863,1.0761607885360718,-0.3290381133556366,9.732823371887207,-1.0165680646896362,0.33070477843284607, -0.06672107428312302
626,317179448,0.99778265,-0.015487753,-0.055431847,0.033425715,1.074511170387268,-0.33093225955963135,9.748966217041016,-0.9968718886375427,0.27561187744140625, -0.042517077177762985
627,317196115,0.997782,-0.015495705,-0.05543547,0.033435844,1.078374981880188,-0.33343014121055603,9.747101783752441,-1.0429747104644775,0.24337823688983917, -0.0022667236626148224
628,317212782,0.99778146,-0.015496051,-0.0554405,0.033443008,1.0859349966049194,-0.3217269778251648,9.760611534118652,-0.9924280047416687,0.23241601884365082, -0.027469618245959282
629,317229449,0.9977811,-0.015504476,-0.055442784,0.033447362,1.0728851556777954,-0.3465506136417389,9.747339248657227,-1.0454590320587158,0.2526244819164276, -0.01974739320576191
630,317246116,0.99778014,-0.015510405,-0.05545519,0.033453118,1.0895684957504272,-0.32980987429618835,9.74988079071045,-1.0317946672439575,0.1826377511024475, -0.023486845195293427
631,317262783,0.99777985,-0.0155081265,-0.055461347,0.033449605,1.08340585231781,-0.33624640107154846,9.744695663452148,-0.9761254787445068,0.22447608411312103, -0.07799066603183746
632,317279450,0.99777937,-0.015505822,-0.05546658,0.033456028,1.0724470615386963,-0.34218263626098633,9.74056339263916,-0.9727574586868286,0.2299444079399109, -0.017672760412096977
633,317296117,0.9977785,-0.0155105395,-0.05547508,0.033465147,1.0799280405044556,-0.32362163066864014,9.739892959594727,-1.021639347076416,0.20907007157802582, -0.005276216194033623
634,317312784,0.9977786,-0.015523826,-0.05547699,0.033456586,1.067217230796814,-0.329162061214447,9.755833625793457,-1.0839804410934448,0.25797751545906067, -0.1079191043972969
635,317329451,0.9977785,-0.0155236265,-0.05547767,0.033457905,1.0701185464859009,-0.3301512598991394,9.761363983154297,-0.987907350063324,0.2622676491737366, -0.04861290007829666
636,317346118,0.99777824,-0.015530418,-0.05547722,0.033461627,1.0669279098510742,-0.35037344694137573,9.752809524536133,-1.03622567653656,0.2717699110507965, -0.04285004362463951
637,317362785,0.99777806,-0.015536685,-0.055476118,0.03346552,1.074659824371338,-0.3311588168144226,9.749789237976074,-1.0319228172302246,0.27598321437835693, -0.03744576498866081
638,317379452,0.99777716,-0.015542121,-0.055488836,0.033467837,1.0700887441635132,-0.327528178691864,9.762096405029297,-1.0295151472091675,0.18072961270809174, -0.047127366065979004
639,317396119,0.99777716,-0.015550931,-0.055487726,0.03346633,1.0699310302734375,-0.33845800161361694,9.745659828186035,-1.0526691675186157,0.277609646320343, -0.08481645584106445
640,317412786,0.9977776,-0.015556727,-0.055481806,0.03346457,1.071844458580017,-0.34425029158592224,9.742371559143066,-1.0273765325546265,0.3089211583137512, -0.052646901458501816
641,317429453,0.99777675,-0.0155552,-0.055489875,0.033471696,1.0750443935394287,-0.3354793190956116,9.743260383605957,-0.9792118668556213,0.2105683982372284, -0.017250152304768562
642,317446120,0.9977766,-0.015561846,-0.05548945,0.033477347,1.0747461318969727,-0.3284110426902771,9.757061958312988,-1.0340358018875122,0.27121925354003906, -0.024959571659564972
643,317462787,0.9977763,-0.015567211,-0.055496152,0.033472154,1.0791943073272705,-0.3388311564922333,9.751267433166504,-1.0307446718215942,0.22308021783828735, -0.09803261607885361
644,317479454,0.99777675,-0.01556917,-0.055490583,0.033468023,1.0711684226989746,-0.34491580724716187,9.761858940124512,-1.0024938583374023,0.30609098076820374, -0.07665880769491196
645,317496121,0.9977763,-0.015572975,-0.05549776,0.033466753,1.0725629329681396,-0.33502236008644104,9.749604225158691,-1.019206166267395,0.2190590351819992, -0.07549343258142471
646,317512788,0.9977761,-0.015573492,-0.055504877,0.033459827,1.0740300416946411,-0.3352789580821991,9.766156196594238,-0.9973201155662537,0.21902060508728027, -0.10411562025547028
647,317529455,0.9977756,-0.015572062,-0.055515025,0.033458594,1.0773128271102905,-0.3299421966075897,9.73529052734375,-0.983117938041687,0.19717298448085785, -0.07103682309389114
648,317546122,0.9977752,-0.015568286,-0.05551752,0.03346711,1.0785713195800781,-0.3473559021949768,9.7463960647583,-0.9610652327537537,0.24805256724357605, -0.001293441280722618
649,317562789,0.99777514,-0.015564061,-0.055521183,0.033465166,1.0690687894821167,-0.3352039158344269,9.74783706665039,-0.9643181562423706,0.24182869493961334, -0.09173187613487244
650,317579456,0.9977748,-0.015559856,-0.055521607,0.033475652,1.0685453414916992,-0.33840495347976685,9.733665466308594,-0.9587345719337463,0.26262620091438293, -0.00510973297059536
651,317596123,0.9977748,-0.015562984,-0.055522747,0.033476237,1.0762733221054077,-0.33093440532684326,9.760676383972168,-1.0135585069656372,0.2606540322303772, -0.07412315160036087
652,317612790,0.9977748,-0.0155606745,-0.05552452,0.033475175,1.0601906776428223,-0.345295250415802,9.743889808654785,-0.9743711352348328,0.25440454483032227, -0.06363475322723389
653,317629457,0.99777436,-0.015562034,-0.055533465,0.033468083,1.077764868736267,-0.34788230061531067,9.735245704650879,-1.0051831007003784,0.20698262751102448, -0.11612796783447266
654,317646124,0.99777454,-0.015562322,-0.05553036,0.033471305,1.0635019540786743,-0.3416123688220978,9.743965148925781,-0.9901870489120483,0.2883029580116272, -0.04040403291583061
655,317662791,0.9977744,-0.015570141,-0.055526946,0.03347338,1.072972059249878,-0.34271013736724854,9.757555961608887,-1.0427697896957397,0.29231131076812744, -0.04787013307213783
656,317679458,0.99777466,-0.015567142,-0.05552288,0.033475976,1.0592725276947021,-0.33894211053848267,9.75672435760498,-0.9708237648010254,0.29519277811050415, -0.07386703044176102
657,317696125,0.997775,-0.015564741,-0.05551663,0.033477638,1.0672780275344849,-0.3438359797000885,9.752342224121094,-0.9725398421287537,0.30976641178131104, -0.059075694531202316
658,317712792,0.9977746,-0.015565327,-0.055516317,0.0334909,1.0763719081878662,-0.33418670296669006,9.732437133789062,-0.9894442558288574,0.2679920792579651, 0.025849616155028343
659,317729459,0.9977747,-0.015569215,-0.055512697,0.033492524,1.0638935565948486,-0.3382291793823242,9.749042510986328,-1.0164015293121338,0.29313093423843384, -0.058742720633745193
660,317746126,0.9977742,-0.015569571,-0.055517133,0.03349859,1.0613209009170532,-0.341059148311615,9.739778518676758,-0.9916980266571045,0.23601460456848145, -0.022820916026830673
661,317762793,0.99777377,-0.015577361,-0.055523116,0.033499695,1.0697726011276245,-0.3333981931209564,9.752663612365723,-1.0453823804855347,0.22784417867660522, -0.057526130229234695
662,317779460,0.9977733,-0.015575846,-0.05552506,0.033510335,1.0764397382736206,-0.33021458983421326,9.754639625549316,-0.976855456829071,0.2523939311504364, 0.0033104412723332644
663,317796127,0.9977741,-0.0155724,-0.055515405,0.03350307,1.0866581201553345,-0.342735230922699,9.754169464111328,-0.9679807424545288,0.33402159810066223, -0.12164751440286636
664,317812794,0.99777424,-0.015573854,-0.05551502,0.03350031,1.064707636833191,-0.33271679282188416,9.74944019317627,-1.0013413429260254,0.2705661654472351, -0.08071842044591904
665,317829461,0.9977743,-0.01557436,-0.055510145,0.033505954,1.0719244480133057,-0.3416009545326233,9.752825736999512,-0.9901100993156433,0.300135999917984, -0.02109205536544323
666,317846128,0.99777466,-0.015568505,-0.055509906,0.033498064,1.0710498094558716,-0.3375421464443207,9.749238967895508,-0.9538426399230957,0.26875409483909607, -0.12938255071640015
667,317862795,0.99777436,-0.015566917,-0.05550997,0.03350848,1.0736619234085083,-0.3363199234008789,9.768681526184082,-0.9754596948623657,0.2651747167110443, 0.007767051458358765
668,317879462,0.9977745,-0.015562948,-0.055509962,0.03350377,1.0632447004318237,-0.35186663269996643,9.772719383239746,-0.963908314704895,0.2665833830833435, -0.08908095955848694
