PacketCounter,SampleTimeFine,Quat_W,Quat_X,Quat_Y,Quat_Z,Acc_X,Acc_Y,Acc_Z,Gyr_X,Gyr_Y,Gyr_Z 
1,2470186712,0.70447755,0.11823483,-0.6404226,0.28211907,0,0,0,0,0, 0
2,2470203379,0.70520216,0.11763376,-0.6394424,0.28278232,9.521235466003418,-1.9237537384033203,1.4829515218734741,0.9470743536949158,1.1667288541793823, 2.8386361598968506
3,2470220046,0.705343,0.11724151,-0.6391758,0.2831967,9.553450584411621,-1.9139859676361084,1.4891574382781982,1.0023211240768433,0.9535545110702515, 2.817659854888916
4,2470236713,0.70539284,0.11678286,-0.63920534,0.2831951,9.570127487182617,-1.923975944519043,1.4465339183807373,0.5289342999458313,0.9564869999885559, 2.8633525371551514
5,2470253380,0.70534307,0.11626652,-0.6394408,0.283,9.571439743041992,-1.947540521621704,1.531837821006775,0.3912019729614258,1.031007170677185, 2.971297264099121
6,2470270047,0.70527345,0.115962856,-0.6395065,0.2831496,9.559223175048828,-1.9397509098052979,1.5057518482208252,0.358622670173645,1.108831524848938, 2.902271270751953
7,2470286714,0.7052818,0.11551178,-0.6395766,0.28315473,9.535359382629395,-1.9558844566345215,1.4857178926467896,0.5252203941345215,1.0405350923538208, 2.9749724864959717
8,2470303381,0.7051475,0.11527665,-0.6396288,0.28346652,9.51737117767334,-1.9363915920257568,1.5116034746170044,0.4589219093322754,0.8630902767181396, 3.1920273303985596
9,2470320048,0.70505005,0.11496203,-0.6396811,0.2837187,9.542591094970703,-1.9578933715820312,1.5008820295333862,0.30519452691078186,0.7463348507881165, 3.359700918197632
10,2470336715,0.7048266,0.11488887,-0.6397089,0.28424066,9.54847526550293,-1.956066608428955,1.4895966053009033,0.1915893852710724,0.5203923583030701, 3.3888096809387207
11,2470353382,0.70466727,0.11461093,-0.63980657,0.28452796,9.500218391418457,-1.9709452390670776,1.4925181865692139,0.05109093710780144,0.2434423267841339, 3.446054697036743
12,2470370049,0.70447993,0.114321634,-0.6399413,0.2848047,9.506925582885742,-1.9571161270141602,1.4965461492538452,-0.008272902108728886,-0.13205906748771667, 3.4824752807617188
13,2470386716,0.7043055,0.1139297,-0.6401362,0.28495517,9.529433250427246,-1.9849580526351929,1.4779913425445557,-0.7531158924102783,-0.4312538504600525, 3.4567222595214844
14,2470403383,0.70403975,0.1136442,-0.64035624,0.28523165,9.521130561828613,-2.0039021968841553,1.4678888320922852,-0.8747376799583435,-0.8036496043205261, 3.5761666297912598
15,2470420050,0.703785,0.11331017,-0.6406049,0.28543475,9.540230751037598,-2.013580322265625,1.5206915140151978,-0.7823399901390076,-0.9997277855873108, 3.4951541423797607
16,2470436717,0.70356625,0.11292717,-0.6408429,0.2855915,9.562885284423828,-1.9836241006851196,1.462552785873413,-0.6078790426254272,-0.9925434589385986, 3.4785187244415283
17,2470453384,0.7033021,0.11257196,-0.6411055,0.2857926,9.555500984191895,-1.9945813417434692,1.4933726787567139,-0.822257399559021,-1.1995069980621338, 3.6556179523468018
18,2470470051,0.7030699,0.11223427,-0.6413225,0.2860101,9.571222305297852,-2.023909568786621,1.5797079801559448,-0.39651021361351013,-0.9617825150489807, 3.6266367435455322
19,2470486718,0.70285517,0.11200904,-0.6414219,0.28640312,9.527368545532227,-2.0385570526123047,1.5981999635696411,-0.0370231568813324,-0.332760214805603, 3.6689488887786865
20,2470503385,0.7027116,0.1116796,-0.64150184,0.2867048,9.508002281188965,-2.035975694656372,1.4812175035476685,0.27326828241348267,-0.2345995306968689, 3.703923225402832
21,2470520052,0.7025322,0.11139488,-0.641575,0.28709158,9.52631950378418,-2.0161640644073486,1.4565588235855103,0.0810321792960167,-0.18903453648090363, 3.83817195892334
22,2470536719,0.70233786,0.11115495,-0.64162236,0.28755388,9.565885543823242,-2.048966646194458,1.5793813467025757,-0.11050599813461304,0.05620067939162254, 3.9115145206451416
23,2470553386,0.7023404,0.11081334,-0.6414902,0.28797328,9.598246574401855,-2.044510841369629,1.7387921810150146,0.4196960926055908,1.646557092666626, 3.789494752883911
24,2470570053,0.7024648,0.11047073,-0.6411963,0.28845572,9.542276382446289,-2.0721235275268555,1.744093656539917,0.6300405263900757,2.860663652420044, 3.7149240970611572
25,2470586720,0.70265824,0.11005936,-0.64085,0.28891128,9.471150398254395,-2.045210599899292,1.5116089582443237,0.6652066707611084,3.2623729705810547, 3.773230791091919
26,2470603387,0.70275784,0.10957258,-0.64067936,0.28923267,9.485539436340332,-2.0719754695892334,1.3843451738357544,0.13475482165813446,1.9423452615737915, 3.891907215118408
27,2470620054,0.70268226,0.10927074,-0.64059037,0.28972667,9.511553764343262,-2.042508602142334,1.3587311506271362,0.1034817025065422,1.057375431060791, 4.041395664215088
28,2470636721,0.702658,0.108758785,-0.6405897,0.28997958,9.543280601501465,-2.0531342029571533,1.3667598962783813,-0.32013311982154846,0.8141444325447083, 4.084706783294678
29,2470653388,0.70257443,0.10828514,-0.6406178,0.290297,9.532184600830078,-2.0914011001586914,1.4029548168182373,-0.6897244453430176,0.689308226108551, 4.251048564910889
30,2470670055,0.7024861,0.107829675,-0.64064294,0.29062486,9.54755973815918,-2.0774989128112793,1.4066529273986816,-0.339995801448822,0.6803821325302124, 4.258899211883545
31,2470686722,0.70242375,0.10732277,-0.6406618,0.29092193,9.53746509552002,-2.1041691303253174,1.4409151077270508,-0.1726936250925064,0.8379771113395691, 4.3814167976379395
32,2470703389,0.70227456,0.10700344,-0.64065933,0.2914043,9.514664649963379,-2.1073427200317383,1.4459198713302612,0.0785989761352539,0.715535581111908, 4.352001190185547
33,2470720056,0.702145,0.106588066,-0.640705,0.2917682,9.493191719055176,-2.1273608207702637,1.5594972372055054,-0.34930601716041565,0.5441738367080688, 4.307230472564697
34,2470736723,0.7020287,0.10629818,-0.64064324,0.29228878,9.524449348449707,-2.1695332527160645,1.7735248804092407,-0.3422113060951233,1.3001583814620972, 4.156806945800781
35,2470753390,0.70207,0.10582235,-0.6405294,0.29261157,9.49865436553955,-2.1860156059265137,1.7182519435882568,-0.08978532254695892,1.8809775114059448, 3.985137939453125
36,2470770057,0.70216453,0.10543048,-0.6403133,0.29299957,9.493075370788574,-2.182774782180786,1.699934959411621,0.879930853843689,2.381834030151367, 3.750692129135132
37,2470786724,0.7022126,0.105162956,-0.64009655,0.29345304,9.437152862548828,-2.2701642513275146,2.176555871963501,1.6687248945236206,1.9500805139541626, 3.5801236629486084
38,2470803391,0.7015447,0.10630112,-0.63996613,0.29492128,9.151238441467285,-2.291677713394165,1.5915113687515259,10.947047233581543,-3.3930318355560303, 3.3829336166381836
39,2470820058,0.7000268,0.10852812,-0.64056623,0.2964104,9.120774269104004,-2.095402956008911,1.3951282501220703,17.401084899902344,-13.319497108459473, 1.208197832107544
40,2470836725,0.6979097,0.11081452,-0.642071,0.29729944,9.294151306152344,-2.032573938369751,1.2963204383850098,15.50009536743164,-21.265905380249023, 0.2495003342628479
41,2470853392,0.6952354,0.11277428,-0.64439327,0.29780388,9.14529037475586,-2.3087332248687744,1.59949791431427,9.785981178283691,-26.914411544799805, 1.4379842281341553
42,2470870059,0.6920743,0.11448533,-0.64727753,0.2982589,9.151104927062988,-2.4014225006103516,2.3477747440338135,7.20862340927124,-31.238447189331055, 3.607260227203369
43,2470886726,0.6883339,0.116064906,-0.65083104,0.2985708,8.921319007873535,-2.4577643871307373,2.7235500812530518,4.67329740524292,-37.03435516357422, 5.09904670715332
44,2470903393,0.6841527,0.11742678,-0.6549271,0.2986916,8.805397033691406,-2.215456485748291,1.8853527307510376,2.8989851474761963,-41.866233825683594, 6.524537086486816
45,2470920060,0.67979395,0.118366495,-0.659355,0.29853094,9.354732513427734,-2.2617063522338867,1.2062945365905762,-3.243114948272705,-43.172340393066406, 7.428918361663818
46,2470936727,0.6758056,0.118737414,-0.6636065,0.29801816,9.919938087463379,-2.012272834777832,0.4552009105682373,-5.622956275939941,-40.19546890258789, 7.649016380310059
47,2470953394,0.6723508,0.1188743,-0.6671623,0.29783872,10.138178825378418,-1.9590604305267334,-0.15628263354301453,-4.754838466644287,-33.45149230957031, 8.633699417114258
48,2470970061,0.66974086,0.11862869,-0.6698844,0.2977072,10.205108642578125,-1.6060211658477783,-0.2599889636039734,-5.448973655700684,-24.56596565246582, 8.287884712219238
49,2470986728,0.6677712,0.11797376,-0.67195934,0.29771572,10.098162651062012,-1.9620389938354492,-0.2442077249288559,-8.568460464477539,-16.748836517333984, 8.958484649658203
50,2471003395,0.6663545,0.11701812,-0.67344636,0.2979071,9.9409818649292,-2.1391751766204834,0.13570180535316467,-5.752067565917969,-11.154187202453613, 9.856729507446289
51,2471020062,0.66519123,0.11611411,-0.6745028,0.2984701,9.751317024230957,-2.2530086040496826,0.5039156079292297,-2.3525662422180176,-7.896592617034912, 10.548896789550781
52,2471036729,0.6640549,0.11536141,-0.6753196,0.29944348,9.58718204498291,-2.150716781616211,0.6615928411483765,-0.7366984486579895,-6.264664649963379, 11.3984956741333
53,2471053396,0.6630653,0.11415361,-0.676171,0.30017698,9.572036743164062,-2.078063488006592,0.6833258867263794,-2.9938831329345703,-5.30308723449707, 12.242921829223633
54,2471070063,0.66210806,0.11268268,-0.67710745,0.30073458,9.590057373046875,-2.0769541263580322,0.7993015646934509,-5.583981990814209,-5.062571048736572, 12.68706226348877
55,2471086730,0.66108537,0.11128514,-0.67803115,0.30142274,9.557587623596191,-2.027470588684082,0.9034162759780884,-4.582845687866211,-5.401646137237549, 13.11429500579834
56,2471103397,0.65990376,0.10979,-0.67912024,0.3021076,9.665010452270508,-2.4410996437072754,0.11114326119422913,-5.261609077453613,-6.7596330642700195, 14.068537712097168
57,2471120064,0.658649,0.108632125,-0.6801283,0.3029957,9.859806060791016,-2.4372644424438477,-0.39490312337875366,-2.9724459648132324,-7.090573787689209, 13.480966567993164
58,2471136731,0.65765136,0.107082225,-0.68112195,0.30348158,9.833487510681152,-2.327813148498535,-0.20656612515449524,-7.045405864715576,-5.082217216491699, 12.944982528686523
59,2471153398,0.6567481,0.10513912,-0.68229383,0.30348498,9.641997337341309,-2.7028002738952637,0.09427747130393982,-11.192928314208984,-4.96865177154541, 12.590058326721191
60,2471170065,0.6553337,0.103441894,-0.6839348,0.3034316,9.388528823852539,-2.5613224506378174,0.28650838136672974,-11.033632278442383,-9.969576835632324, 12.557571411132812
61,2471186732,0.6534761,0.10165832,-0.6861687,0.30299735,9.64838695526123,-2.5766196250915527,0.40273919701576233,-14.32071590423584,-14.753328323364258, 12.580899238586426
62,2471203399,0.65150326,0.09984002,-0.6885578,0.30242965,9.66615104675293,-2.8792226314544678,0.31952178478240967,-15.200840950012207,-16.075056076049805, 12.509150505065918
63,2471220066,0.6498004,0.0983473,-0.69048464,0.30218956,9.731535911560059,-2.770294427871704,0.38257896900177,-11.153605461120605,-13.265707969665527, 11.538684844970703
64,2471236733,0.64878845,0.09682708,-0.69170344,0.30206725,9.831001281738281,-2.799647808074951,0.2375343292951584,-10.182170867919922,-6.569214820861816, 10.264535903930664
65,2471253400,0.6487514,0.0952308,-0.6918881,0.30223173,9.784136772155762,-2.9850244522094727,0.2394435703754425,-7.561563968658447,2.991468667984009, 9.194189071655273
66,2471270067,0.6498753,0.09368445,-0.69079137,0.30280808,9.924527168273926,-2.88801646232605,0.6796204447746277,-3.6254942417144775,14.432060241699219, 7.513730049133301
67,2471286734,0.65182334,0.09174488,-0.6889503,0.30340865,9.473313331604004,-2.867011785507202,0.16586941480636597,-4.0785746574401855,22.387983322143555, 7.29348087310791
68,2471303401,0.65390086,0.09009531,-0.68684345,0.30420873,9.528778076171875,-2.9157161712646484,0.4161052107810974,-1.41692316532135,23.740764617919922, 6.355632781982422
69,2471320068,0.6554035,0.08866471,-0.68525326,0.30498007,9.098427772521973,-2.9078261852264404,-0.20815891027450562,-1.413489818572998,18.252164840698242, 6.690462589263916
70,2471336735,0.65630186,0.08758416,-0.6841878,0.30575198,9.224157333374023,-2.9238462448120117,0.07277887314558029,-0.6138087511062622,12.393527030944824, 6.598637104034424
71,2471353402,0.6568987,0.0866758,-0.68341243,0.30646205,9.290701866149902,-2.9278948307037354,0.18675543367862701,-0.4543823003768921,9.272626876831055, 6.30063009262085
72,2471370069,0.657364,0.08580585,-0.68281645,0.30703732,9.31937313079834,-2.9595589637756348,0.5078533291816711,-1.2002372741699219,7.705526828765869, 5.87982702255249
73,2471386736,0.6576867,0.085000604,-0.68236583,0.30757114,9.29006576538086,-3.0049946308135986,0.36679312586784363,-1.2794442176818848,6.193593978881836, 5.763287544250488
74,2471403403,0.65785676,0.0843836,-0.6820212,0.30814132,9.360496520996094,-2.919522523880005,0.41668060421943665,-0.42640024423599243,4.6415534019470215, 5.409498691558838
75,2471420070,0.6578629,0.083853915,-0.68182415,0.3087089,9.39840030670166,-2.86090350151062,0.403087854385376,-0.34105876088142395,3.0500309467315674, 5.412393093109131
76,2471436737,0.6577092,0.083376996,-0.681798,0.30922267,9.360464096069336,-2.9356470108032227,0.4345814287662506,-0.5260593295097351,1.3593366146087646, 5.370849132537842
77,2471453404,0.65742934,0.08303187,-0.6818794,0.30973068,9.350834846496582,-3.01513409614563,0.43741926550865173,-0.20243000984191895,0.03259856998920441, 5.050319194793701
78,2471470071,0.65710825,0.08285294,-0.68199015,0.3102159,9.359100341796875,-3.0284390449523926,0.3257937729358673,0.4394947290420532,-0.668107271194458, 4.267082214355469
79,2471486738,0.6567991,0.0827066,-0.68212765,0.31060678,9.340575218200684,-3.0312225818634033,0.384375661611557,0.10499286651611328,-0.8483694791793823, 3.6721506118774414
80,2471503405,0.6565614,0.08261953,-0.6821998,0.31097418,9.377411842346191,-3.0502266883850098,0.46365630626678467,0.3812001943588257,-0.3559652864933014, 3.093418836593628
81,2471520072,0.6564815,0.08257867,-0.682121,0.3113259,9.39040756225586,-3.091719150543213,0.33375316858291626,0.8549838662147522,0.9224733114242554, 2.3831143379211426
82,2471536739,0.6565094,0.08261301,-0.68192625,0.3116842,9.443809509277344,-3.0438520908355713,0.3419210910797119,1.445740818977356,1.796096920967102, 1.7567685842514038
83,2471553406,0.656646,0.08272561,-0.68157816,0.31212768,9.530561447143555,-2.9247679710388184,0.22565621137619019,2.2850053310394287,2.9518704414367676, 1.4414124488830566
84,2471570073,0.6569062,0.082711294,-0.68115336,0.3125111,9.565494537353516,-2.8764142990112305,0.2591168284416199,1.653165578842163,4.098077297210693, 1.4744783639907837
85,2471586740,0.65722847,0.08278006,-0.68063015,0.31295508,9.52005386352539,-3.0526950359344482,0.37723201513290405,2.405039072036743,4.738432884216309, 1.1811490058898926
86,2471603407,0.6575533,0.08300396,-0.6800652,0.31344137,9.437552452087402,-3.00740647315979,0.2621568739414215,3.479888677597046,4.6115217208862305, 0.6214730143547058
87,2471620074,0.65782386,0.083188534,-0.6796152,0.31380093,9.408235549926758,-2.907763957977295,0.22811253368854523,2.5554757118225098,3.851696014404297, 0.41987547278404236
88,2471636741,0.6579758,0.08334897,-0.67934877,0.31401613,9.440449714660645,-2.9287641048431396,0.34174633026123047,1.4605450630187988,2.4572503566741943, 0.25060102343559265
89,2471653408,0.6581107,0.08358417,-0.6791299,0.3141443,9.483591079711914,-2.99504017829895,0.5013059973716736,1.268846869468689,1.9775118827819824, -0.42184117436408997
90,2471670075,0.6583225,0.08388542,-0.67886084,0.31420162,9.515549659729004,-2.985006093978882,0.5717707276344299,1.3078805208206177,2.379528760910034, -1.2413835525512695
91,2471686742,0.6586601,0.08414766,-0.6785056,0.31419176,9.494168281555176,-2.967238664627075,0.605934202671051,0.8174486756324768,3.4357457160949707, -1.6870063543319702
92,2471703409,0.65913856,0.084372215,-0.678024,0.31416792,9.487105369567871,-2.9722135066986084,0.588193416595459,0.9026620984077454,4.687835693359375, -1.9371528625488281
93,2471720076,0.6597907,0.084608205,-0.6773389,0.31421322,9.485133171081543,-2.9424545764923096,0.5344260931015015,1.7381294965744019,6.390345096588135, -2.1577298641204834
94,2471736743,0.66066146,0.08481986,-0.67640144,0.3143457,9.463855743408203,-2.8754501342773438,0.578779935836792,2.4331750869750977,8.664862632751465, -2.263932704925537
95,2471753410,0.6617038,0.08494914,-0.6753054,0.31447506,9.429815292358398,-2.9254369735717773,0.5630968809127808,2.338843584060669,10.342328071594238, -2.344996929168701
96,2471770077,0.66287744,0.08506906,-0.67408127,0.31459707,9.424001693725586,-2.8901865482330322,0.6174240112304688,2.684051752090454,11.480634689331055, -2.6724815368652344
97,2471786744,0.6641206,0.08514529,-0.6728068,0.31468287,9.391765594482422,-2.8624303340911865,0.6632871627807617,2.3530590534210205,12.118470191955566, -2.8118021488189697
98,2471803411,0.66535586,0.085235365,-0.6714903,0.31486088,9.360373497009277,-2.819549083709717,0.6445286273956299,2.644941806793213,12.394421577453613, -2.481423854827881
99,2471820078,0.66657954,0.08531899,-0.6701776,0.31504688,9.378588676452637,-2.8454957008361816,0.7758307456970215,2.7357964515686035,12.319266319274902, -2.3729794025421143
100,2471836745,0.6677727,0.08542591,-0.66889656,0.3152139,9.398277282714844,-2.822345733642578,0.9253252744674683,2.8016912937164307,11.937002182006836, -2.4685018062591553
101,2471853412,0.6688867,0.0854951,-0.66775817,0.31524688,9.419988632202148,-2.741527795791626,1.060699701309204,1.8117088079452515,10.888315200805664, -2.641106128692627
102,2471870079,0.66978544,0.085532054,-0.66687924,0.3151888,9.340892791748047,-2.7496376037597656,1.097965955734253,0.8858985900878906,8.67698860168457, -2.2706429958343506
103,2471886746,0.670418,0.08571464,-0.6662231,0.31518215,9.339564323425293,-2.7663347721099854,1.1020466089248657,1.0985735654830933,6.2432684898376465, -2.0201377868652344
104,2471903413,0.6708947,0.08589281,-0.6657716,0.3150731,9.332086563110352,-2.7691900730133057,1.064732313156128,0.6822134256362915,4.3781256675720215, -1.9600629806518555
105,2471920080,0.6712347,0.08605328,-0.6655156,0.3148456,9.310481071472168,-2.827894687652588,1.0407392978668213,-0.2547823190689087,2.795747756958008, -2.0022854804992676
106,2471936747,0.67145896,0.08629374,-0.6653945,0.31455764,9.37092399597168,-2.8046929836273193,1.0153186321258545,-0.2722501754760742,1.3861913681030273, -2.3011090755462646
107,2471953414,0.6715797,0.08660202,-0.6653641,0.31427905,9.43885326385498,-2.722871780395508,0.9317600131034851,-0.18766425549983978,0.3883589208126068, -2.2987141609191895
108,2471970081,0.6716497,0.08686656,-0.66538125,0.31402043,9.443056106567383,-2.6159467697143555,0.839130699634552,-0.37865814566612244,0.04427795112133026, -1.8565620183944702
109,2471986748,0.671711,0.08705287,-0.6654378,0.31371734,9.454913139343262,-2.6643478870391846,0.8238381743431091,-1.2887159585952759,0.05530422553420067, -1.669845700263977
110,2472003415,0.6717525,0.08723123,-0.6655063,0.31343362,9.391983032226562,-2.7282607555389404,0.8669800162315369,-1.284783959388733,-0.04398980364203453, -1.4818992614746094
111,2472020082,0.6717595,0.087468036,-0.66557366,0.3132096,9.41769790649414,-2.7260844707489014,0.8594169616699219,-0.3564647436141968,-0.39834150671958923, -1.3528755903244019
112,2472036749,0.6716871,0.087868124,-0.66564965,0.3130914,9.48895263671875,-2.6927530765533447,0.8723315000534058,0.5711055397987366,-0.9778159856796265, -1.4611403942108154
113,2472053416,0.67157423,0.08827823,-0.6657642,0.31297472,9.503182411193848,-2.680150270462036,0.8927263021469116,0.7577581405639648,-1.4193533658981323, -1.3563462495803833
114,2472070083,0.67146885,0.08866563,-0.66589385,0.31281513,9.501237869262695,-2.6535465717315674,0.8440452218055725,0.4753781259059906,-1.4478219747543335, -1.4381146430969238
115,2472086750,0.671399,0.08895672,-0.66604275,0.3125654,9.480936050415039,-2.673828601837158,0.8456625938415527,-0.4754869341850281,-1.2066397666931152, -1.4669417142868042
116,2472103417,0.67131835,0.0893022,-0.66617614,0.31235588,9.458041191101074,-2.6712982654571533,0.8307218551635742,0.04015430808067322,-1.2860007286071777, -1.499790072441101
117,2472120084,0.6711888,0.08970661,-0.6663289,0.3121925,9.458866119384766,-2.6219496726989746,0.8106517791748047,0.20776383578777313,-1.5983606576919556, -1.4595141410827637
118,2472136751,0.67105097,0.09004848,-0.6665126,0.31199813,9.451309204101562,-2.622720956802368,0.825633704662323,0.17378857731819153,-1.799971103668213, -1.2186394929885864
119,2472153418,0.6708964,0.090386905,-0.66671675,0.31179643,9.484833717346191,-2.6450769901275635,0.8044586181640625,-0.12797385454177856,-1.89605712890625, -1.1966127157211304
120,2472170085,0.67073286,0.09074059,-0.6669256,0.31159872,9.46788501739502,-2.66080641746521,0.8125967383384705,-0.3476924002170563,-1.8897818326950073, -1.2442137002944946
121,2472186752,0.67057383,0.09105486,-0.6671544,0.3113596,9.476241111755371,-2.6380016803741455,0.8141480088233948,-0.3363203704357147,-2.03084397315979, -1.1984182596206665
122,2472203419,0.67040426,0.09138654,-0.66737115,0.31116283,9.497178077697754,-2.580261468887329,0.7493915557861328,-0.06666985899209976,-2.0189592838287354, -1.0605322122573853
123,2472220086,0.67026687,0.09161238,-0.6675802,0.3109442,9.51376724243164,-2.531893730163574,0.7115615010261536,-0.541042685508728,-1.6511098146438599, -0.7226623296737671
124,2472236753,0.6701192,0.09184401,-0.66776675,0.31079343,9.501899719238281,-2.609102487564087,0.7091361284255981,-0.7068336606025696,-1.3836108446121216, -0.4645759165287018
125,2472253420,0.67000765,0.09211057,-0.66791093,0.31064543,9.494234085083008,-2.625211000442505,0.7250921130180359,-0.1521906554698944,-1.1817187070846558, -0.6730120778083801
126,2472270087,0.66993827,0.09235216,-0.66803277,0.3104613,9.516356468200684,-2.5993449687957764,0.7252753973007202,-0.2504922151565552,-0.8958041667938232, -0.8027533292770386
127,2472286754,0.66988534,0.09257858,-0.6681442,0.31026784,9.511723518371582,-2.580970287322998,0.7110297679901123,-0.3681313097476959,-0.7324591279029846, -0.8072481751441956
128,2472303421,0.6698288,0.09280931,-0.6682568,0.3100786,9.511116981506348,-2.584122896194458,0.7418659329414368,-0.4500023126602173,-0.7158492803573608, -0.7974385023117065
129,2472320088,0.6697664,0.093047455,-0.6683663,0.3099057,9.484975814819336,-2.557774066925049,0.7146579623222351,-0.25576841831207275,-0.7506313323974609, -0.7262864708900452
130,2472336755,0.6696813,0.09329494,-0.6684971,0.30973342,9.491832733154297,-2.5922751426696777,0.7566685080528259,-0.2817140519618988,-0.9524083137512207, -0.6950774788856506
131,2472353422,0.6695725,0.09356453,-0.66863626,0.30958706,9.472800254821777,-2.580326557159424,0.7538513541221619,-0.03854711353778839,-1.1346427202224731, -0.6082119941711426
132,2472370089,0.66943127,0.093874685,-0.668788,0.30947062,9.485390663146973,-2.554999828338623,0.694494366645813,0.07813794910907745,-1.3436936140060425, -0.587913990020752
133,2472386756,0.66929793,0.09417009,-0.6689367,0.30934778,9.527174949645996,-2.5618433952331543,0.7172806262969971,0.2149738073348999,-1.3286075592041016, -0.534447431564331
134,2472403423,0.66919893,0.094420135,-0.669061,0.3092167,9.569426536560059,-2.5274789333343506,0.7053096294403076,-0.02656036801636219,-0.953445553779602, -0.44284355640411377
135,2472420090,0.6691062,0.09466588,-0.66916466,0.30911806,9.531140327453613,-2.5496180057525635,0.6926863789558411,-0.23415128886699677,-0.6801580190658569, -0.32031241059303284
136,2472436757,0.66906327,0.09488909,-0.66923213,0.3089965,9.525209426879883,-2.5711750984191895,0.676943838596344,-0.036421261727809906,-0.3527252972126007, -0.4063967168331146
137,2472453424,0.6690459,0.095149234,-0.6692509,0.3089134,9.509957313537598,-2.5604357719421387,0.6565666198730469,0.4134722054004669,-0.06199553236365318, -0.4733738899230957
138,2472470091,0.6690492,0.09539047,-0.66925687,0.30881894,9.556547164916992,-2.516408681869507,0.6728523373603821,0.3089083731174469,0.1270325928926468, -0.47894471883773804
139,2472486758,0.66909564,0.09563063,-0.669219,0.30872613,9.540051460266113,-2.5209245681762695,0.690341591835022,0.40309903025627136,0.5298947095870972, -0.5707405209541321
140,2472503425,0.6691395,0.09582188,-0.669194,0.3086261,9.531196594238281,-2.502661943435669,0.6766970753669739,-0.05546429753303528,0.6169266700744629, -0.3687075972557068
141,2472520092,0.6691905,0.09602715,-0.6691484,0.30855036,9.55610466003418,-2.5177536010742188,0.703575849533081,0.30897238850593567,0.6935598850250244, -0.3235523998737335
142,2472536759,0.66922843,0.09630291,-0.66907054,0.30855125,9.566046714782715,-2.5188934803009033,0.7017703056335449,0.4529542028903961,0.8683792948722839, -0.33204302191734314
143,2472553426,0.669298,0.09655077,-0.66897196,0.30853638,9.558289527893066,-2.4974634647369385,0.6887498497962952,0.6844801902770996,1.0425969362258911, -0.30838969349861145
144,2472570093,0.6693961,0.09673239,-0.66888213,0.30846137,9.518607139587402,-2.501722574234009,0.708254337310791,0.2138212025165558,1.1968622207641602, -0.3092733323574066
145,2472586760,0.6694983,0.09691098,-0.668778,0.3084094,9.5186185836792,-2.487311601638794,0.713877260684967,0.21886689960956573,1.3415738344192505, -0.20687375962734222
146,2472603427,0.66960335,0.09705886,-0.6686944,0.30831632,9.5326509475708,-2.4916133880615234,0.7146987915039062,0.008612270466983318,1.253952980041504, -0.22034603357315063
147,2472620094,0.66972697,0.097215965,-0.6685851,0.30823517,9.54741382598877,-2.4819562435150146,0.7084028124809265,0.05713552609086037,1.4764376878738403, -0.2609933912754059
148,2472636761,0.66985637,0.09734729,-0.6684826,0.30813485,9.551093101501465,-2.4715933799743652,0.7443560361862183,-0.010744526982307434,1.473517656326294, -0.2127774953842163
149,2472653428,0.66993755,0.09752584,-0.6683983,0.3080848,9.515763282775879,-2.4373204708099365,0.7640512585639954,-0.09655988961458206,1.2583328485488892, -0.12035408616065979
150,2472670095,0.6699634,0.09765259,-0.668385,0.30801737,9.506667137145996,-2.46185040473938,0.744398295879364,-0.24023427069187164,0.6927273869514465, 0.24235376715660095
151,2472686762,0.66993487,0.09782069,-0.6684029,0.30798715,9.517679214477539,-2.477861166000366,0.7469445466995239,0.19814622402191162,0.2083400934934616, 0.38067513704299927
152,2472703429,0.66987807,0.0979876,-0.66844696,0.3079618,9.513855934143066,-2.480929374694824,0.7406790256500244,0.36360427737236023,-0.08788996934890747, 0.5134641528129578
153,2472720096,0.6697843,0.09823899,-0.6685063,0.3079569,9.520464897155762,-2.472339391708374,0.7699897885322571,0.6135458946228027,-0.4241207242012024, 0.2966783046722412
154,2472736763,0.66963965,0.09848125,-0.66861224,0.30796418,9.50376033782959,-2.4366419315338135,0.7359402179718018,0.6253020167350769,-0.861483097076416, 0.5496164560317993
155,2472753430,0.6694125,0.098738976,-0.66878533,0.3079999,9.512831687927246,-2.441250801086426,0.7375761866569519,0.48165327310562134,-1.485754370689392, 0.8179095983505249
156,2472770097,0.66918373,0.09896218,-0.6689683,0.30802804,9.535728454589844,-2.4380605220794678,0.7178754210472107,0.704201877117157,-1.5946975946426392, 1.0024489164352417
157,2472786764,0.6689479,0.09916848,-0.6691539,0.30807084,9.572376251220703,-2.437758684158325,0.6836121678352356,0.5008882284164429,-1.5337778329849243, 1.158660650253296
158,2472803431,0.66871625,0.09936883,-0.6693302,0.30812624,9.544074058532715,-2.4658164978027344,0.6638321280479431,0.579711377620697,-1.453520655632019, 1.243720531463623
159,2472820098,0.668487,0.0995923,-0.6694975,0.30818805,9.501936912536621,-2.474663257598877,0.6820888519287109,0.8201634287834167,-1.4644187688827515, 1.1728631258010864
160,2472836765,0.66825795,0.099838525,-0.6696639,0.30824363,9.514998435974121,-2.4761505126953125,0.6659929156303406,1.026909351348877,-1.544510006904602, 1.0582207441329956
161,2472853432,0.6680293,0.10007677,-0.66982394,0.30831414,9.524847030639648,-2.446592092514038,0.6372992396354675,0.9632744193077087,-1.4501140117645264, 1.1568934917449951
162,2472870099,0.6678235,0.1002589,-0.66996837,0.30838704,9.570487976074219,-2.4467339515686035,0.6531981229782104,0.8628726005554199,-1.1828840970993042, 1.3883169889450073
163,2472886766,0.6676462,0.100460865,-0.6700646,0.3084958,9.590215682983398,-2.470857858657837,0.6216517686843872,1.1537303924560547,-0.8278408050537109, 1.3740124702453613
164,2472903433,0.6674818,0.10072801,-0.67008877,0.30871207,9.672096252441406,-2.4194459915161133,0.6575059294700623,2.1387948989868164,-0.5077717900276184, 1.503587245941162
165,2472920100,0.6673898,0.100912474,-0.67005664,0.30892015,9.711344718933105,-2.3559205532073975,0.6018713712692261,1.7474455833435059,0.27257677912712097, 1.6635640859603882
166,2472936767,0.66741014,0.10093057,-0.66999406,0.30900615,9.590062141418457,-2.365283250808716,0.7395758032798767,0.8228144645690918,1.0870479345321655, 1.6638075113296509
167,2472953434,0.66731584,0.101016596,-0.66999984,0.30916914,9.486681938171387,-2.4952504634857178,0.7115073204040527,0.9415293335914612,0.2931053340435028, 1.9684319496154785
168,2472970101,0.66714704,0.10122694,-0.6700334,0.30939138,9.508044242858887,-2.4415411949157715,0.7404106855392456,1.433882236480713,-0.30030888319015503, 1.820787787437439
169,2472986768,0.666957,0.10135213,-0.6701262,0.3095596,9.537354469299316,-2.396906614303589,0.7230350375175476,0.9610333442687988,-0.6068288683891296, 2.084841728210449
170,2473003435,0.6667105,0.10141952,-0.6702959,0.30970097,9.530996322631836,-2.440535068511963,0.6741411089897156,0.6416429281234741,-1.1717170476913452, 2.430408239364624
171,2473020102,0.66641384,0.10147365,-0.6705151,0.30984744,9.490265846252441,-2.452241897583008,0.6623232364654541,0.5657524466514587,-1.6044563055038452, 2.668452262878418
172,2473036769,0.6660695,0.10154045,-0.67078215,0.30998772,9.523581504821777,-2.4891676902770996,0.7020054459571838,0.3949670195579529,-2.0334174633026123, 2.7133002281188965
173,2473053436,0.6656619,0.101628356,-0.67109793,0.310151,9.520085334777832,-2.4855706691741943,0.6648313403129578,0.5280250906944275,-2.5742430686950684, 2.896047592163086
174,2473070103,0.66524005,0.10167217,-0.6714514,0.31027684,9.506210327148438,-2.4735443592071533,0.6253290176391602,0.24582427740097046,-2.789415121078491, 3.005157232284546
175,2473086770,0.6647548,0.10179288,-0.67181575,0.31048867,9.524636268615723,-2.474731922149658,0.6321574449539185,0.8604651093482971,-3.186476469039917, 3.1809887886047363
176,2473103437,0.66423947,0.10193712,-0.67220414,0.31070295,9.551493644714355,-2.475184917449951,0.5998494029045105,1.0559026002883911,-3.5115649700164795, 3.180732250213623
177,2473120104,0.66371274,0.10207508,-0.67258453,0.31096017,9.561861038208008,-2.4602749347686768,0.5981234312057495,1.374998688697815,-3.515765905380249, 3.442647933959961
178,2473136771,0.663174,0.10222497,-0.6729709,0.31122476,9.548760414123535,-2.4946868419647217,0.5817181468009949,1.388009786605835,-3.594883918762207, 3.455018997192383
179,2473153438,0.66264737,0.10236196,-0.6733358,0.311512,9.535651206970215,-2.475571870803833,0.568419873714447,1.373551607131958,-3.3643951416015625, 3.5763206481933594
180,2473170105,0.6621306,0.10240992,-0.6737258,0.31175187,9.504423141479492,-2.5164103507995605,0.5660180449485779,0.9806015491485596,-3.357607364654541, 3.8003551959991455
181,2473186772,0.66155463,0.10252172,-0.6741453,0.31203064,9.50999641418457,-2.5299839973449707,0.5837509632110596,1.063868522644043,-3.764350414276123, 3.80730938911438
182,2473203439,0.6609104,0.1026105,-0.674655,0.3122645,9.472464561462402,-2.52864933013916,0.5732235312461853,0.6582016348838806,-4.4862446784973145, 3.9293019771575928
183,2473220106,0.6601643,0.10267775,-0.67530197,0.31242222,9.405135154724121,-2.5708203315734863,0.612617552280426,-0.04602602496743202,-5.579202175140381, 4.001990795135498
184,2473236773,0.6592887,0.10273771,-0.6761093,0.31250572,9.400650024414062,-2.5733766555786133,0.7275577187538147,-0.3980342149734497,-7.030059814453125, 4.1125102043151855
185,2473253440,0.6581456,0.10295825,-0.6770596,0.3127849,9.435457229614258,-2.55784273147583,0.6758910417556763,0.8707872033119202,-9.063261985778809, 4.913919925689697
186,2473270107,0.656813,0.10327049,-0.6781332,0.31315717,9.571420669555664,-2.4850986003875732,0.5494546294212341,1.1803297996520996,-10.520729064941406, 5.381032466888428
187,2473286774,0.6554494,0.1035618,-0.67921823,0.31356642,9.557790756225586,-2.5627543926239014,0.4663383662700653,1.3294343948364258,-10.667862892150879, 5.737023830413818
188,2473303441,0.65411556,0.10393953,-0.6802073,0.314082,9.601164817810059,-2.5702595710754395,0.33689776062965393,2.622453451156616,-10.270851135253906, 5.70053768157959
189,2473320108,0.6528401,0.10407584,-0.68122375,0.31448758,9.563285827636719,-2.532644748687744,0.2941565215587616,1.2055840492248535,-9.755510330200195, 6.252133846282959
190,2473336775,0.6515839,0.104153514,-0.6821998,0.3149509,9.50840950012207,-2.573892116546631,0.2700032889842987,1.0637151002883911,-9.239235877990723, 6.712969779968262
191,2473353442,0.6502639,0.10422971,-0.6832172,0.31544766,9.486420631408691,-2.559539794921875,0.30797773599624634,1.454385757446289,-9.776090621948242, 7.058600902557373
192,2473370109,0.64883155,0.10440347,-0.68430495,0.31598166,9.530534744262695,-2.594353199005127,0.5124370455741882,1.9296554327011108,-10.778546333312988, 7.065478324890137
193,2473386776,0.6472637,0.10470104,-0.68543005,0.31665933,9.562174797058105,-2.5620815753936768,0.3367930054664612,3.1118743419647217,-11.738614082336426, 7.449746131896973
194,2473403443,0.64572537,0.10495911,-0.68649393,0.31740907,9.653525352478027,-2.5766799449920654,0.13735781610012054,3.695882797241211,-11.28496265411377, 7.871088981628418
195,2473420110,0.64427054,0.10496396,-0.68755,0.31807753,9.648228645324707,-2.531801700592041,0.06957490742206573,1.735613465309143,-10.224556922912598, 8.513262748718262
196,2473436777,0.64289445,0.104841724,-0.68856883,0.3186978,9.561107635498047,-2.7085516452789307,0.13635358214378357,1.078532099723816,-9.467828750610352, 8.720264434814453
197,2473453444,0.6415767,0.10481163,-0.68944097,0.31947616,9.53559684753418,-2.8199288845062256,0.07277338206768036,2.468252420425415,-8.611006736755371, 8.75293254852295
198,2473470111,0.64033556,0.10475865,-0.69019216,0.3203607,9.478038787841797,-2.660780429840088,0.062354378402233124,3.101116418838501,-7.586381912231445, 9.075203895568848
199,2473486778,0.63915306,0.10446442,-0.69095016,0.32118282,9.47159194946289,-2.6740736961364746,-0.02642246149480343,1.8373984098434448,-6.893328666687012, 9.833558082580566
200,2473503445,0.63800204,0.104316115,-0.6915243,0.32228237,9.519320487976074,-2.8237147331237793,-0.07760603725910187,4.079240798950195,-6.015580654144287, 10.163514137268066
201,2473520112,0.63688886,0.1042182,-0.6920045,0.32348263,9.530853271484375,-2.7383673191070557,-0.03810860216617584,5.100317478179932,-5.495797157287598, 10.220438957214355
202,2473536779,0.635787,0.10412906,-0.6924657,0.32468966,9.487872123718262,-2.862011671066284,0.03508109226822853,5.22095251083374,-5.369807243347168, 10.178190231323242
203,2473553446,0.6346642,0.104118586,-0.69288695,0.32598862,9.501498222351074,-2.859743595123291,0.06006184592843056,6.140437126159668,-5.4108781814575195, 10.226741790771484
204,2473570113,0.63359916,0.10409779,-0.69323236,0.3273299,9.600455284118652,-2.7153267860412598,-0.05908197909593582,6.421010494232178,-4.747264862060547, 10.280436515808105
205,2473586780,0.632621,0.103676654,-0.69367933,0.32840672,9.546740531921387,-2.8376500606536865,0.01966259814798832,3.071073055267334,-4.037613391876221, 10.926734924316406
206,2473603447,0.6316291,0.10333897,-0.6940979,0.3295358,9.478344917297363,-2.9301016330718994,0.04928402975201607,3.492812156677246,-4.037485599517822, 10.76992130279541
207,2473620114,0.6305048,0.10313987,-0.6946032,0.33068466,9.454570770263672,-2.89243483543396,0.3425131142139435,4.327146053314209,-5.427884578704834, 10.564469337463379
208,2473636781,0.6293461,0.10274003,-0.69527835,0.33159646,9.420429229736328,-2.986128807067871,0.06496622413396835,2.0841898918151855,-6.098093032836914, 10.702869415283203
209,2473653448,0.6281818,0.10223894,-0.696049,0.33234137,9.44284439086914,-3.033191680908203,-0.058899860829114914,0.603262722492218,-6.415831089019775, 10.547065734863281
210,2473670115,0.62710696,0.10162649,-0.6967847,0.33301696,9.391014099121094,-3.08294677734375,-0.1305886059999466,-0.1398710161447525,-5.647500038146973, 10.554736137390137
211,2473686782,0.6260542,0.101052575,-0.697491,0.33369288,9.42863655090332,-3.055605173110962,-0.14834220707416534,-0.08347184211015701,-5.438706398010254, 10.298725128173828
212,2473703449,0.62502384,0.10054727,-0.6981477,0.33440286,9.467877388000488,-2.961092233657837,-0.10704658180475235,0.19956783950328827,-5.147911548614502, 10.031596183776855
213,2473720116,0.6241557,0.099746734,-0.6988097,0.3348814,9.498623847961426,-2.9074463844299316,-0.27141034603118896,-1.9689644575119019,-3.9910106658935547, 10.097868919372559
214,2473736783,0.62341565,0.09870906,-0.69946826,0.3351923,9.443380355834961,-3.2011938095092773,-0.2439887374639511,-3.9470207691192627,-2.893045425415039, 10.234884262084961
215,2473753450,0.62278086,0.097835265,-0.69993144,0.33566114,9.369385719299316,-3.227836847305298,-0.2866755425930023,-2.2874836921691895,-1.746825098991394, 9.748472213745117
216,2473770117,0.62244755,0.09683831,-0.7001969,0.33601463,9.423186302185059,-3.3331191539764404,0.016189662739634514,-2.9449362754821777,0.7037282586097717, 9.018559455871582
217,2473786784,0.6225567,0.09577511,-0.70005095,0.33642122,9.313876152038574,-3.2952401638031006,-0.11799493432044983,-2.6721739768981934,4.906312942504883, 8.263396263122559
218,2473803451,0.6227053,0.09488317,-0.69983196,0.33685386,9.303386688232422,-3.3345248699188232,-0.09286302328109741,-1.6501240730285645,5.021249294281006, 7.408340930938721
219,2473820118,0.62278193,0.09407945,-0.6996986,0.33721468,9.41601848602295,-3.2075793743133545,-0.18402644991874695,-1.4129631519317627,3.922642946243286, 6.897341251373291
220,2473836785,0.6227664,0.09331802,-0.6997126,0.3374264,9.507946968078613,-3.2425966262817383,-0.12940531969070435,-2.465632438659668,2.7462515830993652, 6.367554664611816
221,2473853452,0.6227528,0.09255453,-0.6998183,0.3374424,9.543442726135254,-3.293729543685913,-0.008155382238328457,-3.4930474758148193,2.19053316116333, 5.600941181182861
222,2473870119,0.62324095,0.091643475,-0.69952583,0.33739603,9.598710060119629,-3.2948074340820312,0.22525429725646973,-3.6805455684661865,6.55419397354126, 4.632012367248535
223,2473886786,0.6248067,0.09024383,-0.6983567,0.33729923,9.890087127685547,-3.274984836578369,1.0203863382339478,-4.907333850860596,16.66871452331543, 3.717078685760498
224,2473903453,0.6271994,0.088149786,-0.69661963,0.33700398,9.282392501831055,-3.2324721813201904,0.23128151893615723,-8.369840621948242,24.63124656677246, 3.9345359802246094
225,2473920120,0.6287945,0.08649636,-0.6956719,0.3364172,9.167640686035156,-3.213872194290161,0.248811274766922,-9.137956619262695,16.16572380065918, 2.896857738494873
226,2473936787,0.6294392,0.08511291,-0.69564134,0.3356266,9.102965354919434,-3.1126129627227783,-0.6318817138671875,-10.365657806396484,6.842711448669434, 3.473846197128296
227,2473953454,0.62968045,0.08387688,-0.6960194,0.33470047,9.351201057434082,-3.1799023151397705,-0.05008174851536751,-11.381059646606445,2.8714349269866943, 3.3516602516174316
228,2473970121,0.629777,0.08263404,-0.69656324,0.33369502,9.284588813781738,-3.1990339756011963,-0.1746554970741272,-12.006573677062988,1.4022446870803833, 3.4799349308013916
229,2473986788,0.62968415,0.081463814,-0.6973049,0.3326073,9.256765365600586,-3.2524261474609375,0.0030725072138011456,-12.454413414001465,-0.557640016078949, 3.3293776512145996
230,2474003455,0.62935185,0.08041013,-0.6982586,0.3314898,9.227465629577637,-3.3244259357452393,0.014445813372731209,-12.7532377243042,-2.789813756942749, 3.3061342239379883
231,2474020122,0.6288775,0.07953379,-0.6992741,0.3304591,9.297150611877441,-3.3238625526428223,-0.05662238970398903,-11.446833610534668,-4.168315410614014, 3.1931817531585693
232,2474036789,0.62834775,0.07860132,-0.70039535,0.32931378,9.361716270446777,-3.3272552490234375,-0.09535867720842361,-12.415826797485352,-4.840482711791992, 3.155005931854248
233,2474053456,0.62779576,0.077676184,-0.70153964,0.3281482,9.321290969848633,-3.44162917137146,-0.10578537732362747,-12.458356857299805,-5.09782600402832, 3.099644184112549
234,2474070123,0.6272336,0.07686226,-0.7026877,0.326956,9.329812049865723,-3.4100987911224365,-0.12019644677639008,-12.323674201965332,-5.346500873565674, 2.4698150157928467
235,2474086790,0.6266307,0.07605138,-0.70391434,0.3256606,9.319137573242188,-3.310089588165283,-0.09822981804609299,-12.889485359191895,-5.973935604095459, 2.1441879272460938
236,2474103457,0.6259034,0.075271435,-0.70526505,0.32431537,9.34512996673584,-3.3359057903289795,-0.049789391458034515,-13.204726219177246,-7.211785793304443, 2.1282951831817627
237,2474120124,0.6250103,0.07467458,-0.70667607,0.32310173,9.343306541442871,-3.280350685119629,-0.10153330862522125,-11.844511985778809,-8.61600399017334, 2.212061882019043
238,2474136791,0.6239323,0.07418476,-0.7082145,0.3219279,9.377298355102539,-3.2664992809295654,-0.14337463676929474,-11.4228515625,-10.269023895263672, 2.346362352371216
239,2474153458,0.6227235,0.07356949,-0.7099485,0.32058728,9.369538307189941,-3.2380683422088623,-0.12926612794399261,-13.07314682006836,-11.582947731018066, 2.6383862495422363
240,2474170125,0.6213223,0.07292753,-0.7119198,0.3190777,9.296417236328125,-3.407294511795044,-0.09596781432628632,-14.474525451660156,-13.559882164001465, 2.599724769592285
241,2474186792,0.6196808,0.07246534,-0.7140753,0.3175548,9.377091407775879,-3.3230977058410645,-0.11310671269893646,-13.984504699707031,-15.963228225708008, 2.2824087142944336
242,2474203459,0.6178329,0.071711086,-0.7165927,0.31564978,9.440281867980957,-3.4296998977661133,-0.15939125418663025,-17.778417587280273,-18.091751098632812, 2.725818634033203
243,2474220126,0.61576515,0.07101589,-0.7193322,0.31361023,9.419135093688965,-3.381420612335205,-0.17206637561321259,-18.588441848754883,-20.31845474243164, 2.4546189308166504
244,2474236793,0.6134079,0.070253365,-0.7223872,0.3113718,9.510887145996094,-3.38468861579895,-0.23224662244319916,-20.415977478027344,-23.048547744750977, 2.7308928966522217
245,2474253460,0.6107457,0.069310755,-0.7258546,0.30874082,9.488447189331055,-3.2170982360839844,-0.27626532316207886,-23.713483810424805,-26.18317222595215, 2.822666645050049
246,2474270127,0.6076456,0.06832738,-0.72978085,0.30580735,9.395318984985352,-3.236121892929077,-0.39551877975463867,-26.231714248657227,-30.347646713256836, 2.922854423522949
247,2474286794,0.60391325,0.06763667,-0.7341506,0.30288124,9.254711151123047,-3.359524726867676,-0.43557262420654297,-24.979915618896484,-36.24447250366211, 2.9882090091705322
248,2474303461,0.5994402,0.06728001,-0.73907864,0.29984605,9.306923866271973,-3.412707805633545,-0.46560144424438477,-24.964994430541992,-43.06875228881836, 2.6493306159973145
249,2474320128,0.5941446,0.06739475,-0.74456394,0.29677412,9.416043281555176,-3.558673143386841,-0.48852041363716125,-23.972522735595703,-50.56261444091797, 2.0523104667663574
250,2474336795,0.5879731,0.06798004,-0.7507454,0.293339,9.709610939025879,-3.8839316368103027,-0.29223769903182983,-24.92201805114746,-59.050682067871094, 0.26059380173683167
251,2474353462,0.58090717,0.06941533,-0.75736755,0.2900394,10.245259284973145,-4.109557151794434,-0.09088888019323349,-21.2606143951416,-67.14937591552734, -1.5864399671554565
252,2474370129,0.5731099,0.07092536,-0.7645049,0.28643852,10.611913681030273,-3.267819404602051,-0.24797484278678894,-23.219024658203125,-73.37284851074219, -1.4941991567611694
253,2474386796,0.564335,0.07275596,-0.77216184,0.28284046,11.126691818237305,-3.092057704925537,-0.22659927606582642,-22.49036979675293,-81.26220703125, -0.9700667858123779
254,2474403463,0.5547206,0.07485172,-0.7800388,0.2796825,11.54340648651123,-2.842010498046875,-0.36447447538375854,-19.13507843017578,-86.95247650146484, 1.1040726900100708
255,2474420130,0.5443754,0.07702639,-0.7880833,0.2768521,11.612074851989746,-2.510652780532837,-0.4628186821937561,-17.023441314697266,-91.58858489990234, 3.468597173690796
256,2474436797,0.53336596,0.07908441,-0.7963604,0.27400085,11.800880432128906,-2.398637056350708,-0.3547993004322052,-17.659358978271484,-95.94816589355469, 5.469231128692627
257,2474453464,0.521798,0.08071187,-0.8048137,0.2710857,11.73501205444336,-2.0581045150756836,-0.30521711707115173,-19.613237380981445,-98.99608612060547, 8.805164337158203
258,2474470131,0.509659,0.0815863,-0.8135435,0.26784045,11.709171295166016,-1.665098786354065,-0.12321651726961136,-24.335033416748047,-102.06184387207031, 13.080056190490723
259,2474486798,0.4970544,0.08151826,-0.8225215,0.26410225,12.006501197814941,-1.5747184753417969,0.06255403161048889,-30.584518432617188,-104.23100280761719, 17.706424713134766
260,2474503465,0.48407787,0.08073489,-0.83154196,0.26017085,12.264055252075195,-1.588965892791748,0.2666695713996887,-33.98673629760742,-105.46757507324219, 21.880878448486328
261,2474520132,0.47064728,0.07936137,-0.8405386,0.2562965,12.146697998046875,-1.5166118144989014,0.014186277985572815,-35.33123779296875,-107.09986877441406, 26.334152221679688
262,2474536799,0.45685825,0.07754101,-0.8492906,0.25293046,12.344884872436523,-1.9968334436416626,-0.6191229820251465,-33.21198272705078,-107.51911163330078, 31.149248123168945
263,2474553466,0.44331235,0.07499151,-0.857367,0.2505441,12.60180377960205,-3.14571475982666,-2.0108253955841064,-28.73984146118164,-102.38311004638672, 37.777320861816406
264,2474570133,0.42923096,0.07286307,-0.86508,0.24917601,12.473987579345703,-3.6133434772491455,-3.0946452617645264,-20.561338424682617,-104.79740905761719, 39.18037796020508
265,2474586800,0.41337904,0.07204778,-0.8733335,0.24741814,11.54166316986084,-3.362114191055298,-3.3571200370788574,-19.045494079589844,-119.507080078125, 33.559207916259766
266,2474603467,0.39695323,0.071865186,-0.881792,0.24434927,10.798230171203613,-4.326655387878418,-2.9936676025390625,-25.1719970703125,-125.38658142089844, 27.142736434936523
267,2474620134,0.38163358,0.0725115,-0.8891058,0.24205221,10.16592788696289,-5.170068264007568,-2.4122912883758545,-16.869417190551758,-116.69744110107422, 21.79388999938965
268,2474636801,0.3685461,0.07335021,-0.8948653,0.24085261,8.742384910583496,-4.9038777351379395,-1.7444664239883423,-8.234994888305664,-98.88707733154297, 18.978622436523438
269,2474653468,0.36048388,0.07334714,-0.8983254,0.24017352,6.8389973640441895,-4.713107585906982,1.3028814792633057,-5.964730262756348,-60.6171989440918, 15.96310043334961
270,2474670135,0.3571882,0.07461926,-0.89881927,0.24284264,7.707290172576904,-3.487246513366699,3.825752019882202,20.242244720458984,-24.410783767700195, 6.978647232055664
271,2474686802,0.35783166,0.077000774,-0.8973173,0.24667645,5.765629291534424,-2.675657272338867,2.2743678092956543,31.334463119506836,3.3311290740966797, -4.594435691833496
272,2474703469,0.3625221,0.08003579,-0.89401066,0.2508331,6.059137344360352,-3.117359161376953,1.2202705144882202,35.752655029296875,31.64988899230957, -15.62836742401123
273,2474720136,0.37069687,0.08452011,-0.88848674,0.2569662,6.167799949645996,-2.634531021118164,1.5224438905715942,53.327796936035156,57.059078216552734, -26.817947387695312
274,2474736803,0.38265136,0.09019551,-0.88088995,0.26358306,6.318901538848877,-1.863861083984375,1.6365879774093628,60.70273971557617,83.48495483398438, -40.70124816894531
275,2474753470,0.39840612,0.09630405,-0.87155247,0.26906246,6.562556266784668,-1.7519762516021729,1.4370616674423218,55.68653106689453,109.46776580810547, -54.222084045410156
276,2474770137,0.41768098,0.101978965,-0.8605314,0.2731827,6.980796813964844,-2.3234124183654785,0.8504323959350586,47.079837799072266,134.9558563232422, -62.91948318481445
277,2474786804,0.43984336,0.10745273,-0.8474716,0.27709916,7.497007369995117,-3.003352165222168,0.2493375539779663,47.04106903076172,158.02520751953125, -69.13758087158203
278,2474803471,0.464422,0.11268633,-0.8321796,0.28123173,8.088550567626953,-3.4053103923797607,0.0389847606420517,49.98053741455078,179.3878936767578, -73.3307113647461
279,2474820138,0.49102956,0.117572226,-0.8144642,0.28585878,8.807164192199707,-4.087303161621094,-0.1145746111869812,54.750160217285156,199.7177734375, -75.57006072998047
280,2474836805,0.5191036,0.12290406,-0.7939308,0.2917188,9.610936164855957,-4.328691005706787,-0.5946998000144958,67.45012664794922,217.5068359375, -79.09049224853516
281,2474853472,0.5483486,0.12869127,-0.7705951,0.2982211,10.479743957519531,-4.192739486694336,-0.536738395690918,77.1624526977539,233.5037384033203, -84.02802276611328
282,2474870139,0.5788286,0.1341144,-0.74455196,0.30432436,11.77954387664795,-4.370676040649414,-0.4074587821960449,78.09931945800781,250.66403198242188, -88.56657409667969
283,2474886806,0.610216,0.13857119,-0.7160661,0.30932823,13.126574516296387,-4.110515594482422,-0.7935815453529358,72.88536834716797,266.12017822265625, -92.21434783935547
284,2474903473,0.6419727,0.1415704,-0.6856642,0.31255996,14.580848693847656,-4.6156229972839355,-1.006331443786621,61.7797737121582,277.546142578125, -95.1718521118164
285,2474920140,0.67338765,0.1434331,-0.6532577,0.3150089,15.957122802734375,-4.638357162475586,-1.4575603008270264,57.74946212768555,286.68994140625, -94.61138153076172
286,2474936807,0.70382696,0.14233781,-0.6203527,0.31548414,17.20256996154785,-4.7824578285217285,-2.2233011722564697,37.28165817260742,289.36614990234375, -88.98480987548828
287,2474953474,0.73161083,0.13853142,-0.588628,0.31475702,17.651718139648438,-5.708859443664551,-5.626334190368652,19.14038848876953,277.3778381347656, -76.48193359375
288,2474970141,0.755619,0.13060918,-0.5600085,0.31364283,16.45237159729004,-7.605690956115723,-8.271695137023926,-6.1544365882873535,255.4818878173828, -50.82856369018555
289,2474986808,0.77537423,0.121461846,-0.5341863,0.31414473,13.471231460571289,-7.371325969696045,-8.768210411071777,-8.369933128356934,229.1919403076172, -26.258630752563477
290,2475003475,0.7906425,0.1130648,-0.512492,0.3153617,11.06916332244873,-4.6793365478515625,-9.210728645324707,-6.769151210784912,190.15725708007812, -12.261628150939941
291,2475020142,0.8008227,0.103885755,-0.49880737,0.31477308,9.344916343688965,-4.6671905517578125,-11.90740966796875,-30.68311882019043,129.39268493652344, -2.173680305480957
292,2475036809,0.8050963,0.09762498,-0.4931587,0.31477603,7.2573323249816895,-6.407896041870117,-14.661651611328125,-25.640043258666992,59.4048957824707, 9.506315231323242
293,2475053476,0.8030476,0.09940623,-0.49443543,0.31743786,6.304841041564941,-5.459235191345215,-13.890303611755371,17.285871505737305,-15.599699974060059, 15.172870635986328
294,2475070143,0.79568076,0.10402459,-0.5033983,0.3204082,7.838907718658447,-3.862985849380493,-11.820528984069824,20.967708587646484,-81.79962158203125, 24.00393295288086
295,2475086810,0.78471047,0.107607394,-0.5180861,0.32285768,12.450366973876953,-4.202905178070068,-2.8245491981506348,3.534125328063965,-123.46084594726562, 36.72620391845703
296,2475103477,0.7756564,0.11876342,-0.5236918,0.33166197,14.909029006958008,1.3185229301452637,24.431564331054688,85.80635833740234,-79.67652130126953, 33.022300720214844
297,2475120144,0.76621354,0.13200893,-0.5276006,0.34223974,5.816630840301514,7.783838272094727,7.977363586425781,107.41275787353516,-75.73617553710938, 34.520751953125
298,2475136811,0.7589255,0.1304035,-0.5402783,0.33930305,12.170254707336426,-1.5539644956588745,-6.784744739532471,-42.531639099121094,-91.57768249511719, 20.22845458984375
299,2475153478,0.74861354,0.13410927,-0.55194366,0.34198046,16.03632926940918,0.44773250818252563,2.1917002201080322,11.145769119262695,-104.740234375, 35.944271087646484
300,2475170145,0.7384277,0.13241221,-0.5656401,0.34240794,9.76640510559082,0.33913150429725647,1.5460445880889893,-30.09857177734375,-104.08146667480469, 46.4865608215332
301,2475186812,0.7284235,0.12824355,-0.57970446,0.34190038,10.12147045135498,-5.719863414764404,0.2767079174518585,-47.31609344482422,-100.30548858642578, 51.282901763916016
302,2475203479,0.7176746,0.1272255,-0.5917674,0.34433758,9.788413047790527,-7.876592636108398,-2.1504743099212646,-14.409217834472656,-98.06940460205078, 53.398624420166016
303,2475220146,0.7072654,0.13297185,-0.60001576,0.349393,10.220646858215332,-3.2258944511413574,-0.15376251935958862,38.390342712402344,-91.57087707519531, 34.56812286376953
304,2475236813,0.69814074,0.13715903,-0.60754305,0.35309833,9.482789039611816,-0.7791380882263184,0.1446833312511444,25.799129486083984,-80.2664566040039, 30.6739559173584
305,2475253480,0.69048107,0.13822134,-0.6152413,0.3544136,10.100066184997559,-1.5666438341140747,0.5959761142730713,-0.987069308757782,-69.65768432617188, 28.876005172729492
306,2475270147,0.6841875,0.13751921,-0.6226268,0.35399428,10.520784378051758,-1.2827425003051758,0.812599241733551,-17.241994857788086,-59.76774978637695, 24.490190505981445
307,2475286814,0.6786792,0.13386527,-0.6306741,0.3517455,10.946552276611328,-1.2349857091903687,0.6126217842102051,-41.320152282714844,-54.09246063232422, 27.25255012512207
308,2475303481,0.673118,0.1292939,-0.6385244,0.3499741,10.384181022644043,-2.5284485816955566,0.02781154215335846,-43.009639739990234,-50.76764678955078, 33.42462921142578
309,2475320148,0.667459,0.1267036,-0.6450734,0.3497498,9.646238327026367,-3.622225046157837,0.15254370868206024,-23.83208465576172,-48.582855224609375, 30.967845916748047
310,2475336815,0.6620459,0.12646794,-0.6501825,0.35066253,9.535625457763672,-3.7508888244628906,0.4357033967971802,-4.735820293426514,-45.575138092041016, 23.884841918945312
311,2475353482,0.6570723,0.12726897,-0.65459746,0.35151216,9.67864990234375,-3.2588045597076416,0.43339911103248596,0.989035427570343,-43.026344299316406, 17.28768539428711
312,2475370149,0.65260255,0.12721306,-0.6592149,0.35123006,9.91695785522461,-2.663638114929199,-0.012334611266851425,-8.910528182983398,-40.612850189208984, 14.986183166503906
313,2475386816,0.6484006,0.12636644,-0.6641069,0.3501005,9.895488739013672,-2.8827600479125977,-0.46807581186294556,-17.20044708251953,-39.478355407714844, 14.363327980041504
314,2475403483,0.64423126,0.12587486,-0.668774,0.34908915,9.70006275177002,-2.907228946685791,-0.043947651982307434,-14.567639350891113,-39.0914421081543, 12.996285438537598
315,2475420150,0.6404776,0.1252826,-0.67305374,0.34798196,9.91849422454834,-2.9203803539276123,0.32386961579322815,-14.88904094696045,-35.32179260253906, 11.701388359069824
316,2475436817,0.63725805,0.124409065,-0.6768572,0.34682688,9.748574256896973,-3.0022225379943848,0.22873668372631073,-15.675400733947754,-30.140235900878906, 11.105185508728027
317,2475453484,0.634505,0.12343222,-0.68016243,0.345756,9.622689247131348,-3.0572690963745117,0.046393755823373795,-14.952742576599121,-25.48601531982422, 10.416584968566895
318,2475470151,0.6321531,0.12237475,-0.6830053,0.3448346,9.666799545288086,-2.874006509780884,-0.0552329421043396,-13.851266860961914,-21.289226531982422, 10.098953247070312
319,2475486818,0.6301876,0.120941,-0.68559283,0.34380186,9.641111373901367,-2.8126821517944336,-0.13979332149028778,-15.732917785644531,-17.580059051513672, 10.252523422241211
320,2475503485,0.62843925,0.119033374,-0.68818706,0.34248203,9.403111457824707,-3.0796377658843994,-0.2118123471736908,-19.339723587036133,-15.715582847595215, 10.736236572265625
321,2475520152,0.6268041,0.117225215,-0.690592,0.34125933,9.367009162902832,-3.2571823596954346,-0.3611524999141693,-18.100317001342773,-14.527517318725586, 10.263755798339844
322,2475536819,0.6252635,0.11552664,-0.69282186,0.34014294,9.400105476379395,-3.1398558616638184,-0.33192235231399536,-16.791820526123047,-13.504322052001953, 9.836596488952637
323,2475553486,0.6238782,0.113695785,-0.6949867,0.33888495,9.574546813964844,-3.025547981262207,-0.45250067114830017,-18.00904083251953,-12.296847343444824, 9.442850112915039
324,2475570153,0.62260455,0.1115844,-0.69719017,0.33739972,9.644540786743164,-2.9878008365631104,-0.2296978235244751,-20.477718353271484,-11.459723472595215, 9.579497337341309
325,2475586820,0.6211926,0.10939843,-0.6996017,0.33572206,9.51579475402832,-3.29622483253479,0.008022468537092209,-22.098106384277344,-12.996148109436035, 9.595073699951172
326,2475603487,0.6195144,0.10749478,-0.70214915,0.33411607,9.643527030944824,-3.242493152618408,0.0594070702791214,-20.66445541381836,-15.464605331420898, 9.259546279907227
327,2475620154,0.61736846,0.10559991,-0.7050594,0.33255997,9.478894233703613,-2.91650390625,0.039155080914497375,-20.87691307067871,-19.260801315307617, 10.772333145141602
328,2475636821,0.6144289,0.10374655,-0.70863944,0.33097437,9.28404712677002,-2.882499933242798,0.06646782159805298,-21.801502227783203,-26.07479476928711, 12.74817180633545
329,2475653488,0.6103467,0.10251372,-0.7130114,0.329519,9.11687183380127,-3.2929608821868896,0.4316292107105255,-19.53533363342285,-36.314937591552734, 13.441844940185547
330,2475670155,0.60495937,0.101963155,-0.7182972,0.3281419,9.150416374206543,-3.2377655506134033,0.4241447448730469,-17.442495346069336,-48.0482063293457, 14.02481460571289
331,2475686822,0.5982215,0.102117494,-0.7245267,0.32674786,9.397297859191895,-2.919417142868042,0.01205761730670929,-15.78078842163086,-60.256004333496094, 14.181196212768555
332,2475703489,0.5902789,0.10281623,-0.7316757,0.3250394,9.791757583618164,-2.8771541118621826,-0.24931415915489197,-16.329378128051758,-71.49065399169922, 13.530243873596191
333,2475720156,0.58138835,0.10350975,-0.7397898,0.3224664,10.140304565429688,-3.0807130336761475,-0.011001519858837128,-22.1882266998291,-80.7831039428711, 12.851578712463379
334,2475736823,0.57140803,0.104343176,-0.74883753,0.31913602,10.384210586547852,-3.350888729095459,-0.07685639709234238,-26.77883529663086,-90.9179916381836, 12.19534683227539
335,2475753490,0.5602528,0.105486915,-0.75859565,0.31547147,10.736740112304688,-3.4118595123291016,-0.03879089653491974,-27.99881935119629,-100.6884536743164, 12.374354362487793
336,2475770157,0.5477479,0.10792114,-0.7688424,0.31178,11.688379287719727,-4.007274150848389,-0.25641822814941406,-23.25260353088379,-112.4418716430664, 8.824199676513672
337,2475786824,0.5340975,0.111332476,-0.77908236,0.30883026,12.798358917236328,-3.423659563064575,0.4450294077396393,-14.790909767150879,-120.02973175048828, 8.904273986816406
338,2475803491,0.5198536,0.11352353,-0.78996134,0.30467322,13.15855598449707,-2.3749773502349854,0.14708930253982544,-26.647552490234375,-123.9090576171875, 12.763697624206543
339,2475820158,0.5046562,0.11555055,-0.8010432,0.30049995,14.382710456848145,-2.7802083492279053,1.2799906730651855,-27.005231857299805,-129.50303649902344, 15.765362739562988
340,2475836825,0.48908558,0.116213046,-0.8120843,0.29632598,15.32394027709961,-1.7796746492385864,2.1702451705932617,-31.368989944458008,-128.62893676757812, 24.03047752380371
341,2475853492,0.47373903,0.11471357,-0.82324445,0.291,15.879395484924316,0.28221309185028076,2.986480474472046,-45.49934768676758,-124.33344268798828, 31.88694953918457
342,2475870159,0.45951164,0.110244684,-0.8346898,0.28282169,16.00141143798828,1.2300316095352173,3.4005606174468994,-72.77413177490234,-115.28348541259766, 37.419185638427734
343,2475886826,0.44653532,0.102149904,-0.8467118,0.27064887,14.215117454528809,-0.07892566919326782,2.685816526412964,-109.22821044921875,-105.95660400390625, 43.64352798461914
344,2475903493,0.43448314,0.09171098,-0.8579825,0.2582242,11.664510726928711,-4.553647041320801,-1.6874760389328003,-117.1475830078125,-94.12962341308594, 54.285621643066406
345,2475920160,0.41667384,0.08496614,-0.8707216,0.24699786,12.357033729553223,-6.013442039489746,-6.357207298278809,-98.02871704101562,-138.30323791503906, 47.20968246459961
346,2475936827,0.39703748,0.084117554,-0.8816629,0.24074069,11.744726181030273,-2.7837345600128174,-2.773538827896118,-47.26421356201172,-151.19705200195312, 28.185422897338867
347,2475953494,0.37930185,0.08334459,-0.8916731,0.2326005,9.588512420654297,-4.282680988311768,-1.5390275716781616,-58.02846145629883,-138.3614959716797, 18.904226303100586
348,2475970161,0.36508664,0.082187034,-0.89967406,0.22481935,9.115582466125488,-6.037235260009766,-2.0350584983825684,-55.641510009765625,-110.72990417480469, 15.409113883972168
349,2475986828,0.35614732,0.081835695,-0.9040172,0.22184467,6.84177827835083,-6.219203948974609,1.0377724170684814,-21.22821807861328,-67.45262145996094, 12.251551628112793
350,2476003495,0.35250384,0.08394923,-0.9038096,0.22764447,7.650052070617676,-2.8124749660491943,4.79937744140625,43.28031921386719,-22.2314510345459, 7.766510009765625
351,2476020162,0.35377017,0.08624174,-0.90162563,0.23341008,5.485233783721924,0.21101537346839905,2.8725926876068115,43.74100112915039,12.732658386230469, -2.247441053390503
352,2476036829,0.36011022,0.08862885,-0.89757544,0.23837775,5.349442481994629,-0.9960535764694214,1.3682974576950073,39.009586334228516,48.08086013793945, -14.011445999145508
353,2476053496,0.3712179,0.09186542,-0.8905376,0.24637593,5.6623711585998535,-0.591837465763092,1.5628681182861328,61.803916931152344,85.34612274169922, -21.378814697265625
354,2476070163,0.38661498,0.0970143,-0.88062817,0.25614667,5.912964820861816,1.4097723960876465,1.5643495321273804,79.69242858886719,116.81172943115234, -37.63351821899414
355,2476086830,0.40658033,0.1023778,-0.8687728,0.2635244,6.603910446166992,1.7193902730941772,1.295035481452942,66.16131591796875,147.66281127929688, -54.62105178833008
356,2476103497,0.43053076,0.10771596,-0.854753,0.26914287,7.1977691650390625,0.7174098491668701,0.33989930152893066,56.70603561401367,176.31942749023438, -68.11418151855469
357,2476120164,0.4577819,0.11343314,-0.83807254,0.2742322,7.786070346832275,0.3554091155529022,-0.4435918629169464,57.20448684692383,202.50238037109375, -79.97550964355469
358,2476136831,0.48788956,0.11936725,-0.8186696,0.27838,8.601189613342285,0.14208965003490448,-0.5844858288764954,55.372501373291016,226.39573669433594, -91.68910217285156
359,2476153498,0.52032185,0.12554853,-0.7963117,0.28176373,9.818013191223145,-0.3417743444442749,-0.8265875577926636,55.65553283691406,248.3051300048828, -102.51038360595703
360,2476170165,0.554418,0.13218217,-0.77065235,0.2850327,11.28172492980957,-1.050075650215149,-1.2113653421401978,61.60945510864258,268.2659606933594, -111.46546173095703
361,2476186832,0.58976144,0.13897505,-0.74155813,0.28802624,12.994580268859863,-1.5073397159576416,-0.8856396079063416,66.36038208007812,287.4276428222656, -118.92208099365234
362,2476203499,0.626271,0.14518267,-0.70902187,0.2898183,14.686982154846191,-2.3733479976654053,-0.315424382686615,63.56149673461914,307.367919921875, -126.4082260131836
363,2476220166,0.6635831,0.14967269,-0.67313856,0.29006952,17.79628562927246,-3.2007195949554443,-0.7256532907485962,54.51737976074219,327.6062927246094, -129.61647033691406
364,2476236833,0.7005426,0.15200104,-0.6345827,0.28886086,20.209583282470703,-4.328739166259766,-1.766513705253601,43.583580017089844,341.01031494140625, -128.32846069335938
365,2476253500,0.734753,0.15304184,-0.59542763,0.2866747,21.345035552978516,-5.816386699676514,-3.551705837249756,37.17691421508789,333.4640808105469, -122.59576416015625
366,2476270167,0.7645363,0.14835776,-0.56019723,0.28222954,19.987226486206055,-10.256301879882812,-6.312106132507324,-4.080677509307861,304.4468688964844, -97.72891998291016
367,2476286834,0.78756535,0.14479338,-0.52703303,0.2846262,15.391412734985352,-12.714957237243652,-9.300676345825195,31.06603240966797,272.4361267089844, -50.90747833251953
368,2476303501,0.80609107,0.13939582,-0.49863985,0.2866088,12.529465675354004,-4.758830547332764,-10.127828598022461,14.814092636108398,233.54135131835938, -33.017974853515625
369,2476320168,0.8217773,0.119914286,-0.4825346,0.27832195,9.943864822387695,-5.596232891082764,-14.858924865722656,-119.94189453125,173.70404052734375, -24.29884147644043
370,2476336835,0.82974535,0.09888704,-0.47845325,0.26986438,5.73448371887207,-10.425849914550781,-20.192251205444336,-145.8549041748047,83.08488464355469, 4.528499603271484
371,2476353502,0.82876605,0.09172647,-0.48331904,0.26671326,4.143272876739502,-9.32075023651123,-19.264015197753906,-59.75119400024414,-19.381664276123047, 11.819220542907715
372,2476370169,0.8203153,0.09103976,-0.4979137,0.26622698,8.27719497680664,-8.534097671508789,-13.983620643615723,-27.096586227416992,-109.72453308105469, 25.280603408813477
373,2476386836,0.80913293,0.10140503,-0.51020247,0.27333945,16.973731994628906,-4.906344890594482,16.674076080322266,67.21598052978516,-121.45735931396484, 33.81276321411133
374,2476403503,0.79641485,0.13006093,-0.51120615,0.29576355,8.479005813598633,9.663307189941406,15.865199089050293,245.0030975341797,-87.8562240600586, 49.82710266113281
375,2476420170,0.7865135,0.13340329,-0.525063,0.2964951,12.682229042053223,5.192325592041016,-10.086223602294922,1.3955843448638916,-116.34254455566406, 25.83592414855957
376,2476436837,0.7731864,0.13834241,-0.5404574,0.30157924,19.78255844116211,-1.7995389699935913,0.3355167806148529,25.752042770385742,-136.21153259277344, 52.04963302612305
377,2476453504,0.7600431,0.13796467,-0.5569241,0.30518147,10.596948623657227,2.8073248863220215,0.6867699027061462,-10.411930084228516,-131.5843048095703, 64.57151794433594
378,2476470171,0.7478174,0.13094401,-0.57470244,0.30551597,11.274303436279297,-6.5065155029296875,-1.482442855834961,-61.26510238647461,-124.09004211425781, 72.28343963623047
379,2476486838,0.7339167,0.13211514,-0.5893466,0.31077716,10.5371675491333,-5.420375347137451,-0.29029232263565063,8.431205749511719,-127.35247039794922, 65.9117660522461
380,2476503505,0.72243106,0.13441649,-0.60048795,0.31534085,7.3843255043029785,-3.6500165462493896,-1.412561058998108,16.60589599609375,-102.93748474121094, 49.44367218017578
381,2476520172,0.71339303,0.13549148,-0.6098249,0.31753132,10.787605285644531,-2.220393180847168,-0.20482206344604492,2.3684561252593994,-83.40338897705078, 35.72959899902344
382,2476536839,0.7057507,0.1331,-0.6187235,0.3184049,10.254868507385254,-0.6043050289154053,-0.9056371450424194,-20.497873306274414,-69.06438446044922, 40.3531494140625
383,2476553506,0.6994139,0.129106,-0.6266303,0.3185695,11.710931777954102,-0.4035353660583496,-0.2201216071844101,-30.31165885925293,-55.84062576293945, 39.97999572753906
384,2476570173,0.69345635,0.123764984,-0.6342134,0.31870684,11.555497169494629,-1.5075597763061523,-0.12633609771728516,-36.532623291015625,-49.72905349731445, 44.55428695678711
385,2476586840,0.68792254,0.11896973,-0.6409178,0.3191132,10.010892868041992,-2.4578588008880615,0.21929681301116943,-31.191612243652344,-44.66636276245117, 41.79392623901367
386,2476603507,0.68272096,0.1158283,-0.64641166,0.3203559,10.273774147033691,-2.8719754219055176,0.014859318733215332,-17.299081802368164,-40.432212829589844, 36.746795654296875
387,2476620174,0.677853,0.11443345,-0.65091544,0.32207054,9.279273986816406,-3.4630677700042725,0.23700471222400665,-5.089003086090088,-37.78214645385742, 29.677135467529297
388,2476636841,0.67323655,0.11287945,-0.65577745,0.3224391,9.504651069641113,-2.72979998588562,0.054191358387470245,-12.846497535705566,-39.04429244995117, 23.836732864379883
389,2476653508,0.6689978,0.1094869,-0.6616121,0.32050622,10.17568302154541,-2.223846673965454,0.32488077878952026,-34.184234619140625,-39.56328201293945, 21.39373016357422
390,2476670175,0.6650801,0.10593341,-0.6671839,0.31829578,10.312621116638184,-2.8222861289978027,0.3649235665798187,-35.851802825927734,-36.75926208496094, 19.95218849182129
391,2476686842,0.6617867,0.10331761,-0.6714699,0.31700495,10.089061737060547,-2.8608155250549316,0.33395710587501526,-24.988780975341797,-29.40958595275879, 17.558340072631836
392,2476703509,0.65904844,0.10117551,-0.6748559,0.31620967,9.700859069824219,-3.098226547241211,0.13473325967788696,-18.980493545532227,-23.44315528869629, 15.780669212341309
393,2476720176,0.6568337,0.09944434,-0.6774922,0.31572908,9.544492721557617,-3.131103754043579,0.11397360265254974,-14.394975662231445,-18.30120277404785, 13.64098072052002
394,2476736843,0.6551238,0.09741425,-0.67975456,0.31505108,9.502241134643555,-2.698341131210327,0.19166383147239685,-16.200578689575195,-13.755945205688477, 12.790810585021973
395,2476753510,0.65372247,0.09457014,-0.6821255,0.31370082,9.552695274353027,-2.7429816722869873,0.09170815348625183,-23.454105377197266,-11.500955581665039, 12.976116180419922
396,2476770177,0.6523747,0.09164813,-0.68442786,0.31235674,9.435898780822754,-2.755042314529419,-0.019519494846463203,-23.66419219970703,-10.7789306640625, 13.213393211364746
397,2476786844,0.6509412,0.08864789,-0.68684447,0.310905,9.337642669677734,-2.898242950439453,0.0026173554360866547,-24.715543746948242,-11.603283882141113, 13.358444213867188
398,2476803511,0.6492655,0.085897096,-0.68935806,0.3096154,9.370662689208984,-3.0763235092163086,0.09459058940410614,-22.896160125732422,-13.62629508972168, 13.486200332641602
399,2476820178,0.6473294,0.08343865,-0.69201565,0.3084109,9.360672950744629,-2.963515520095825,0.04026402160525322,-21.3427734375,-16.085620880126953, 13.121870040893555
400,2476836845,0.64506805,0.08119999,-0.69492835,0.3071946,9.373878479003906,-2.981050968170166,0.023370571434497833,-20.778959274291992,-19.251924514770508, 12.86137580871582
401,2476853512,0.6424728,0.079199724,-0.6980958,0.3059714,9.512648582458496,-3.0597198009490967,0.003399968147277832,-20.108667373657227,-22.493412017822266, 12.541464805603027
402,2476870179,0.63965666,0.07714947,-0.7015231,0.30455372,9.588274955749512,-2.9405312538146973,0.0030511245131492615,-21.692359924316406,-24.712787628173828, 12.530344009399414
403,2476886846,0.63650805,0.07501532,-0.70530677,0.30293998,9.592097282409668,-2.826901435852051,-0.21490080654621124,-23.57945442199707,-27.821210861206055, 12.961199760437012
404,2476903513,0.632953,0.07279652,-0.7094759,0.3011897,9.716412544250488,-2.6890695095062256,-0.1370006799697876,-25.207843780517578,-31.382978439331055, 13.823638916015625
405,2476920180,0.6288361,0.07045381,-0.7141746,0.2992593,9.585070610046387,-2.7365663051605225,-0.08262765407562256,-27.442808151245117,-36.27088165283203, 15.07796573638916
406,2476936847,0.623611,0.06851339,-0.71968555,0.29743546,9.296027183532715,-2.944885015487671,0.24639065563678741,-26.31719207763672,-46.010986328125, 16.24079704284668
407,2476953514,0.61691296,0.06760767,-0.7260637,0.29610702,9.311882972717285,-3.141460418701172,0.25074711441993713,-20.51275634765625,-58.9127197265625, 16.66790771484375
408,2476970181,0.6088477,0.06782164,-0.73312825,0.29534408,9.570022583007812,-2.901211977005005,-0.1114007979631424,-13.706616401672363,-70.67827606201172, 16.58017921447754
409,2476986848,0.59962195,0.06856737,-0.7409516,0.29452115,9.995299339294434,-3.0180749893188477,-0.19847047328948975,-12.785698890686035,-80.82463836669922, 16.36163330078125
410,2477003515,0.58928275,0.06967636,-0.74948967,0.29352412,10.245757102966309,-3.1016595363616943,-0.14973287284374237,-13.099884986877441,-90.27328491210938, 16.388212203979492
411,2477020182,0.57773054,0.07105162,-0.7588147,0.29219785,10.513054847717285,-3.1141061782836914,-0.07165394723415375,-14.727964401245117,-100.42132568359375, 16.51036262512207
412,2477036849,0.56502736,0.07263115,-0.76891464,0.29024032,11.100204467773438,-3.0659027099609375,-0.005736023187637329,-18.20842170715332,-110.23905181884766, 15.631868362426758
413,2477053516,0.55086577,0.07534111,-0.77968633,0.28802785,12.248149871826172,-4.036106586456299,0.5473535656929016,-15.780882835388184,-122.96165466308594, 11.917181968688965
414,2477070183,0.5356203,0.07809118,-0.79071844,0.2859678,13.111748695373535,-2.8194477558135986,1.0715529918670654,-14.773754119873047,-129.7851104736328, 14.563926696777344
415,2477086850,0.5190754,0.080286786,-0.8026337,0.2826554,14.587174415588379,-2.6647679805755615,1.9321198463439941,-24.6700382232666,-139.71775817871094, 16.00837516784668
416,2477103517,0.50175744,0.08171159,-0.8144474,0.2797111,16.815340042114258,-1.780994176864624,3.228060007095337,-24.772987365722656,-141.96238708496094, 23.039642333984375
417,2477120184,0.48499012,0.080662295,-0.8259889,0.2757188,18.129281997680664,0.5769270062446594,4.320751190185547,-38.971412658691406,-133.82850646972656, 32.09452819824219
418,2477136851,0.4711569,0.075545385,-0.8366192,0.26902112,18.06478500366211,1.3218199014663696,6.2623395919799805,-67.80467224121094,-107.98614501953125, 40.14781951904297
419,2477153518,0.46065032,0.066757485,-0.8457442,0.26088613,13.811372756958008,-0.21948637068271637,1.2994370460510254,-86.91651153564453,-78.01492309570312, 49.71539306640625
420,2477170185,0.441845,0.057626415,-0.8600696,0.24846052,11.369403839111328,-6.262598991394043,-8.567204475402832,-118.48079681396484,-144.15625, 55.41535568237305
421,2477186852,0.41854528,0.057249043,-0.87244666,0.24572206,14.33752155303955,-4.3621110916137695,-3.8683831691741943,-29.480091094970703,-175.9097137451172, 39.96607208251953
422,2477203519,0.39719096,0.058201972,-0.883223,0.24242333,11.146307945251465,-2.908324718475342,-0.8526358008384705,-27.07063102722168,-162.11927795410156, 26.458959579467773
423,2477220186,0.38021407,0.057264615,-0.8925911,0.23545538,8.571959495544434,-3.9310548305511475,-0.8016729354858398,-53.923248291015625,-130.0322723388672, 20.060699462890625
424,2477236853,0.36931118,0.055094898,-0.899665,0.22622357,7.675225734710693,-5.493358135223389,0.7077635526657104,-69.7259292602539,-85.67206573486328, 10.959542274475098
425,2477253520,0.36486584,0.053804114,-0.9027243,0.22151072,7.622977256774902,-4.65806770324707,3.721261978149414,-35.76646041870117,-35.21397399902344, 5.415501594543457
426,2477270187,0.36491457,0.05297501,-0.90331656,0.2192043,5.577966690063477,-1.8262724876403809,2.9040794372558594,-17.609607696533203,-0.9844635725021362, 0.8215346336364746
427,2477286854,0.36892775,0.053162295,-0.9018258,0.21857882,4.7231035232543945,-2.4730641841888428,1.3592798709869385,-2.937734365463257,27.91730499267578, -8.008655548095703
428,2477303521,0.37678215,0.05513586,-0.8974864,0.2225169,5.270843982696533,-2.851593255996704,1.0095423460006714,32.7529182434082,57.93199920654297, -14.326081275939941
429,2477320188,0.38824505,0.059395973,-0.8901261,0.23111375,5.087254524230957,-1.955950140953064,0.9982109665870667,70.66647338867188,86.28280639648438, -23.033376693725586
430,2477336855,0.40330726,0.06568607,-0.8801854,0.24145855,5.4963297843933105,-1.0369019508361816,1.2963066101074219,89.40784454345703,112.68146514892578, -37.55842590332031
431,2477353522,0.4220057,0.072752126,-0.86812806,0.25094238,6.085597515106201,-1.1356271505355835,1.1912192106246948,88.22074127197266,138.8719940185547, -51.62432861328125
432,2477370189,0.4439307,0.08044265,-0.8538276,0.25967893,6.604928493499756,-2.0995821952819824,0.36464643478393555,87.82781219482422,163.1815185546875, -64.19893646240234
433,2477386856,0.46864125,0.088702604,-0.8370469,0.2680668,7.3258185386657715,-2.181943416595459,-0.13765759766101837,90.40585327148438,185.89501953125, -74.94756317138672
434,2477403523,0.49606234,0.096436955,-0.8179515,0.27491364,8.171916007995605,-2.553892135620117,-0.2840532660484314,82.45763397216797,208.98544311523438, -83.29257202148438
435,2477420190,0.5256425,0.10401727,-0.7962563,0.28081363,9.15464973449707,-2.910137414932251,-0.5771660208702087,80.08959197998047,229.6650390625, -91.46055603027344
436,2477436857,0.55674034,0.111556806,-0.7718793,0.2860031,10.536413192749023,-3.2644970417022705,-0.888512134552002,80.14789581298828,247.2453155517578, -98.65685272216797
437,2477453524,0.58913916,0.1188741,-0.7445099,0.29067022,11.792285919189453,-3.7114369869232178,-0.37789303064346313,81.41292572021484,265.65838623046875, -104.33509063720703
438,2477470191,0.6227515,0.12519895,-0.7142051,0.2939679,13.442431449890137,-3.972764253616333,-0.1597716212272644,75.25951385498047,284.64208984375, -109.63419342041016
439,2477486858,0.6572902,0.12945214,-0.6812957,0.29503885,15.718926429748535,-4.120025157928467,-0.20774424076080322,59.92112731933594,302.6348571777344, -113.12163543701172
440,2477503525,0.6920622,0.13023627,-0.64642686,0.29363388,17.53363609313965,-5.095325469970703,-0.7920675873756409,36.408138275146484,317.4432373046875, -110.28939819335938
441,2477520192,0.7251428,0.12863567,-0.61038655,0.29163203,18.77131462097168,-6.822385311126709,-3.225942611694336,26.29105567932129,319.8103942871094, -100.18096160888672
442,2477536859,0.75471604,0.12505685,-0.5749722,0.29012325,19.37455177307129,-7.780200958251953,-5.013089656829834,20.358442306518555,306.4209899902344, -81.86038970947266
443,2477553526,0.7803988,0.11850591,-0.54130673,0.28969133,17.550996780395508,-8.235688209533691,-6.10545539855957,9.069978713989258,288.89544677734375, -55.2911376953125
444,2477570193,0.80171955,0.1097555,-0.51069194,0.29050532,14.66331958770752,-6.260250091552734,-8.670818328857422,-0.5896461009979248,261.7729187011719, -29.287328720092773
445,2477586860,0.81891805,0.094828986,-0.48748893,0.28763777,12.068218231201172,-4.780636310577393,-12.51661491394043,-59.229713439941406,216.09945678710938, -14.096009254455566
446,2477603527,0.8303405,0.07709745,-0.47393802,0.28279608,8.875924110412598,-8.472691535949707,-16.97768211364746,-96.92711639404297,146.774658203125, 1.8915187120437622
447,2477620194,0.83359396,0.06956722,-0.46921286,0.2830564,5.879607200622559,-8.280887603759766,-19.05621910095215,-34.83235168457031,52.78215408325195, 18.295024871826172
448,2477636861,0.82937604,0.070615984,-0.47476575,0.28591317,5.622454643249512,-6.082172393798828,-17.28069305419922,6.338761806488037,-45.53356170654297, 24.90959358215332
449,2477653528,0.8179526,0.075433,-0.49052832,0.2909391,7.958812713623047,-7.2464518547058105,-16.075214385986328,18.377788543701172,-133.51052856445312, 44.06511688232422
450,2477670195,0.8038778,0.08579901,-0.5063214,0.30009618,18.12398338317871,-5.812225341796875,12.009462356567383,64.87699890136719,-151.46783447265625, 53.85306167602539
451,2477686862,0.7909257,0.119856425,-0.50306696,0.3271005,10.611357688903809,6.351409912109375,28.338720321655273,296.6746826171875,-80.70500183105469, 56.434776306152344
452,2477703529,0.7802594,0.13054381,-0.51247394,0.33395243,8.572121620178223,11.54863452911377,-9.447064399719238,69.36598205566406,-105.88040924072266, 33.004573822021484
453,2477720196,0.7687428,0.13690399,-0.52615434,0.33682844,20.572948455810547,-1.0451020002365112,-3.2183644771575928,23.075891494750977,-125.35855102539062, 32.80778503417969
454,2477736863,0.7561958,0.1416229,-0.539796,0.34165967,12.425077438354492,8.651479721069336,3.63226318359375,22.546180725097656,-123.1687240600586, 51.44339370727539
455,2477753530,0.74704057,0.12904994,-0.55861515,0.33649036,10.25892162322998,-4.254542827606201,-1.171226978302002,-119.9663314819336,-106.63629913330078, 60.791648864746094
456,2477770197,0.7356063,0.12204263,-0.57484525,0.33696023,11.261417388916016,-12.284363746643066,-3.202068567276001,-61.68445587158203,-109.94536590576172, 71.34561920166016
457,2477786864,0.7236226,0.12810403,-0.5852502,0.3426983,10.398201942443848,-5.337976932525635,0.020780950784683228,39.22356414794922,-108.4765853881836, 42.6411247253418
458,2477803531,0.7137977,0.13204457,-0.5943627,0.3461073,8.585527420043945,-1.2229374647140503,-0.6257247924804688,20.448678970336914,-90.41230010986328, 33.33325958251953
459,2477820198,0.7058331,0.13289292,-0.6027791,0.34755814,10.690065383911133,-1.7756506204605103,-0.23946884274482727,-2.761047840118408,-73.81420135498047, 31.30607032775879
460,2477836865,0.6992623,0.13097048,-0.6107813,0.34759942,10.479628562927246,-0.9173668622970581,-0.2914929986000061,-22.33126449584961,-60.69486618041992, 32.249549865722656
461,2477853532,0.69364405,0.12677732,-0.6184589,0.34683436,11.508336067199707,-1.3868803977966309,0.23930665850639343,-36.71474075317383,-50.43675231933594, 35.35906982421875
462,2477870199,0.68866014,0.12191864,-0.6256224,0.34565905,10.558753967285156,-2.6129112243652344,0.20600426197052002,-40.958011627197266,-44.06402587890625, 34.29179000854492
463,2477886866,0.68379647,0.118780546,-0.6315379,0.34564942,10.210628509521484,-2.766815185546875,0.45805108547210693,-24.930522918701172,-40.75696563720703, 31.085494995117188
464,2477903533,0.67938876,0.11742255,-0.63630867,0.34605518,9.856229782104492,-3.550410747528076,0.4859224557876587,-12.409817695617676,-37.29678726196289, 23.294700622558594
465,2477920200,0.67539585,0.11667548,-0.64071107,0.3460013,9.52170467376709,-2.9861721992492676,0.7851492762565613,-11.02734375,-35.59739303588867, 17.1874942779541
466,2477936867,0.67214644,0.11433003,-0.6455214,0.3441658,9.972006797790527,-2.2382233142852783,0.43314820528030396,-27.867687225341797,-31.856781005859375, 14.516247749328613
467,2477953534,0.66943085,0.11068148,-0.6504464,0.34136733,10.039731979370117,-2.360596179962158,0.449188768863678,-38.85697555541992,-27.701139450073242, 14.687828063964844
468,2477970201,0.6671011,0.107216775,-0.65478146,0.33873588,9.809149742126465,-3.072071075439453,0.4862065017223358,-36.175724029541016,-23.576250076293945, 13.291069030761719
469,2477986868,0.6649149,0.10482401,-0.6582871,0.3369844,9.438209533691406,-3.339782476425171,0.5887330770492554,-25.47435760498047,-20.98384666442871, 11.560001373291016
470,2478003535,0.6629019,0.10309308,-0.6612075,0.33576417,9.388968467712402,-3.0470473766326904,0.40344321727752686,-18.816192626953125,-18.688243865966797, 10.170312881469727
471,2478020202,0.6610254,0.101231195,-0.6639815,0.3345539,9.316033363342285,-2.6949784755706787,0.5427876710891724,-19.130046844482422,-17.10167121887207, 10.394461631774902
472,2478036869,0.6591766,0.098671556,-0.66704714,0.332864,9.268722534179688,-2.7064545154571533,0.5135922431945801,-25.18403434753418,-17.042865753173828, 11.545023918151855
473,2478053536,0.6571029,0.09617972,-0.67028964,0.33117563,9.259139060974121,-3.085923671722412,0.5472010970115662,-25.126461029052734,-19.043872833251953, 11.881181716918945
474,2478070203,0.6548527,0.09372836,-0.6736469,0.32951903,9.240389823913574,-2.8873565196990967,0.38681361079216003,-24.945438385009766,-20.460403442382812, 12.318573951721191
475,2478086870,0.6523064,0.09137744,-0.6772486,0.32784313,9.35155963897705,-2.957364559173584,0.2663225829601288,-24.949369430541992,-23.185400009155273, 12.598772048950195
476,2478103537,0.6493877,0.08919902,-0.6810632,0.32633147,9.377370834350586,-3.0024783611297607,0.2804354131221771,-23.66034507751465,-26.172544479370117, 13.508927345275879
477,2478120204,0.6460833,0.08714618,-0.68518597,0.32481134,9.308523178100586,-3.1215577125549316,0.39849093556404114,-23.598051071166992,-29.654748916625977, 13.940759658813477
478,2478136871,0.6422169,0.08547358,-0.6896715,0.32342705,9.284711837768555,-3.32119083404541,0.35533004999160767,-21.746671676635742,-34.69547653198242, 14.226879119873047
479,2478153538,0.63782465,0.084219575,-0.6944263,0.32227197,9.46828556060791,-3.189811944961548,0.4076295793056488,-19.10538673400879,-39.18804168701172, 14.582232475280762
480,2478170205,0.6327967,0.08306307,-0.6997023,0.32106933,9.583663940429688,-2.9082205295562744,0.22585538029670715,-19.696453094482422,-44.76811218261719, 15.620491027832031
481,2478186872,0.62693274,0.082169324,-0.70557487,0.31994933,9.58980655670166,-2.7934303283691406,0.16405372321605682,-18.99858856201172,-51.93130111694336, 16.9063720703125
482,2478203539,0.6200299,0.08174078,-0.7121886,0.31885576,9.820832252502441,-2.6764297485351562,0.18403500318527222,-17.912199020385742,-61.1883659362793, 17.47236442565918
483,2478220206,0.61190486,0.08200962,-0.71956116,0.31792843,9.975021362304688,-2.876204490661621,0.17034676671028137,-15.105226516723633,-71.85986328125, 17.878196716308594
484,2478236873,0.602541,0.08290608,-0.727649,0.31717253,10.192870140075684,-2.67574143409729,-0.07749343663454056,-12.48525619506836,-82.28994750976562, 18.610803604125977
485,2478253540,0.5919223,0.0844068,-0.7365436,0.31623903,10.129232406616211,-3.1667613983154297,-0.09146706014871597,-11.916962623596191,-93.34552001953125, 18.05536651611328
486,2478270207,0.5800711,0.08651197,-0.7461926,0.31500816,10.323775291442871,-3.3801767826080322,0.1106492280960083,-11.891500473022461,-104.16069030761719, 16.903789520263672
487,2478286874,0.5669626,0.088792324,-0.7567003,0.31316796,10.790480613708496,-3.0682880878448486,0.3055347800254822,-15.43769645690918,-114.79914093017578, 16.811302185058594
488,2478303541,0.55261075,0.09111871,-0.7680249,0.31057468,11.72441291809082,-3.0562968254089355,0.06497977674007416,-20.181739807128906,-125.0364761352539, 16.819091796875
489,2478320208,0.5368253,0.094237395,-0.7798474,0.30785695,13.211320877075195,-3.6743385791778564,0.8651198148727417,-17.998809814453125,-136.2953643798828, 15.54428768157959
490,2478336875,0.5202841,0.09655149,-0.7919107,0.30472922,14.12829303741455,-2.264026641845703,1.2350413799285889,-23.19689178466797,-139.83692932128906, 20.111038208007812
491,2478353542,0.5029184,0.097965635,-0.8044441,0.30057594,15.796570777893066,-1.9670698642730713,2.334650993347168,-32.44416427612305,-144.8505859375, 23.40534210205078
492,2478370209,0.4856857,0.097505614,-0.8167158,0.295935,17.858810424804688,-0.4918706715106964,3.8707265853881836,-41.180274963378906,-139.72744750976562, 31.66474723815918
493,2478386876,0.47019628,0.09340531,-0.82872427,0.28880295,18.19287109375,2.2740225791931152,4.644810199737549,-67.9674072265625,-123.40533447265625, 40.10945129394531
494,2478403543,0.45902357,0.08443647,-0.8397592,0.2774392,17.033126831054688,1.643437147140503,5.985007286071777,-108.66047668457031,-88.80802917480469, 45.03282928466797
495,2478420210,0.44802576,0.071436115,-0.8520357,0.2611613,10.760137557983398,-3.100571632385254,-3.8641977310180664,-152.244384765625,-86.99162292480469, 53.235172271728516
496,2478436877,0.4275946,0.0638026,-0.8673052,0.24672642,11.71802043914795,-8.614376068115234,-7.743453025817871,-125.6541976928711,-160.23228454589844, 45.871421813964844
497,2478453544,0.4060307,0.06378845,-0.8791854,0.24104638,12.871248245239258,-3.8379952907562256,-1.885982871055603,-44.79657745361328,-166.08892822265625, 26.569578170776367
498,2478470211,0.38865831,0.062951416,-0.888934,0.23404777,9.500636100769043,-4.3291521072387695,-0.5439225435256958,-53.37403869628906,-134.04925537109375, 19.9824275970459
499,2478486878,0.3765513,0.061152216,-0.8964355,0.22555055,8.344871520996094,-6.031377792358398,-0.27643078565597534,-63.783538818359375,-94.99320220947266, 12.402420997619629
500,2478503545,0.37163234,0.059212912,-0.89994967,0.22016796,5.880311012268066,-5.75770378112793,3.106832265853882,-41.8159065246582,-38.868614196777344, 8.48464584350586
501,2478520212,0.37211996,0.059065193,-0.8996632,0.22055413,6.200510501861572,-2.5712227821350098,5.095949172973633,1.9641932249069214,3.8968381881713867, 2.3875200748443604
502,2478536879,0.37681586,0.059362445,-0.8976214,0.22082086,3.9173357486724854,-1.9589601755142212,2.0225555896759033,3.286308526992798,33.644832611083984, -7.7640485763549805
503,2478553546,0.38525707,0.06114214,-0.89295495,0.22465616,4.714658260345459,-3.365525007247925,1.0830942392349243,31.592281341552734,62.74824523925781, -14.42839527130127
504,2478570213,0.39712667,0.06490268,-0.8849206,0.23450767,5.246037006378174,-2.702552080154419,1.1114935874938965,77.51866912841797,92.177001953125, -17.369312286376953
505,2478586880,0.41254362,0.07094612,-0.8737583,0.24763055,5.3994669914245605,-0.996682345867157,1.5019675493240356,107.10420227050781,120.07154083251953, -29.436708450317383
506,2478603547,0.4315088,0.078244254,-0.8602725,0.26001766,6.27559232711792,-0.49205055832862854,1.472266435623169,108.4676284790039,145.4712677001953, -46.22157669067383
507,2478620214,0.45395482,0.08548481,-0.84481126,0.27002138,7.090892314910889,-1.4724041223526,0.7535809874534607,95.85846710205078,170.72862243652344, -60.21873092651367
508,2478636881,0.47953537,0.092998885,-0.82669944,0.27922314,7.666675090789795,-2.095590829849243,0.1472093015909195,95.131103515625,196.2241668701172, -71.67578125
509,2478653548,0.50784653,0.10023171,-0.80607975,0.2868465,8.7645902633667,-1.6061540842056274,0.030764669179916382,88.29913330078125,219.5448455810547, -82.12113189697266
510,2478670215,0.5386566,0.10610362,-0.78318274,0.29191807,9.997245788574219,-1.963188886642456,-0.33806201815605164,72.17327880859375,242.27366638183594, -89.97782897949219
511,2478686882,0.5712417,0.111396275,-0.757481,0.29579824,11.272501945495605,-2.7103991508483887,-0.8411964178085327,67.94705963134766,262.5218811035156, -96.87421417236328
512,2478703549,0.6051172,0.1163573,-0.72861266,0.2990281,12.9821195602417,-2.8873164653778076,-0.348045289516449,68.71528625488281,281.8739929199219, -102.75322723388672
513,2478720216,0.6401287,0.119715296,-0.6968843,0.30042616,14.535943984985352,-3.154409170150757,0.03684490919113159,57.840023040771484,301.3158874511719, -106.96994018554688
514,2478736883,0.6757617,0.12084021,-0.66241354,0.29992032,16.96381950378418,-4.058050155639648,-0.23623895645141602,44.034732818603516,319.43603515625, -108.19728088378906
515,2478753550,0.7106798,0.120212756,-0.62541604,0.29889464,18.986709594726562,-4.348900318145752,-1.5081455707550049,39.334259033203125,331.1363525390625, -103.2677230834961
516,2478770217,0.7433723,0.116877906,-0.5878709,0.29689252,20.333641052246094,-5.954200267791748,-2.353306770324707,24.870819091796875,329.04632568359375, -92.28595733642578
517,2478786884,0.7724892,0.10912497,-0.5520996,0.29417387,20.008398056030273,-7.693394184112549,-7.19485330581665,-1.3465021848678589,314.0303039550781, -69.38735961914062
518,2478803551,0.79600704,0.099834695,-0.52005124,0.29317656,16.532697677612305,-9.119550704956055,-8.745298385620117,-6.278261184692383,277.5063171386719, -40.329322814941406
519,2478820218,0.8143638,0.09143949,-0.49181274,0.29422903,13.126872062683105,-6.509666442871094,-10.975411415100098,1.8578253984451294,237.9280242919922, -19.35023307800293
520,2478836885,0.82788914,0.07945394,-0.4722111,0.29206756,10.692546844482422,-5.944002151489258,-14.62704849243164,-43.51021194458008,178.607666015625, -10.040148735046387
521,2478853552,0.83478147,0.06763131,-0.46325144,0.28976542,7.515274524688721,-8.291029930114746,-18.60333824157715,-60.73187255859375,96.2514419555664, 7.735820293426514
522,2478870219,0.83378905,0.0641754,-0.46501523,0.29058245,5.150228500366211,-7.220902442932129,-18.927377700805664,-20.406709671020508,-5.445698261260986, 19.63079071044922
523,2478886886,0.82557523,0.06745551,-0.47708818,0.29370454,7.01016092300415,-7.11657190322876,-16.160236358642578,8.23179817199707,-99.91116333007812, 30.23582649230957
524,2478903553,0.81316435,0.07642289,-0.4926175,0.30041894,15.061992645263672,-5.83733606338501,6.423219203948975,47.3216667175293,-142.97860717773438, 41.993534088134766
525,2478920220,0.8010764,0.10535948,-0.49334562,0.3221584,13.002193450927734,4.536466598510742,23.138933181762695,240.32009887695312,-92.50812530517578, 49.87316131591797
526,2478936887,0.78963614,0.116704114,-0.50439304,0.3293063,8.560850143432617,8.947154998779297,-7.467571258544922,70.49685668945312,-118.90324401855469, 35.24800491333008
527,2478953554,0.77759326,0.123477794,-0.5191226,0.3325865,19.215274810791016,-0.17836353182792664,-2.4762721061706543,24.39797019958496,-133.66224670410156, 34.505123138427734
528,2478970221,0.7645918,0.12658265,-0.53507644,0.33625832,12.922933578491211,5.096456527709961,2.3016881942749023,4.208279609680176,-134.8303985595703, 52.948577880859375
529,2478986888,0.75354517,0.12009259,-0.55328894,0.33409396,10.366340637207031,-2.985358953475952,-0.25283128023147583,-74.636962890625,-122.4072265625, 55.08308029174805
530,2479003555,0.7418988,0.11515978,-0.5695689,0.33453837,9.361083984375,-8.03791618347168,0.07993176579475403,-51.69063186645508,-116.08502197265625, 62.45503234863281
531,2479020222,0.7302239,0.117723316,-0.5814335,0.33889464,9.21483325958252,-6.8821492195129395,-2.361778736114502,12.06811237335205,-107.81211853027344, 49.5633430480957
532,2479036889,0.72073483,0.12272833,-0.5899654,0.34266597,9.763476371765137,-2.0612807273864746,0.05444490909576416,28.00251007080078,-88.4792251586914, 29.024517059326172
533,2479053556,0.71278644,0.1243006,-0.5981204,0.3445824,9.78885555267334,-2.2819509506225586,-0.07888180017471313,3.0578277111053467,-73.84136199951172, 29.80661392211914
534,2479070223,0.7061817,0.12411306,-0.60559815,0.34518743,10.7824068069458,-0.24640169739723206,0.09545113146305084,-10.501097679138184,-61.94966125488281, 26.856361389160156
535,2479086890,0.700179,0.120300435,-0.6136509,0.3445433,11.947964668273926,-0.6785677075386047,0.08878093212842941,-35.17949676513672,-54.700050354003906, 34.97397232055664
536,2479103557,0.6941362,0.11566,-0.6214816,0.34432343,10.597757339477539,-2.060812473297119,0.42042285203933716,-36.811302185058594,-51.492164611816406, 40.4495849609375
537,2479120224,0.6883903,0.112441085,-0.6281113,0.34489453,9.907912254333496,-2.942312717437744,0.3550514578819275,-24.035829544067383,-47.237464904785156, 36.504817962646484
538,2479136891,0.68282974,0.11083588,-0.63400495,0.34568334,9.686238288879395,-3.440467596054077,0.6878757476806641,-13.853490829467773,-46.62151336669922, 29.557756423950195
539,2479153558,0.6779337,0.11044282,-0.6391618,0.34594873,9.274018287658691,-3.6980502605438232,0.49760961532592773,-9.200593948364258,-43.55931854248047, 19.671363830566406
540,2479170225,0.6735077,0.10940846,-0.64451826,0.34498346,9.739461898803711,-2.770559310913086,-0.03271128609776497,-18.43140983581543,-41.84578323364258, 15.780877113342285
541,2479186892,0.6694232,0.107286505,-0.6502717,0.34279597,10.234017372131348,-2.353057861328125,-0.431366890668869,-30.08296775817871,-40.5185546875, 14.43465518951416
542,2479203559,0.6654291,0.104952626,-0.6559012,0.3405626,10.18338394165039,-2.555100679397583,0.09654460847377777,-31.036373138427734,-39.083152770996094, 14.879426002502441
543,2479220226,0.66174036,0.10320533,-0.6607511,0.33890474,9.923328399658203,-3.0237326622009277,0.31879329681396484,-24.154701232910156,-35.10746383666992, 13.59871768951416
544,2479236893,0.6585172,0.10206384,-0.6646708,0.33786225,9.60033893585205,-3.1847310066223145,0.3135252594947815,-16.76853370666504,-29.74749183654785, 11.90516471862793
545,2479253560,0.6558369,0.1010594,-0.66787094,0.33706605,9.50062084197998,-3.049229383468628,0.231374591588974,-13.735185623168945,-24.16718292236328, 10.629426002502441
546,2479270227,0.6536971,0.09957584,-0.6706923,0.33606055,9.514726638793945,-2.8166165351867676,0.09785132110118866,-16.35805320739746,-19.025829315185547, 10.372550010681152
547,2479286894,0.65179646,0.09755862,-0.67342395,0.33487955,9.578278541564941,-2.7810866832733154,0.12168466299772263,-19.525108337402344,-16.41962432861328, 11.436247825622559
548,2479303561,0.64989233,0.095319934,-0.67616993,0.333689,9.485329627990723,-2.798658609390259,0.09309715032577515,-20.595651626586914,-16.010286331176758, 12.442959785461426
549,2479320228,0.6477921,0.09301155,-0.679071,0.33253133,9.347224235534668,-2.8660552501678467,0.10841046273708344,-20.985153198242188,-17.448270797729492, 13.472046852111816
550,2479336895,0.64536977,0.09116284,-0.6820599,0.33163488,9.380438804626465,-3.0695159435272217,0.08214046061038971,-17.716318130493164,-20.24068832397461, 13.286238670349121
551,2479353562,0.6427508,0.08943466,-0.6852127,0.33069095,9.361349105834961,-3.2626214027404785,0.05021161586046219,-17.65846824645996,-22.210411071777344, 13.065075874328613
552,2479370229,0.63994056,0.08791227,-0.6884846,0.32975253,9.440738677978516,-2.9910528659820557,0.05854366719722748,-16.880239486694336,-24.116378784179688, 12.62913703918457
553,2479386896,0.6367709,0.08633884,-0.69223285,0.32845464,9.583935737609863,-2.943589687347412,0.12845024466514587,-19.673192977905273,-28.0299129486084, 12.39577865600586
554,2479403563,0.63303936,0.08479992,-0.69648814,0.32706976,9.465777397155762,-3.046952962875366,0.28017374873161316,-20.751815795898438,-33.069801330566406, 13.425393104553223
555,2479420230,0.6284485,0.08354839,-0.70140934,0.32572544,9.428559303283691,-2.8378474712371826,0.15685051679611206,-20.308544158935547,-40.72425842285156, 14.550261497497559
556,2479436897,0.62291294,0.08256662,-0.7071244,0.324249,9.56412410736084,-2.7364962100982666,0.15805085003376007,-21.01915168762207,-49.407962799072266, 15.255571365356445
557,2479453564,0.61623836,0.08217292,-0.7136973,0.3226984,9.786178588867188,-2.8184127807617188,0.24687090516090393,-20.130996704101562,-59.99134063720703, 15.110713005065918
558,2479470231,0.6083394,0.082442775,-0.72109324,0.32117155,10.089386940002441,-2.755391836166382,0.08190298825502396,-18.342870712280273,-70.9645004272461, 15.142367362976074
559,2479486898,0.5992366,0.08322816,-0.72935784,0.3194149,10.407374382019043,-2.732682466506958,-0.07195903360843658,-18.565210342407227,-81.8565673828125, 14.783073425292969
560,2479503565,0.5888959,0.0848679,-0.73829436,0.3176799,10.534163475036621,-3.1572959423065186,-0.1670779585838318,-15.70846176147461,-92.71614837646484, 13.698138236999512
561,2479520232,0.5775097,0.086891554,-0.7479654,0.3154051,10.788203239440918,-3.208540678024292,0.1112927496433258,-17.891464233398438,-102.1722640991211, 12.28035831451416
562,2479536899,0.5650269,0.089079626,-0.7583124,0.312685,11.035735130310059,-3.0023465156555176,0.08105823397636414,-20.34637451171875,-111.1449203491211, 12.453211784362793
563,2479553566,0.551384,0.09167126,-0.76944655,0.30906993,11.780488014221191,-3.445215940475464,0.16713613271713257,-24.432504653930664,-121.69733428955078, 9.855709075927734
564,2479570233,0.53625214,0.09554945,-0.78065926,0.30639094,12.894367218017578,-3.7955985069274902,1.0982950925827026,-13.838573455810547,-132.05023193359375, 9.817658424377441
565,2479586900,0.5206279,0.09835824,-0.79228574,0.30258143,13.773544311523438,-1.9878687858581543,1.1660211086273193,-24.412168502807617,-134.75479125976562, 12.706391334533691
566,2479603567,0.5042455,0.100501515,-0.80425805,0.29800165,15.596705436706543,-2.367548942565918,2.7153468132019043,-31.20351791381836,-139.31442260742188, 15.411008834838867
567,2479620234,0.48891124,0.10080773,-0.81531477,0.29336923,18.017290115356445,-0.168161079287529,4.796354293823242,-36.72519302368164,-126.69084167480469, 22.636133193969727
568,2479636901,0.47739267,0.09659891,-0.8251959,0.28603646,17.829635620117188,2.447054386138916,6.50230598449707,-67.32733917236328,-94.21839141845703, 30.412500381469727
569,2479653568,0.46679556,0.08802542,-0.83613133,0.27429542,14.721465110778809,1.1201426982879639,5.333234786987305,-109.3604965209961,-86.92694091796875, 39.66370391845703
570,2479670235,0.45072013,0.07696418,-0.8511479,0.25782794,9.896768569946289,-5.092355251312256,-7.082891464233398,-148.921875,-129.8098602294922, 51.64182662963867
571,2479686902,0.42671147,0.074691445,-0.86596996,0.24986942,14.16152572631836,-7.280977249145508,-8.019034385681152,-67.32563018798828,-186.70155334472656, 40.50979232788086
572,2479703569,0.4029432,0.07618088,-0.8782248,0.24607873,13.523614883422852,-4.432350158691406,-1.8203473091125488,-27.181943893432617,-182.0541229248047, 28.584686279296875
573,2479720236,0.38376164,0.07592995,-0.888339,0.2404484,9.468259811401367,-3.8430724143981934,0.16536054015159607,-41.898155212402344,-146.4919891357422, 25.112485885620117
574,2479736903,0.37101555,0.07368503,-0.8963679,0.2311767,8.320784568786621,-4.928903579711914,1.3440436124801636,-69.33390045166016,-100.32878112792969, 15.94929313659668
575,2479753570,0.3651142,0.07152204,-0.90051764,0.22504331,8.027908325195312,-5.537682056427002,4.035408973693848,-47.116092681884766,-46.83779525756836, 10.585455894470215
576,2479770237,0.3639627,0.07006807,-0.9015007,0.22342399,6.332772731781006,-2.9507973194122314,4.4644598960876465,-14.881331443786621,-8.420235633850098, 8.609457015991211
577,2479786904,0.36755028,0.068890914,-0.90019107,0.22319725,4.947335720062256,-2.176025390625,2.8318233489990234,-4.353132724761963,26.878807067871094, 1.989362359046936
578,2479803571,0.37556705,0.06838021,-0.8962485,0.22585931,5.484019756317139,-2.0467512607574463,2.18717360496521,17.127079010009766,61.25773239135742, -2.8805735111236572
579,2479820238,0.38760096,0.069197394,-0.8893847,0.2323189,5.469878196716309,-2.062859535217285,1.8427671194076538,46.58389663696289,93.25003051757812, -8.865907669067383
580,2479836905,0.4034479,0.072408974,-0.87929046,0.24255997,5.697572231292725,-1.565298080444336,1.6305270195007324,79.41773223876953,123.12924194335938, -21.050241470336914
581,2479853572,0.42321557,0.07739896,-0.86624074,0.25401816,6.120376110076904,-0.8236210346221924,1.6909432411193848,94.67713165283203,152.65493774414062, -36.424293518066406
582,2479870239,0.44686878,0.08291562,-0.85052484,0.26465228,6.594863414764404,-1.1158857345581055,1.2771539688110352,93.88404846191406,182.1825408935547, -50.145599365234375
583,2479886906,0.47400942,0.08833719,-0.8322117,0.27374333,7.360968112945557,-1.3071101903915405,0.6459440588951111,87.29884338378906,209.8418426513672, -62.14159393310547
584,2479903573,0.50429523,0.093259156,-0.8112644,0.28078356,8.407242774963379,-1.3652616739273071,0.1179274171590805,76.9767837524414,236.1156768798828, -73.47451782226562
585,2479920240,0.5372092,0.097607315,-0.7874161,0.28610358,9.68850040435791,-1.8096944093704224,-0.5783829689025879,69.30987548828125,260.8402404785156, -83.16565704345703
586,2479936907,0.5719996,0.102099374,-0.76009774,0.29093614,11.373390197753906,-2.210859775543213,-0.7743224501609802,72.7674331665039,283.22308349609375, -91.75946807861328
587,2479953574,0.60826886,0.106567785,-0.72904044,0.29521635,13.319915771484375,-2.6542885303497314,-0.39350223541259766,76.232666015625,305.3401794433594, -99.38863372802734
588,2479970241,0.6456334,0.110015854,-0.6944678,0.29794067,15.28971004486084,-2.902421474456787,-0.24767380952835083,70.4939956665039,326.4925231933594, -105.57981872558594
589,2479986908,0.68351465,0.11167567,-0.6564587,0.29899552,18.35206413269043,-3.9354639053344727,-0.578698456287384,61.23550796508789,346.6517333984375, -108.11178588867188
590,2480003575,0.7200087,0.11215992,-0.6160409,0.2991679,20.734209060668945,-4.852406024932861,-2.2521798610687256,57.74022674560547,353.4933776855469, -105.95760345458984
591,2480020242,0.75284207,0.110279426,-0.57611614,0.2985922,22.128326416015625,-7.443765640258789,-4.551337242126465,44.683101654052734,339.8883361816406, -91.73851013183594
592,2480036909,0.78061235,0.10432366,-0.5397228,0.297423,20.35923957824707,-10.232573509216309,-8.896597862243652,17.83063316345215,309.5572509765625, -65.6293716430664
593,2480053576,0.80166197,0.100156106,-0.50659615,0.30111045,15.144898414611816,-9.428845405578613,-9.783524513244629,43.63931655883789,267.0564880371094, -30.17723846435547
594,2480070243,0.8177605,0.09465542,-0.4795402,0.30389068,11.738425254821777,-3.3874146938323975,-13.213569641113281,24.018281936645508,218.63153076171875, -16.173810958862305
595,2480086910,0.8290034,0.080431476,-0.46520752,0.29977706,9.5177001953125,-7.057202339172363,-18.966144561767578,-71.15050506591797,144.99240112304688, -7.761722087860107
596,2480103577,0.8315083,0.07196234,-0.462332,0.2994407,5.656975269317627,-9.293705940246582,-22.24131965637207,-44.97528076171875,42.183189392089844, 19.66038703918457
597,2480120244,0.826262,0.07275376,-0.4708669,0.3004703,6.070281505584717,-6.9749755859375,-18.337623596191406,-7.259108066558838,-65.85401916503906, 19.562908172607422
598,2480136911,0.81446713,0.07786189,-0.4882584,0.30361968,11.224666595458984,-7.966449737548828,-5.109857082366943,9.174161911010742,-145.0517120361328, 35.53335952758789
599,2480153578,0.8024322,0.1040918,-0.49235782,0.3207048,18.25410270690918,1.3077629804611206,24.092588424682617,202.18955993652344,-107.98249816894531, 35.970279693603516
600,2480170245,0.79036355,0.1180036,-0.5029685,0.3292776,7.563664436340332,10.419349670410156,-5.618786811828613,91.00080871582031,-123.09991455078125, 35.454750061035156
601,2480186912,0.7778584,0.12267871,-0.51972014,0.33132684,19.769390106201172,-1.8226784467697144,-2.677983045578003,4.6697893142700195,-142.29713439941406, 38.02082061767578
602,2480203579,0.76397103,0.1254157,-0.53704137,0.33497146,12.874577522277832,5.158638954162598,1.5491541624069214,-0.09884781390428543,-144.4283447265625, 57.11988067626953
603,2480220246,0.7526821,0.11613517,-0.5571015,0.3310897,9.965536117553711,-4.412874698638916,0.2959214448928833,-99.57267761230469,-128.02500915527344, 58.420082092285156
604,2480236913,0.7401401,0.11120507,-0.573575,0.3329233,9.01108455657959,-11.206193923950195,-2.8875510692596436,-45.97307586669922,-119.59068298339844, 71.3034896850586
605,2480253580,0.72893095,0.117519505,-0.5832572,0.33861488,10.33438491821289,-2.946934223175049,-2.1947731971740723,41.03211975097656,-102.5243148803711, 38.24493408203125
606,2480270247,0.72048503,0.118736275,-0.592434,0.340331,10.217009544372559,-2.061385154724121,-0.18943485617637634,-1.5015069246292114,-80.22516632080078, 31.90584945678711
607,2480286914,0.7135228,0.1183001,-0.60025823,0.34143916,10.552268028259277,-1.277464747428894,-0.665456235408783,-10.206130027770996,-64.10733795166016, 31.054868698120117
608,2480303581,0.70767367,0.11540078,-0.60782725,0.34121388,11.548770904541016,-0.8810808658599854,0.046580180525779724,-28.09239387512207,-53.557525634765625, 31.875038146972656
609,2480320248,0.70208734,0.11138706,-0.61491036,0.34139672,11.032327651977539,-1.9866970777511597,0.0407491996884346,-30.871294021606445,-47.15888977050781, 37.54368591308594
610,2480336915,0.69721156,0.107427455,-0.621141,0.34137818,10.257332801818848,-2.3677499294281006,0.36288583278656006,-29.997949600219727,-40.325313568115234, 34.038116455078125
611,2480353582,0.69278264,0.10431663,-0.6264364,0.3416838,10.10969352722168,-2.957728624343872,0.26016974449157715,-22.674907684326172,-35.69633865356445, 30.23798942565918
612,2480370249,0.6889356,0.10279747,-0.6305541,0.3423481,9.805706977844238,-3.3337388038635254,0.5655752420425415,-11.19615650177002,-31.07196807861328, 22.880882263183594
613,2480386916,0.6855929,0.10187299,-0.6343199,0.34237802,9.471989631652832,-2.8099241256713867,0.25468209385871887,-10.657732963562012,-29.07880973815918, 15.859289169311523
614,2480403583,0.6826722,0.099790916,-0.63861126,0.34084612,9.93456745147705,-2.4155941009521484,0.0936782956123352,-24.459365844726562,-28.094776153564453, 12.924001693725586
615,2480420250,0.6799336,0.09669074,-0.6432865,0.33841375,9.928031921386719,-2.5291266441345215,0.23286104202270508,-34.21663284301758,-27.338699340820312, 13.016886711120605
616,2480436917,0.6770169,0.09358392,-0.64827126,0.335611,9.765799522399902,-2.8716177940368652,0.7131404280662537,-36.48899841308594,-29.814502716064453, 11.94679069519043
617,2480453584,0.6739111,0.09165057,-0.6527722,0.33366573,9.566686630249023,-3.267267942428589,0.8263453245162964,-25.969757080078125,-30.57743263244629, 10.8408203125
618,2480470251,0.671173,0.09025374,-0.6564897,0.33226886,9.394067764282227,-3.105565071105957,0.652053713798523,-19.461328506469727,-26.199954986572266, 9.63742733001709
619,2480486918,0.66885877,0.08862168,-0.6597674,0.3308797,9.242737770080566,-2.9481208324432373,0.5963053703308105,-19.77520751953125,-21.731395721435547, 9.49511432647705
620,2480503585,0.6667833,0.086628005,-0.6628575,0.32941732,9.305217742919922,-2.9661734104156494,0.4888532757759094,-21.493207931518555,-19.02437973022461, 10.145306587219238
621,2480520252,0.66481096,0.08436807,-0.66584593,0.3279598,9.429176330566406,-2.741182804107666,0.4918689429759979,-22.52760887145996,-17.49871826171875, 11.09045696258545
622,2480536919,0.66263247,0.08194047,-0.6690695,0.32642007,9.353829383850098,-2.863990545272827,0.44425323605537415,-24.08430290222168,-19.204538345336914, 12.091385841369629
623,2480553586,0.6600233,0.079901,-0.67249304,0.32517448,9.313356399536133,-2.985670804977417,0.3578552007675171,-21.172657012939453,-22.818326950073242, 12.730489730834961
624,2480570253,0.65711755,0.078224905,-0.6760198,0.32415235,9.34549617767334,-3.1155428886413574,0.20002828538417816,-18.56275177001953,-25.36574363708496, 12.78813362121582
625,2480586920,0.6540534,0.07674159,-0.6796192,0.32317626,9.42207145690918,-3.0509002208709717,0.3233449161052704,-17.558385848999023,-26.851276397705078, 12.493767738342285
626,2480603587,0.65071154,0.07527058,-0.68353117,0.3220158,9.48497486114502,-3.0489327907562256,0.27985095977783203,-18.917207717895508,-29.696697235107422, 12.392105102539062
627,2480620254,0.64698815,0.07380711,-0.6877952,0.32077518,9.634804725646973,-2.6786201000213623,0.2698892652988434,-19.84693717956543,-33.14228820800781, 13.028572082519531
628,2480636921,0.64262784,0.07220705,-0.69269997,0.31934708,9.539795875549316,-2.535184383392334,0.23927822709083557,-22.434720993041992,-38.81719207763672, 14.578521728515625
629,2480653588,0.63711977,0.071080156,-0.69844604,0.3181182,9.29294204711914,-2.882134199142456,0.4146382212638855,-20.676368713378906,-48.960201263427734, 16.151676177978516
630,2480670255,0.63018334,0.07108858,-0.7051194,0.3172101,9.273144721984863,-3.205043077468872,0.4900011122226715,-15.497842788696289,-62.2303581237793, 15.685417175292969
631,2480686922,0.6219139,0.07228297,-0.7125749,0.31659988,9.616480827331543,-3.0252645015716553,0.28793981671333313,-9.976520538330078,-74.54805755615234, 14.514126777648926
632,2480703589,0.6124054,0.073814,-0.7210867,0.31550798,9.890336990356445,-2.8566205501556396,0.24334141612052917,-12.584851264953613,-86.1295394897461, 14.029147148132324
633,2480720256,0.6014985,0.07574314,-0.730703,0.31390423,10.072005271911621,-3.526482105255127,0.47027772665023804,-15.138749122619629,-98.86398315429688, 13.498268127441406
634,2480736923,0.5892122,0.078449965,-0.7411106,0.3121374,10.820870399475098,-3.4715983867645264,0.37559354305267334,-13.739646911621094,-110.8593978881836, 12.30388355255127
635,2480753590,0.57580775,0.08129302,-0.752272,0.30971584,11.699244499206543,-2.9012651443481445,0.050365597009658813,-17.547054290771484,-120.28887939453125, 11.765061378479004
636,2480770257,0.5611503,0.08461489,-0.7642151,0.30647388,12.931205749511719,-3.3973429203033447,0.33479946851730347,-20.86519432067871,-131.37725830078125, 9.157349586486816
637,2480786924,0.54534024,0.08805304,-0.7762536,0.30377802,13.839530944824219,-2.450814962387085,0.8881863355636597,-17.085403442382812,-137.77210998535156, 13.149134635925293
638,2480803591,0.52852833,0.090695694,-0.78893495,0.30002314,14.990321159362793,-2.381993055343628,1.4862664937973022,-26.4644775390625,-144.56654357910156, 15.93052864074707
639,2480820258,0.51100516,0.09286355,-0.80132574,0.29686227,16.5101375579834,-2.182410717010498,3.0589895248413086,-23.934179306030273,-146.0889434814453, 21.981407165527344
640,2480836925,0.49405178,0.092713945,-0.8133801,0.29279652,17.984132766723633,0.10624493658542633,4.389843463897705,-36.75456237792969,-137.713134765625, 30.231630325317383
641,2480853592,0.47916663,0.08892457,-0.8252718,0.2853387,17.516176223754883,1.9647365808486938,5.518495082855225,-69.0904541015625,-120.55361938476562, 34.863243103027344
642,2480870259,0.47025782,0.08089187,-0.83447415,0.27562097,15.59219741821289,0.8782528638839722,7.349010944366455,-94.28056335449219,-70.97832489013672, 38.20426559448242
643,2480886926,0.45624226,0.07036198,-0.84833735,0.259261,8.417563438415527,-3.406200408935547,-7.6615190505981445,-146.49209594726562,-114.47823333740234, 43.37902069091797
644,2480903593,0.43531448,0.06647279,-0.86329603,0.24658212,12.198838233947754,-6.465843200683594,-7.731531620025635,-102.76722717285156,-168.26763916015625, 29.017440795898438
645,2480920260,0.41479024,0.06789021,-0.87483877,0.24082655,12.204039573669434,-5.1632819175720215,-3.3092894554138184,-40.16694641113281,-161.46644592285156, 15.962739944458008
646,2480936927,0.3979184,0.068781376,-0.884,0.23552948,9.485258102416992,-4.22725772857666,-1.432487964630127,-36.68434143066406,-131.65142822265625, 13.26525592803955
647,2480953594,0.38597235,0.06916463,-0.8909127,0.22916445,7.736307144165039,-6.335262298583984,0.31442683935165405,-43.27035140991211,-95.28316497802734, 4.377346515655518
648,2480970261,0.3801905,0.071034506,-0.8932016,0.22934808,5.5387864112854,-5.702738285064697,3.8600122928619385,5.095996379852295,-44.52509689331055, 0.7089325189590454
649,2480986928,0.3794321,0.074903354,-0.8920088,0.23396859,5.6409759521484375,-2.7666637897491455,4.610628604888916,40.541542053222656,-5.616260051727295, -9.612262725830078
650,2481003595,0.38337627,0.07896069,-0.8888435,0.23821291,4.004526615142822,-1.7481645345687866,2.5726115703582764,39.4361457824707,27.808626174926758, -20.32697296142578
651,2481020262,0.39193532,0.08268923,-0.8834759,0.24294,4.895590305328369,-2.3242969512939453,1.8738847970962524,42.597618103027344,62.58586502075195, -25.795223236083984
652,2481036929,0.40451765,0.08695248,-0.8751888,0.25069815,5.067883491516113,-2.650540828704834,1.6233614683151245,65.01738739013672,95.6930160522461, -29.252939224243164
653,2481053596,0.42076835,0.09308405,-0.8636112,0.26165873,5.334550380706787,-1.3258419036865234,1.6514946222305298,92.93952941894531,125.5922622680664, -39.874996185302734
654,2481070263,0.44092774,0.09916426,-0.8497537,0.27141902,6.069021224975586,-0.5345542430877686,1.8667285442352295,87.24989318847656,154.70030212402344, -51.517478942871094
655,2481086930,0.46460077,0.10458282,-0.83367604,0.27962998,6.572783946990967,-1.5958589315414429,1.4265302419662476,77.93031311035156,182.11273193359375, -60.39793014526367
656,2481103597,0.49132702,0.10968887,-0.8148965,0.28724542,7.241488933563232,-2.2513744831085205,0.6026474237442017,76.50575256347656,208.40057373046875, -68.3112564086914
657,2481120264,0.5207329,0.11419655,-0.79324967,0.2941966,8.558913230895996,-2.835522174835205,0.002159029245376587,74.39131927490234,233.77792358398438, -74.65418243408203
658,2481136931,0.5522248,0.118403964,-0.7683339,0.30115056,10.035311698913574,-3.445443630218506,-0.2855663299560547,78.29943084716797,257.4721374511719, -79.79647064208984
659,2481153598,0.58518296,0.12277727,-0.73984164,0.30841702,11.985821723937988,-3.4294183254241943,-0.24965673685073853,86.78246307373047,278.7230529785156, -85.4394302368164
660,2481170265,0.61952984,0.12622617,-0.70808697,0.31442413,13.81351375579834,-3.411318063735962,0.260140597820282,82.3989028930664,299.82855224609375, -91.50605010986328
661,2481186932,0.6550007,0.12789933,-0.6735643,0.31769013,15.87070083618164,-3.4741923809051514,0.30225619673728943,66.48748016357422,318.5726318359375, -99.3748550415039
662,2481203599,0.6910008,0.12649544,-0.63659877,0.3182121,18.908437728881836,-4.034854888916016,-0.41963207721710205,44.78282165527344,336.3680114746094, -100.7942123413086
663,2481220266,0.72620195,0.12205291,-0.59764355,0.317106,20.672069549560547,-4.204000473022461,-1.5605639219284058,28.26854705810547,347.61444091796875, -95.2219467163086
664,2481236933,0.7586545,0.11386623,-0.5593926,0.31393927,21.744213104248047,-5.014228343963623,-2.457798957824707,1.8782514333724976,339.31097412109375, -83.5523681640625
665,2481253600,0.78688437,0.10014163,-0.52517855,0.30817583,20.71864128112793,-6.27977180480957,-7.853670120239258,-42.399169921875,312.029052734375, -63.54330062866211
666,2481270267,0.8089796,0.08233197,-0.49707863,0.30279833,14.981728553771973,-10.012645721435547,-10.85496711730957,-71.79641723632812,265.88916015625, -29.53087615966797
667,2481286934,0.8249801,0.07170078,-0.4714422,0.30333078,10.838322639465332,-5.912232875823975,-12.454164505004883,-13.25430965423584,219.95223999023438, -7.194483280181885
668,2481303601,0.8357655,0.058069184,-0.45655155,0.29947415,8.964275360107422,-3.9112088680267334,-15.488961219787598,-64.27738189697266,146.38735961914062, -6.233079433441162
669,2481320268,0.8381295,0.047555197,-0.45474648,0.29746157,5.263703346252441,-7.748297214508057,-20.21334457397461,-64.08493041992188,39.302146911621094, 17.12649917602539
670,2481336935,0.8324317,0.050271597,-0.4629321,0.30037394,4.444607257843018,-6.473643779754639,-18.493867874145508,9.866403579711914,-68.66751861572266, 23.82630729675293
671,2481353602,0.8197,0.061305232,-0.47955474,0.3071824,9.337858200073242,-6.247795581817627,-13.922898292541504,54.978431701660156,-154.96188354492188, 37.019561767578125
672,2481370269,0.8058497,0.07649407,-0.4929913,0.31892765,18.734241485595703,-5.384372711181641,18.652814865112305,101.96240997314453,-147.18605041503906, 52.07670974731445
673,2481386936,0.7925386,0.10711011,-0.49245116,0.34336904,6.660387992858887,5.987430572509766,18.335708618164062,260.883056640625,-95.20270538330078, 61.53508758544922
674,2481403603,0.7818237,0.117751114,-0.50336707,0.3485804,10.848370552062988,6.557311058044434,-9.140382766723633,57.814308166503906,-116.02919006347656, 26.722888946533203
675,2481420270,0.769954,0.1263382,-0.51670045,0.35246336,19.414993286132812,2.226206064224243,-0.03817760944366455,37.326602935791016,-129.0140380859375, 31.512205123901367
676,2481436937,0.75819206,0.12666807,-0.53302306,0.35353455,12.260580062866211,5.237419128417969,1.471303105354309,-23.70182228088379,-126.78987121582031, 48.3671989440918
677,2481453604,0.74760276,0.11920349,-0.55121815,0.35076955,10.141066551208496,-5.273987770080566,0.32840925455093384,-83.97274780273438,-116.62601470947266, 55.82448196411133
678,2481470271,0.73604894,0.11516142,-0.5669646,0.35145563,9.61965274810791,-9.031768798828125,-0.9520865082740784,-46.56264114379883,-113.09066772460938, 60.87913131713867
679,2481486938,0.7247233,0.11968366,-0.5779838,0.35550952,10.430723190307617,-4.636620998382568,-2.221592664718628,21.198097229003906,-106.26253509521484, 40.14323806762695
680,2481503605,0.7154522,0.12239613,-0.5875801,0.35762724,9.917956352233887,-1.5743014812469482,-0.0771074891090393,6.306304931640625,-88.11978912353516, 31.452287673950195
681,2481520272,0.7075645,0.122631356,-0.5964823,0.3585012,9.782713890075684,-2.7750158309936523,-0.6361348628997803,-10.349039077758789,-74.05389404296875, 31.36347007751465
682,2481536939,0.7010522,0.12235913,-0.604035,0.35874227,10.886558532714844,-0.46156567335128784,-0.25637975335121155,-13.230796813964844,-61.1065673828125, 25.831815719604492
683,2481553606,0.69529694,0.11870163,-0.61183095,0.3579597,11.626519203186035,-1.386026382446289,0.08908586949110031,-35.02243423461914,-51.628849029541016, 33.33369064331055
684,2481570273,0.68966484,0.114604235,-0.61918414,0.3575468,10.449564933776855,-2.354060173034668,0.3339514434337616,-34.5659294128418,-47.597442626953125, 36.321533203125
685,2481586940,0.684435,0.11162861,-0.6254481,0.3576351,9.753273010253906,-3.322175979614258,0.4076358377933502,-24.738370895385742,-43.07958221435547, 32.09086227416992
686,2481603607,0.6792924,0.11107186,-0.63061124,0.3585449,9.65160083770752,-3.8426880836486816,0.47326385974884033,-7.171503067016602,-42.841487884521484, 24.491260528564453
687,2481620274,0.6748454,0.111621074,-0.63496405,0.35908923,9.552998542785645,-3.3804771900177,0.3234724700450897,-2.1177096366882324,-39.046993255615234, 15.640575408935547
688,2481636941,0.6710121,0.11121383,-0.6396363,0.3581056,9.8892822265625,-2.4564952850341797,-0.06954087316989899,-14.481143951416016,-36.661102294921875, 11.450435638427734
689,2481653608,0.6677384,0.10874042,-0.644912,0.35551324,10.242505073547363,-2.188384771347046,-0.1229245737195015,-32.9959831237793,-33.12181854248047, 12.214622497558594
690,2481670275,0.6649496,0.105734214,-0.6497594,0.3528106,10.08176040649414,-2.837157726287842,0.1836892068386078,-35.23918151855469,-27.78069496154785, 12.590269088745117
691,2481686942,0.6623794,0.103822984,-0.6535345,0.35123634,9.853806495666504,-3.2807838916778564,0.4153994619846344,-22.74603271484375,-23.73957633972168, 11.562780380249023
692,2481703609,0.6602609,0.102807805,-0.656234,0.35048983,9.564494132995605,-3.2142722606658936,0.28764891624450684,-12.66994857788086,-18.390789031982422, 9.451906204223633
