PacketCounter,SampleTimeFine,Quat_W,Quat_X,Quat_Y,Quat_Z,Acc_X,Acc_Y,Acc_Z,Gyr_X,Gyr_Y,Gyr_Z 
1,366362217,0.9970752,0.0032590814,-0.014897161,0.07489074,-0.18505406379699707,0.1556681990623474,0.7473114132881165,-0.2576107680797577,-0.18348856270313263, -0.5785816311836243
2,366378884,0.9970649,0.0033375039,-0.0147494525,0.0750537,0.2758035957813263,0.038631048053503036,9.526205062866211,0.6704060435295105,0.4700378179550171, 1.4580349922180176
3,366395551,0.9970824,0.0033923306,-0.014574971,0.07485235,0.288999080657959,0.042305901646614075,9.535356521606445,0.6814066171646118,0.48477795720100403, 1.5152409076690674
4,366412218,0.9970827,0.0034726323,-0.014487106,0.07486292,0.2964387834072113,0.029527366161346436,9.527711868286133,0.7217467427253723,0.4674381911754608, 1.4997581243515015
5,366428885,0.9970805,0.0035117208,-0.01446944,0.07489317,0.2958616614341736,0.03022942505776882,9.526394844055176,0.7066736221313477,0.4226159453392029, 1.4711358547210693
6,366445552,0.9970752,0.00353328,-0.0144685395,0.074963965,0.294000506401062,0.03662234917283058,9.530060768127441,0.6450366377830505,0.4275463819503784, 1.4879250526428223
7,366462219,0.9970678,0.0035704318,-0.014456116,0.07506097,0.2875601351261139,0.035008255392313004,9.541749000549316,0.6723141670227051,0.48363828659057617, 1.4854918718338013
8,366478886,0.99704736,0.0036243205,-0.014433322,0.075334005,0.29384589195251465,0.04888291284441948,9.550661087036133,0.7374985218048096,0.44555214047431946, 1.4701114892959595
9,366495553,0.9970401,0.0036782175,-0.014408378,0.075433224,0.27913013100624084,0.04010264202952385,9.5045804977417,0.6202820539474487,0.45054659247398376, 1.424533486366272
10,366512220,0.99702317,0.0037385945,-0.014363749,0.075661235,0.27401915192604065,0.025036372244358063,9.531392097473145,0.6487376689910889,0.4813971221446991, 1.5418142080307007
11,366528887,0.997022,0.0037946044,-0.014301602,0.07568726,0.2788512706756592,0.03866716846823692,9.524883270263672,0.7135122418403625,0.5190349817276001, 1.483801245689392
12,366545554,0.99701065,0.0038520037,-0.014235661,0.07584463,0.2972300052642822,0.0293646901845932,9.525057792663574,0.6889880895614624,0.5132465362548828, 1.4584704637527466
13,366562221,0.99700624,0.0039118025,-0.014186723,0.07590816,0.2766488790512085,0.030673600733280182,9.517633438110352,0.7235523462295532,0.4476523697376251, 1.4282859563827515
14,366578888,0.9969991,0.0039639375,-0.014133773,0.076010704,0.28124943375587463,0.024729041382670403,9.543039321899414,0.6755605936050415,0.448375940322876, 1.4492816925048828
15,366595555,0.99699336,0.0040122555,-0.01407969,0.07609384,0.28431135416030884,0.03643805906176567,9.538731575012207,0.671968400478363,0.4499959647655487, 1.5239620208740234
16,366612222,0.9969902,0.0040601618,-0.014019327,0.076143004,0.2789762020111084,0.04020661488175392,9.50629711151123,0.6564214825630188,0.4953560531139374, 1.4491472244262695
17,366628889,0.99698657,0.004115887,-0.013956519,0.0761984,0.2885890305042267,0.03598421439528465,9.534078598022461,0.6906144618988037,0.5013878345489502, 1.4939824342727661
18,366645556,0.99697983,0.004175683,-0.01390928,0.0762928,0.29883459210395813,0.03215085342526436,9.519908905029297,0.6991947293281555,0.40353453159332275, 1.5306341648101807
19,366662223,0.99697816,0.004229837,-0.013853689,0.076321274,0.29136309027671814,0.030184153467416763,9.520625114440918,0.6697273254394531,0.49052801728248596, 1.5052136182785034
20,366678890,0.9969715,0.0042858436,-0.013797124,0.07641449,0.28055164217948914,0.04415219649672508,9.525374412536621,0.6746065616607666,0.5020921230316162, 1.382989764213562
21,366695557,0.9969661,0.0043504327,-0.013751857,0.07648979,0.2859603464603424,0.04051564633846283,9.52524471282959,0.7143062353134155,0.4132673144340515, 1.4597126245498657
22,366712224,0.9969588,0.00440228,-0.013700336,0.07659073,0.2791764438152313,0.04092429205775261,9.529023170471191,0.6192190051078796,0.4626741409301758, 1.4839805364608765
23,366728891,0.99695,0.00446599,-0.01365141,0.07671099,0.3007189631462097,0.03533697873353958,9.516586303710938,0.6886934041976929,0.43092724680900574, 1.4487375020980835
24,366745558,0.9969462,0.004536797,-0.013597347,0.07676535,0.2914919853210449,0.03885902091860771,9.522933959960938,0.7456049919128418,0.4794761836528778, 1.4534119367599487
25,366762225,0.9969414,0.004596035,-0.013539379,0.07683493,0.28912684321403503,0.025731507688760757,9.540592193603516,0.6642462015151978,0.5161663889884949, 1.4980933666229248
26,366778892,0.99693364,0.0046593365,-0.013494696,0.07693886,0.27977994084358215,0.019712574779987335,9.537412643432617,0.6900382041931152,0.4230513870716095, 1.5228607654571533
27,366795559,0.99692345,0.0047234227,-0.013449185,0.077075124,0.2957477867603302,0.0320473276078701,9.510615348815918,0.7027037143707275,0.42106640338897705, 1.505764365196228
28,366812226,0.99691236,0.0047808355,-0.013395217,0.0772239,0.279215544462204,0.03071693144738674,9.536627769470215,0.6594309210777283,0.488325297832489, 1.4873614311218262
29,366828893,0.9969099,0.0048434325,-0.013340303,0.07726219,0.28309231996536255,0.02968885749578476,9.537696838378906,0.7062766551971436,0.4890553057193756, 1.4780769348144531
30,366845560,0.9969112,0.004904866,-0.013284017,0.077250324,0.2849450707435608,0.03657228499650955,9.527701377868652,0.7042660713195801,0.49789172410964966, 1.464784026145935
31,366862227,0.996904,0.004963464,-0.013235098,0.077348515,0.29605910181999207,0.03760608285665512,9.532464981079102,0.6663848757743835,0.44491177797317505, 1.4270435571670532
32,366878894,0.9968962,0.0050371266,-0.013185388,0.07745188,0.27584919333457947,0.04265571013092995,9.508195877075195,0.7679520845413208,0.44766518473625183, 1.4780128002166748
33,366895561,0.9968914,0.005100786,-0.013132975,0.077519454,0.28972068428993225,0.042295102030038834,9.555092811584473,0.7000527381896973,0.4677071273326874, 1.5174436569213867
34,366912228,0.9968858,0.0051592235,-0.013083248,0.07759504,0.2867187261581421,0.03953506797552109,9.522936820983887,0.6566647291183472,0.45277491211891174, 1.4658085107803345
35,366928895,0.99688065,0.0052227494,-0.013030235,0.07766636,0.28370344638824463,0.040441110730171204,9.531840324401855,0.6929708123207092,0.473585307598114, 1.5208885669708252
36,366945562,0.9968765,0.005285542,-0.012985051,0.07772225,0.28537043929100037,0.03471023216843605,9.531554222106934,0.6813040971755981,0.4193759262561798, 1.4611724615097046
37,366962229,0.99687546,0.005348371,-0.012932033,0.07774057,0.28978973627090454,0.03876570984721184,9.516057968139648,0.6883092522621155,0.4736364781856537, 1.4135969877243042
38,366978896,0.99686795,0.005411355,-0.012888579,0.07784073,0.27305498719215393,0.025525875389575958,9.529107093811035,0.6776031255722046,0.40791425108909607, 1.4858118295669556
39,366995563,0.99686575,0.005467043,-0.01283866,0.077872604,0.275197297334671,0.04196546971797943,9.523497581481934,0.640259861946106,0.45372259616851807, 1.459751009941101
40,367012230,0.9968623,0.0055245166,-0.012778736,0.07792166,0.29412582516670227,0.03832688927650452,9.549818992614746,0.6537449359893799,0.5177799463272095, 1.442449688911438
41,367028897,0.9968558,0.0055909115,-0.012727076,0.07800943,0.2869851887226105,0.03159087896347046,9.53233814239502,0.7082231640815735,0.45899879932403564, 1.511206865310669
42,367045564,0.99685186,0.0056584757,-0.012674597,0.07806201,0.28554481267929077,0.03286571428179741,9.54129695892334,0.7205427885055542,0.46581169962882996, 1.4785250425338745
43,367062231,0.99684787,0.005725072,-0.012623014,0.07811704,0.29286351799964905,0.0505855567753315,9.531096458435059,0.7141140103340149,0.4605739712715149, 1.4679853916168213
44,367078898,0.99684685,0.0057876357,-0.0125706745,0.07813346,0.28972098231315613,0.03662716969847679,9.538387298583984,0.6863626837730408,0.4717154800891876, 1.4541289806365967
45,367095565,0.9968402,0.0058489735,-0.012528494,0.07822183,0.28475990891456604,0.04379691556096077,9.53266429901123,0.6679215431213379,0.4023434817790985, 1.5017942190170288
46,367112232,0.99683475,0.005917987,-0.01248098,0.078292035,0.28484225273132324,0.016638346016407013,9.533812522888184,0.723052978515625,0.4353967010974884, 1.468958854675293
47,367128899,0.99682903,0.005977512,-0.01242286,0.07837051,0.27894431352615356,0.0434628464281559,9.5382661819458,0.6680881381034851,0.5130672454833984, 1.4494549036026
48,367145566,0.99682283,0.006047219,-0.012373425,0.078451686,0.2787899971008301,0.03518135845661163,9.521376609802246,0.7327473759651184,0.44735783338546753, 1.477526307106018
49,367162233,0.99682033,0.0061141844,-0.012324209,0.07848695,0.2778633236885071,0.04106690362095833,9.53209400177002,0.716880202293396,0.44754987955093384, 1.3957575559616089
50,367178900,0.99681395,0.0061851977,-0.012268188,0.078570224,0.2813394367694855,0.033930178731679916,9.536498069763184,0.7474361658096313,0.49105304479599, 1.5284314155578613
51,367195567,0.996809,0.0062493794,-0.012207679,0.07863841,0.27963221073150635,0.041654691100120544,9.539003372192383,0.7030878067016602,0.5250283479690552, 1.4152743816375732
52,367212234,0.99680156,0.006315628,-0.012147932,0.07873486,0.2892751097679138,0.032201625406742096,9.5326509475708,0.7182505130767822,0.5192014575004578, 1.5611389875411987
53,367228901,0.9967949,0.0063892086,-0.012098753,0.0788216,0.28641843795776367,0.02216578647494316,9.543838500976562,0.7649681568145752,0.4448734223842621, 1.532580852508545
54,367245568,0.99678916,0.0064438717,-0.012041215,0.078898355,0.2935921251773834,0.028888117522001266,9.532661437988281,0.6420910954475403,0.5131055116653442, 1.4310389757156372
55,367262235,0.9967817,0.006508199,-0.011996782,0.07899392,0.2976411283016205,0.03309294581413269,9.516813278198242,0.7038434743881226,0.42074623703956604, 1.4945459365844727
56,367278902,0.99677485,0.006575207,-0.011951501,0.07908155,0.29245683550834656,0.04694727063179016,9.541705131530762,0.7258447408676147,0.4291728436946869, 1.5205427408218384
57,367295569,0.99676853,0.0066364026,-0.011898544,0.07916544,0.2739674150943756,0.04030898958444595,9.538342475891113,0.6905633211135864,0.4876082241535187, 1.5380619764328003
58,367312236,0.9967646,0.006690872,-0.0118462,0.079217486,0.29209697246551514,0.035850491374731064,9.53648567199707,0.6460355520248413,0.486801415681839, 1.4683313369750977
59,367328903,0.99675834,0.0067534996,-0.011794906,0.07929843,0.2902742922306061,0.03973763808608055,9.528554916381836,0.7011668682098389,0.4766715466976166, 1.4898712635040283
60,367345570,0.99675214,0.0068052323,-0.011744892,0.07937984,0.2819119691848755,0.05322090908885002,9.554767608642578,0.6277608275413513,0.4762873351573944, 1.5233216285705566
61,367362237,0.9967472,0.006865958,-0.01169198,0.07944429,0.2875353693962097,0.034013379365205765,9.545519828796387,0.6894873976707458,0.4916037321090698, 1.429937720298767
62,367378904,0.9967424,0.0069220946,-0.011643825,0.07950565,0.2887406349182129,0.03772271052002907,9.526284217834473,0.65981525182724,0.4642365872859955, 1.504035472869873
63,367395571,0.9967377,0.006989512,-0.011601951,0.07956598,0.27312543988227844,0.02925969287753105,9.547040939331055,0.7365124225616455,0.4175318479537964, 1.5418269634246826
64,367412238,0.9967317,0.007045592,-0.011547174,0.07964362,0.28414487838745117,0.022136302664875984,9.555415153503418,0.6671915650367737,0.5110565423965454, 1.5279319286346436
65,367428905,0.9967267,0.0071084457,-0.0114967935,0.07970713,0.293014794588089,0.025723475962877274,9.532426834106445,0.7136659026145935,0.4777985215187073, 1.4123677015304565
66,367445572,0.9967217,0.0071624876,-0.0114503065,0.079772994,0.3016274571418762,0.04589596018195152,9.519532203674316,0.657010555267334,0.45992088317871094, 1.5204403400421143
67,367462239,0.9967157,0.007233758,-0.011401174,0.07984754,0.28442832827568054,0.03415866196155548,9.539619445800781,0.775635838508606,0.4714210033416748, 1.471379280090332
68,367478906,0.99670994,0.0072818543,-0.011345415,0.07992356,0.2803570032119751,0.03143489360809326,9.537247657775879,0.6233043670654297,0.5313034653663635, 1.4902942180633545
69,367495573,0.9967042,0.0073430436,-0.011301457,0.07999468,0.28551170229911804,0.04782681167125702,9.53915786743164,0.7085816860198975,0.44379767775535583, 1.4321404695510864
70,367512240,0.9966993,0.0074040713,-0.011262921,0.0800563,0.28565680980682373,0.04104332998394966,9.537199020385742,0.7077749967575073,0.40983521938323975, 1.494033694267273
71,367528907,0.9966941,0.0074604377,-0.0112110805,0.08012254,0.30054762959480286,0.037919435650110245,9.533577919006348,0.6847236156463623,0.5052297711372375, 1.4912675619125366
72,367545574,0.9966871,0.0075161834,-0.011167665,0.080210075,0.28486013412475586,0.02523091807961464,9.525701522827148,0.6780386567115784,0.4513149857521057, 1.5528788566589355
73,367562241,0.9966831,0.0075775636,-0.011115985,0.080259725,0.2828357517719269,0.03451764956116676,9.536317825317383,0.7246472835540771,0.5065039396286011, 1.40065598487854
74,367578908,0.99667877,0.007633972,-0.011071906,0.08031694,0.28954944014549255,0.0286092571914196,9.526801109313965,0.6894618272781372,0.4589090943336487, 1.4312694072723389
75,367595575,0.99667376,0.007693536,-0.011022121,0.080378726,0.2985970377922058,0.036585483700037,9.527779579162598,0.7194415926933289,0.49969738721847534, 1.5122315883636475
76,367612242,0.99666876,0.0077475896,-0.010974634,0.08044306,0.2836255431175232,0.02730828896164894,9.549331665039062,0.6814066171646118,0.4894266426563263, 1.4416298866271973
77,367628909,0.99666345,0.0078028208,-0.010930006,0.08051016,0.2868674099445343,0.035981904715299606,9.541983604431152,0.693124532699585,0.47185635566711426, 1.5060715675354004
78,367645576,0.9966591,0.007845092,-0.010890045,0.0805641,0.2887822389602661,0.034095026552677155,9.543086051940918,0.6045173406600952,0.4491763114929199, 1.4492241144180298
79,367662243,0.99665564,0.007889623,-0.010845825,0.0806086,0.2930346429347992,0.03579200059175491,9.521598815917969,0.6265955567359924,0.48024454712867737, 1.4558833837509155
80,367678910,0.9966513,0.007947141,-0.010804355,0.08066198,0.28558167815208435,0.03539475053548813,9.536229133605957,0.7162911891937256,0.4566424489021301, 1.4429234266281128
81,367695577,0.99664575,0.007997706,-0.010762709,0.0807314,0.2883157432079315,0.04701314494013786,9.529136657714844,0.6723910570144653,0.4642494022846222, 1.5142934322357178
82,367712244,0.99664026,0.008051814,-0.010713896,0.08080077,0.27672553062438965,0.046374764293432236,9.531140327453613,0.7026780843734741,0.5138996839523315, 1.503036618232727
83,367728911,0.9966375,0.008095517,-0.010675764,0.08083616,0.2939738929271698,0.05234784632921219,9.553366661071777,0.6273382902145386,0.4477803707122803, 1.364676594734192
84,367745578,0.9966331,0.008131095,-0.010633773,0.08089195,0.2801588773727417,0.038492921739816666,9.539600372314453,0.575639009475708,0.48181968927383423, 1.4262367486953735
85,367762245,0.9966286,0.008180409,-0.01058985,0.08094903,0.28041526675224304,0.04372261092066765,9.540750503540039,0.6745809316635132,0.48968279361724854, 1.4460992813110352
86,367778912,0.99662304,0.008235504,-0.010548033,0.081015974,0.289159893989563,0.034388162195682526,9.548727989196777,0.7171620726585388,0.47491708397865295, 1.5317867994308472
87,367795579,0.99661845,0.008277197,-0.0105032,0.08107404,0.2887072265148163,0.04360480234026909,9.547560691833496,0.6300916075706482,0.505447506904602, 1.4648736715316772
88,367812246,0.9966144,0.008327018,-0.010467333,0.08112416,0.29042503237724304,0.026547349989414215,9.539534568786621,0.6851717829704285,0.4432726204395294, 1.493892788887024
89,367828913,0.99661,0.0083864145,-0.0104279,0.081176855,0.2840118408203125,0.03666454181075096,9.53169059753418,0.7569641470909119,0.4651842415332794, 1.4763609170913696
90,367845580,0.9966047,0.008438021,-0.010391806,0.08124103,0.288873553276062,0.03310457617044449,9.53298568725586,0.7051367163658142,0.4489329755306244, 1.4939823150634766
91,367862247,0.9966003,0.008494539,-0.010356414,0.081293195,0.29007649421691895,0.03506884351372719,9.536785125732422,0.7443883419036865,0.44574424624443054, 1.53165864944458
92,367878914,0.99659646,0.008544717,-0.010324376,0.081339665,0.2809508740901947,0.03771817311644554,9.5359525680542,0.703113317489624,0.42950576543807983, 1.5071344375610352
93,367895581,0.9965923,0.00858988,-0.010289118,0.081389725,0.27938103675842285,0.033329226076602936,9.541951179504395,0.6733514666557312,0.4559893012046814, 1.4641180038452148
94,367912248,0.9965872,0.008640433,-0.010248124,0.081451006,0.2782231867313385,0.0319087989628315,9.529295921325684,0.7170724272727966,0.4940369725227356, 1.461211085319519
95,367928915,0.9965834,0.008691445,-0.010212055,0.08149735,0.28987517952919006,0.05010870471596718,9.530069351196289,0.7242823243141174,0.4640572965145111, 1.5126285552978516
96,367945582,0.9965787,0.008724274,-0.010189043,0.081554726,0.28992462158203125,0.03932134434580803,9.539881706237793,0.5954888463020325,0.38812845945358276, 1.549587607383728
97,367962249,0.9965733,0.0087729255,-0.010159323,0.08161797,0.29260843992233276,0.029398707672953606,9.54538345336914,0.7111173868179321,0.4280586242675781, 1.5345784425735474
98,367978916,0.9965699,0.008822653,-0.010125423,0.08165911,0.29137513041496277,0.02433818206191063,9.541860580444336,0.7254860997200012,0.45951101183891296, 1.4417707920074463
99,367995583,0.99656576,0.008856934,-0.010078674,0.08171209,0.29525724053382874,0.04661143571138382,9.521415710449219,0.6337414383888245,0.5608733296394348, 1.5506378412246704
100,368012250,0.9965611,0.008895194,-0.010041676,0.08176826,0.2862013876438141,0.048991911113262177,9.515543937683105,0.6595718264579773,0.4959963262081146, 1.5783251523971558
101,368028917,0.9965574,0.008933458,-0.010009835,0.08181402,0.2841603755950928,0.029943155124783516,9.537911415100098,0.6594694256782532,0.4633530378341675, 1.5076853036880493
102,368045584,0.9965526,0.008972703,-0.009977739,0.081871666,0.293337881565094,0.021300707012414932,9.539128303527832,0.6705084443092346,0.46683627367019653, 1.5028189420700073
103,368062251,0.99654967,0.009012481,-0.009941613,0.08190839,0.28553012013435364,0.039036475121974945,9.528435707092285,0.6828538179397583,0.4985063672065735, 1.458047866821289
104,368078918,0.9965464,0.009041723,-0.009914181,0.081947505,0.28561127185821533,0.03693145513534546,9.549776077270508,0.6093837022781372,0.44744741916656494, 1.4260958433151245
105,368095585,0.99654233,0.009082045,-0.009882219,0.08199614,0.29362863302230835,0.03611424192786217,9.540371894836426,0.693687915802002,0.4764154255390167, 1.5114885568618774
106,368112252,0.99653906,0.009118539,-0.00985492,0.08203615,0.2850382328033447,0.03846636041998863,9.52316951751709,0.6693174242973328,0.45031607151031494, 1.4679341316223145
107,368128919,0.9965356,0.00915386,-0.009823773,0.082077116,0.26231881976127625,0.03628793731331825,9.551323890686035,0.6689205169677734,0.4813331067562103, 1.510092854499817
108,368145586,0.99653125,0.009190351,-0.009795665,0.08212892,0.291517972946167,0.045893486589193344,9.528824806213379,0.680292546749115,0.46156007051467896, 1.5562853813171387
109,368162253,0.9965282,0.009228865,-0.009759342,0.08216551,0.2893562316894531,0.04597765952348709,9.527205467224121,0.7022426128387451,0.5200338363647461, 1.4697911739349365
110,368178920,0.9965252,0.009263617,-0.009728393,0.08220111,0.29137828946113586,0.03767724335193634,9.52643871307373,0.6781986951828003,0.48954838514328003, 1.4939759969711304
111,368195587,0.99652267,0.009297718,-0.009703896,0.08223142,0.2824309170246124,0.03690727427601814,9.536460876464844,0.675195574760437,0.44981667399406433, 1.487566590309143
112,368212254,0.99652064,0.00933284,-0.009681612,0.08225567,0.2941169738769531,0.03931023180484772,9.52855110168457,0.6851077079772949,0.436690092086792, 1.4283241033554077
113,368228921,0.9965181,0.009370256,-0.009652752,0.08228475,0.29212597012519836,0.03612704202532768,9.526653289794922,0.70984947681427,0.48499566316604614, 1.4669609069824219
114,368245588,0.9965149,0.009402932,-0.009631083,0.08232216,0.28001639246940613,0.03625357151031494,9.520489692687988,0.6786788702011108,0.44265785813331604, 1.51077139377594
115,368262255,0.9965128,0.009442959,-0.009602104,0.082347,0.2967510521411896,0.03063187375664711,9.518021583557129,0.7379339933395386,0.49146291613578796, 1.450364112854004
116,368278922,0.99651027,0.009467801,-0.0095690265,0.08237884,0.28530868887901306,0.03327197954058647,9.53620719909668,0.642475426197052,0.533173143863678, 1.5122953653335571
117,368295589,0.9965069,0.0095061315,-0.009535237,0.08241774,0.284385621547699,0.04486845061182976,9.530085563659668,0.7402902841567993,0.5335958003997803, 1.51650869846344
118,368312256,0.9965047,0.009532882,-0.009515373,0.08244373,0.27965879440307617,0.02917659655213356,9.518655776977539,0.6580734848976135,0.44870245456695557, 1.4986566305160522
119,368328923,0.9973159,0.0029808446,-0.014845814,0.07163771,0.27692461013793945,0.03742732107639313,9.52590274810791,0.6248666644096375,0.5390896797180176, 1.3952710628509521
120,368345590,0.9973153,0.0029826812,-0.014850922,0.07164363,0.3016492426395416,0.02229151874780655,9.527955055236816,0.6921127438545227,0.4316827654838562, 1.5199918746948242
121,368362257,0.99731326,0.0029809186,-0.014854155,0.071670845,0.2928031384944916,0.031184406951069832,9.51590633392334,0.6673197150230408,0.4466407001018524, 1.5403287410736084
122,368378924,0.9973129,0.002978313,-0.014845875,0.071677536,0.2810848653316498,0.037745151668787,9.52745246887207,0.6668331027030945,0.526168167591095, 1.4489938020706177
123,368395591,0.9973118,0.0029682855,-0.014853884,0.071692266,0.29495400190353394,0.040976595133543015,9.553616523742676,0.6087049841880798,0.4181080758571625, 1.5003342628479004
124,368412258,0.9973108,0.0029687623,-0.014845956,0.07170717,0.29038023948669434,0.044723913073539734,9.524694442749023,0.6883605122566223,0.5224415063858032, 1.4922536611557007
125,368428925,0.9973095,0.0029667707,-0.014846941,0.071724825,0.298775851726532,0.04190947115421295,9.551987648010254,0.6660518646240234,0.46257179975509644, 1.4731849431991577
126,368445592,0.9973087,0.00297019,-0.014845557,0.07173637,0.2918747365474701,0.029260534793138504,9.537318229675293,0.7041378617286682,0.47650501132011414, 1.4468677043914795
127,368462259,0.99730706,0.0029753954,-0.014846002,0.07175929,0.2762369215488434,0.0336979441344738,9.52881145477295,0.7161887884140015,0.4632633626461029, 1.4995275735855103
128,368478926,0.99730575,0.0029619744,-0.0148541,0.071776316,0.28992387652397156,0.0229034461081028,9.537020683288574,0.5843985676765442,0.4196832776069641, 1.465104103088379
129,368495593,0.99730515,0.002966418,-0.014852402,0.071784765,0.2770354151725769,0.025001445785164833,9.519316673278809,0.7107588648796082,0.47797781229019165, 1.387254238128662
130,368512260,0.99730563,0.0029690755,-0.014850063,0.07177885,0.27834856510162354,0.03971845284104347,9.536638259887695,0.7016150951385498,0.4833436906337738, 1.4189883470535278
131,368528927,0.9973045,0.0029637862,-0.014842858,0.07179572,0.28807148337364197,0.03729814291000366,9.534541130065918,0.6491731405258179,0.5204437375068665, 1.486401081085205
132,368545594,0.9973038,0.0029657022,-0.014837457,0.07180626,0.27743661403656006,0.03694414347410202,9.534692764282227,0.6973250508308411,0.5045254230499268, 1.4507865905761719
133,368562261,0.9973029,0.0029582183,-0.014841886,0.071819164,0.29823577404022217,0.02832730859518051,9.537303924560547,0.6284396052360535,0.4415949583053589, 1.4711742401123047
134,368578928,0.9973021,0.002952191,-0.01484388,0.071829975,0.29418930411338806,0.042141884565353394,9.52674674987793,0.6402469873428345,0.4579358398914337, 1.4761686325073242
135,368595595,0.99730086,0.0029538,-0.014858185,0.071843386,0.2888968288898468,0.03441978991031647,9.527393341064453,0.6856198906898499,0.36982813477516174, 1.4564213752746582
136,368612262,0.9973001,0.002957762,-0.014860052,0.07185356,0.2952091097831726,0.03076709806919098,9.528277397155762,0.7091068029403687,0.45418357849121094, 1.481816291809082
137,368628929,0.99729955,0.00295357,-0.014863285,0.07185968,0.2901412546634674,0.04306234419345856,9.541797637939453,0.652502715587616,0.4490354359149933, 1.4622225761413574
138,368645596,0.99729955,0.002945677,-0.014859712,0.07186217,0.2956157326698303,0.041253894567489624,9.540144920349121,0.6310265064239502,0.4977124333381653, 1.4712510108947754
139,368662263,0.99729866,0.0029412566,-0.014858803,0.071874805,0.2977994978427887,0.03092820569872856,9.512213706970215,0.653437614440918,0.47790104150772095, 1.5049190521240234
140,368678930,0.9972974,0.0029430902,-0.014856072,0.07189311,0.2841331958770752,0.03745557367801666,9.54816722869873,0.6977347135543823,0.4876210391521454, 1.5351163148880005
141,368695597,0.9972979,0.0029312705,-0.014859089,0.07188568,0.2990463972091675,0.03704117238521576,9.519083976745605,0.5999838709831238,0.45472145080566406, 1.404875636100769
142,368712264,0.9972972,0.002929128,-0.014860688,0.07189435,0.2890363931655884,0.04022311046719551,9.53841495513916,0.667896032333374,0.46002334356307983, 1.4865163564682007
143,368728931,0.9972976,0.0029242786,-0.014854355,0.071891576,0.2878182530403137,0.048302553594112396,9.535148620605469,0.6520800590515137,0.5156668424606323, 1.409511685371399
144,368745598,0.99729633,0.0029160657,-0.014845788,0.07191017,0.30260273814201355,0.033232565969228745,9.541790962219238,0.6312058568000793,0.5328274369239807, 1.5261391401290894
145,368762265,0.9972954,0.002919672,-0.014837505,0.071925275,0.2805323898792267,0.04196903109550476,9.535297393798828,0.7113608121871948,0.5252460837364197, 1.4837117195129395
146,368778932,0.99729383,0.0029221424,-0.014842778,0.07194644,0.2820720672607422,0.04420676454901695,9.529420852661133,0.6986439824104309,0.4329250454902649, 1.5675548315048218
147,368795599,0.99729174,0.0029246015,-0.014861059,0.07197129,0.2929821312427521,0.043799642473459244,9.542736053466797,0.6904224157333374,0.34344708919525146, 1.5270484685897827
148,368812266,0.99729025,0.0029233356,-0.014868104,0.0719902,0.2943147122859955,0.04040885716676712,9.521726608276367,0.6699193120002747,0.4224110245704651, 1.4927016496658325
149,368828933,0.9972895,0.002920069,-0.014871355,0.071999416,0.28560855984687805,0.03669823333621025,9.5094575881958,0.6579711437225342,0.44953492283821106, 1.4566903114318848
150,368845600,0.99728864,0.0029198914,-0.014878546,0.07201057,0.28840702772140503,0.033961426466703415,9.538721084594727,0.6778464317321777,0.42105355858802795, 1.484800100326538
151,368862267,0.9972879,0.0029197827,-0.014881177,0.0720196,0.27740931510925293,0.033496372401714325,9.534440994262695,0.680202841758728,0.4522242546081543, 1.4618384838104248
152,368878934,0.99728763,0.002924339,-0.014882604,0.07202492,0.2896185517311096,0.02289983071386814,9.536626815795898,0.7158814072608948,0.4583456516265869, 1.548191785812378
153,368895601,0.997286,0.0029210488,-0.014882565,0.07204529,0.2942253649234772,0.02957526035606861,9.525702476501465,0.6604938507080078,0.47200992703437805, 1.5136911869049072
154,368912268,0.9972846,0.0029250435,-0.014884183,0.072066456,0.3025878965854645,0.03218991309404373,9.536118507385254,0.7107460498809814,0.45728278160095215, 1.5492419004440308
155,368928935,0.9972844,0.0029174162,-0.014880296,0.07206811,0.2943446934223175,0.03222931548953056,9.526531219482422,0.6327552795410156,0.5008883476257324, 1.4456000328063965
156,368945602,0.9972842,0.0029196234,-0.014880669,0.072071776,0.2892787456512451,0.03768215700984001,9.524064064025879,0.6986184120178223,0.46696436405181885, 1.4664103984832764
157,368962269,0.9972843,0.0029246928,-0.014889881,0.07206811,0.28749626874923706,0.04036065191030502,9.538105964660645,0.7119882106781006,0.40473824739456177, 1.3787635564804077
158,368978936,0.9972837,0.0029321848,-0.014882982,0.072077975,0.2922188639640808,0.03326187655329704,9.530125617980957,0.7400854229927063,0.5144246816635132, 1.5431971549987793
159,368995603,0.99728274,0.0029326763,-0.014889916,0.07208998,0.2857111096382141,0.04702894389629364,9.531763076782227,0.6839167475700378,0.42292332649230957, 1.5055081844329834
160,369012270,0.99728215,0.0029313993,-0.0148893045,0.072098,0.28787389397621155,0.029940033331513405,9.54155158996582,0.67540043592453,0.47553175687789917, 1.4919332265853882
161,369028937,0.9972818,0.002919389,-0.014890925,0.07210395,0.2741281986236572,0.03383675217628479,9.538374900817871,0.6012901663780212,0.4655684232711792, 1.5006159543991089
162,369045604,0.9972806,0.0029153542,-0.014892286,0.07212061,0.2936786711215973,0.02942829579114914,9.528509140014648,0.6553969979286194,0.46308404207229614, 1.5117961168289185
163,369062271,0.99727905,0.0029168657,-0.014890906,0.07214078,0.2889459729194641,0.03440297394990921,9.546632766723633,0.6961084008216858,0.47933536767959595, 1.5623172521591187
164,369078938,0.99727863,0.0029066193,-0.014894506,0.07214693,0.2894986867904663,0.041840560734272,9.515870094299316,0.6120474338531494,0.4509051442146301, 1.4823414087295532
165,369095605,0.9972775,0.0029092075,-0.014892865,0.07216235,0.2882002294063568,0.04179026186466217,9.530521392822266,0.7019223570823669,0.48042377829551697, 1.490268349647522
166,369112272,0.9972766,0.0029194297,-0.014887125,0.07217449,0.2862439751625061,0.036114323884248734,9.540549278259277,0.7573099136352539,0.504871129989624, 1.5138963460922241
167,369128939,0.9972759,0.0029153293,-0.014888573,0.072185636,0.30135056376457214,0.04481692239642143,9.550252914428711,0.6548335552215576,0.46257179975509644, 1.4875537157058716
168,369145606,0.99727565,0.0029242355,-0.014889403,0.07218735,0.28428030014038086,0.04315470904111862,9.536385536193848,0.7431204319000244,0.4603818655014038, 1.4174259901046753
169,369162273,0.9972752,0.0029287478,-0.014889468,0.072194025,0.28018054366111755,0.026507597416639328,9.530905723571777,0.7145111560821533,0.46788647770881653, 1.4754133224487305
170,369178940,0.99727374,0.002921711,-0.014884857,0.07221479,0.294750452041626,0.03298505023121834,9.526468276977539,0.6385438442230225,0.5056908130645752, 1.549472451210022
171,369195607,0.9972727,0.002915733,-0.01488699,0.07222955,0.28642594814300537,0.034209903329610825,9.53749942779541,0.6418734788894653,0.45892196893692017, 1.5087482929229736
172,369212274,0.99727255,0.0029193473,-0.014883354,0.07223217,0.28857851028442383,0.03644043952226639,9.52873706817627,0.7085945010185242,0.49344781041145325, 1.4003678560256958
173,369228941,0.997272,0.0029179652,-0.01487876,0.07223992,0.29357850551605225,0.043466951698064804,9.524855613708496,0.6763354539871216,0.5026812553405762, 1.4679856300354004
174,369245608,0.9972714,0.0029171156,-0.0148728695,0.07225102,0.2854824364185333,0.03208081051707268,9.554920196533203,0.6810864806175232,0.5114791989326477, 1.498016357421875
175,369262275,0.9972707,0.0029128648,-0.014873485,0.07225941,0.28247779607772827,0.03389318287372589,9.53493881225586,0.6550512313842773,0.46851393580436707, 1.5033183097839355
176,369278942,0.99727046,0.0029152564,-0.014874655,0.07226284,0.2921214997768402,0.03260119631886482,9.531699180603027,0.6998350620269775,0.4612783193588257, 1.4686131477355957
177,369295609,0.9972695,0.0029138806,-0.014878405,0.07227547,0.2818259596824646,0.036509543657302856,9.542440414428711,0.6732234358787537,0.44555214047431946, 1.515497088432312
178,369312276,0.9972689,0.0029132292,-0.014878964,0.072283216,0.2889691889286041,0.030940698459744453,9.535776138305664,0.6791015863418579,0.4669259190559387, 1.4752724170684814
179,369328943,0.9972685,0.002912917,-0.014883443,0.07228937,0.2853451371192932,0.025789108127355576,9.523663520812988,0.6792296171188354,0.4398532807826996, 1.4582910537719727
180,369345610,0.9972683,0.0029183524,-0.014879295,0.07229267,0.2852696180343628,0.03442210704088211,9.550615310668945,0.7231040596961975,0.49611160159111023, 1.4491984844207764
181,369362277,0.99726784,0.0029205042,-0.014880018,0.07229912,0.29543548822402954,0.03031942993402481,9.536771774291992,0.6981446743011475,0.46430063247680664, 1.4583936929702759
182,369378944,0.997267,0.0029047094,-0.01488645,0.07230888,0.2893122434616089,0.04522525891661644,9.521347999572754,0.5732954740524292,0.4342440962791443, 1.5036126375198364
183,369395611,0.9972656,0.0029046657,-0.014881312,0.07232903,0.29670530557632446,0.045467086136341095,9.535478591918945,0.687233567237854,0.5058316588401794, 1.5468087196350098
184,369412278,0.99726415,0.002901699,-0.014891274,0.07234691,0.28863850235939026,0.03779805451631546,9.539811134338379,0.6582784056663513,0.403675377368927, 1.4966973066329956
185,369428945,0.9972633,0.002907976,-0.014888357,0.07235903,0.27866095304489136,0.0463653989136219,9.530488014221191,0.7297635078430176,0.48758262395858765, 1.5320301055908203
186,369445612,0.99726236,0.0029015543,-0.014891908,0.07237098,0.28526797890663147,0.03461845964193344,9.524191856384277,0.6381468176841736,0.44930440187454224, 1.4929323196411133
187,369462279,0.99726117,0.0028970127,-0.014901167,0.07238534,0.28509587049484253,0.0396166555583477,9.541080474853516,0.647892415523529,0.40913084149360657, 1.4905757904052734
188,369478946,0.99726003,0.0029044966,-0.014909175,0.072399996,0.2890256345272064,0.03678222745656967,9.538752555847168,0.731082558631897,0.41170498728752136, 1.4944435358047485
189,369495613,0.9972598,0.0028940374,-0.014916019,0.07240308,0.2723400592803955,0.042687222361564636,9.530123710632324,0.6087177991867065,0.428634911775589, 1.4601223468780518
190,369512280,0.9972596,0.0028910441,-0.014918548,0.072403714,0.27908948063850403,0.04510980844497681,9.526920318603516,0.6611470580101013,0.45420923829078674, 1.4214856624603271
191,369528947,0.9972596,0.002895855,-0.014918365,0.07240417,0.2864818871021271,0.03417568653821945,9.521781921386719,0.7173029184341431,0.46901336312294006, 1.4671787023544312
192,369545614,0.9972595,0.0028917633,-0.014923192,0.07240504,0.28808900713920593,0.034482210874557495,9.539270401000977,0.6529510021209717,0.4389440715312958, 1.4411048889160156
193,369562281,0.9972588,0.002893731,-0.01491337,0.07241694,0.2812059223651886,0.03811772167682648,9.516661643981934,0.7037666440010071,0.5366308689117432, 1.5439528226852417
194,369578948,0.9972585,0.0028914085,-0.014914766,0.07242063,0.28905194997787476,0.02815721370279789,9.544941902160645,0.6679984927177429,0.46164971590042114, 1.490460753440857
195,369595615,0.9972572,0.0028926106,-0.014913897,0.0724392,0.29090002179145813,0.026463892310857773,9.518850326538086,0.6928555965423584,0.4753653109073639, 1.5230913162231445
196,369612282,0.9972568,0.002886719,-0.014908858,0.07244454,0.2921609878540039,0.0325247123837471,9.544839859008789,0.6466503143310547,0.5075733065605164, 1.4872719049453735
197,369628949,0.9972559,0.002881352,-0.014919009,0.072455235,0.2738874554634094,0.033232029527425766,9.556851387023926,0.6417325735092163,0.403060644865036, 1.4720066785812378
198,369645616,0.9972551,0.0028714149,-0.014922113,0.07246656,0.29185619950294495,0.036059290170669556,9.53219985961914,0.6145831346511841,0.45358166098594666, 1.4961081743240356
199,369662283,0.9972552,0.0028784012,-0.0149182025,0.07246604,0.29534852504730225,0.03839040547609329,9.531325340270996,0.7325680255889893,0.493102103471756, 1.4024810791015625
200,369678950,0.9972548,0.0028711378,-0.014913339,0.07247237,0.28501904010772705,0.042057912796735764,9.533744812011719,0.6377370357513428,0.5070865750312805, 1.5073009729385376
201,369695617,0.9972546,0.00287195,-0.014919245,0.07247448,0.2892773151397705,0.04867745190858841,9.551450729370117,0.686593234539032,0.4290447533130646, 1.455230474472046
202,369712284,0.99725395,0.0028701434,-0.014937177,0.07248002,0.28314876556396484,0.03627440705895424,9.550955772399902,0.661876916885376,0.34781405329704285, 1.4471880197525024
203,369728951,0.9972538,0.002859697,-0.014938516,0.07248315,0.27871692180633545,0.02599046565592289,9.518338203430176,0.6126750111579895,0.46606793999671936, 1.4984647035598755
204,369745618,0.99725395,0.0028590006,-0.014945415,0.07247736,0.29995569586753845,0.040399592369794846,9.545763969421387,0.675835907459259,0.4228336811065674, 1.4324222803115845
205,369762285,0.99725336,0.002859479,-0.014954088,0.07248401,0.28318023681640625,0.02314103953540325,9.52587604522705,0.6823287010192871,0.41014254093170166, 1.454167366027832
206,369778952,0.9972528,0.002853368,-0.014958535,0.07249013,0.278250128030777,0.031490735709667206,9.542244911193848,0.6400549411773682,0.4424273371696472, 1.4752466678619385
207,369795619,0.99725187,0.0028464114,-0.014961368,0.07250248,0.29566410183906555,0.03572254627943039,9.550230026245117,0.6360210180282593,0.45391470193862915, 1.5271508693695068
208,369812286,0.9972515,0.0028499446,-0.014952339,0.07251156,0.28402966260910034,0.0468754805624485,9.543707847595215,0.7132944464683533,0.5300356149673462, 1.4955703020095825
209,369828953,0.99725145,0.002848397,-0.014946297,0.07251388,0.2823422849178314,0.05475233495235443,9.527929306030273,0.6766171455383301,0.5120043158531189, 1.4651553630828857
210,369845620,0.9972514,0.0028443916,-0.014946305,0.07251302,0.29142898321151733,0.03770232945680618,9.53767204284668,0.657061755657196,0.4717154800891876, 1.4701752662658691
211,369862287,0.997251,0.0028492482,-0.014953617,0.07251678,0.29127299785614014,0.03968377038836479,9.52962589263916,0.714536726474762,0.41728851199150085, 1.4968382120132446
212,369878954,0.9972513,0.0028488222,-0.0149533255,0.07251311,0.27716127038002014,0.04987320676445961,9.526459693908691,0.680202841758728,0.4718691110610962, 1.4105616807937622
213,369895621,0.99725014,0.0028506112,-0.014955528,0.072529204,0.27440357208251953,0.044508613646030426,9.531420707702637,0.6950966715812683,0.45369696617126465, 1.5137425661087036
214,369912288,0.9972504,0.0028477262,-0.014960743,0.07252516,0.2806723415851593,0.04538757726550102,9.522281646728516,0.6616976857185364,0.4352685809135437, 1.4529764652252197
215,369928955,0.9972495,0.0028487544,-0.014963355,0.07253724,0.28025487065315247,0.04297029972076416,9.523303031921387,0.6902303099632263,0.45114850997924805, 1.5238468647003174
216,369945622,0.9972496,0.0028426906,-0.014967602,0.07253482,0.27932170033454895,0.038404256105422974,9.549407958984375,0.6384157538414001,0.4431445598602295, 1.3969616889953613
217,369962289,0.9972489,0.0028385809,-0.014973084,0.07254369,0.29149770736694336,0.03993986174464226,9.511859893798828,0.6534631848335266,0.43387269973754883, 1.511450171470642
218,369978956,0.99724907,0.0028388062,-0.014967944,0.07254211,0.2804935574531555,0.035915885120630264,9.531694412231445,0.6866956949234009,0.5043973326683044, 1.4156330823898315
219,369995623,0.99724853,0.0028366416,-0.014965172,0.07254908,0.28495365381240845,0.04819425567984581,9.502735137939453,0.6710720062255859,0.4894779324531555, 1.5103360414505005
220,370012290,0.9972474,0.0028390654,-0.01497931,0.07256232,0.2869206666946411,0.03489736467599869,9.523748397827148,0.6938031911849976,0.37121129035949707, 1.5245896577835083
221,370028957,0.99724585,0.0028433243,-0.0149827115,0.07258282,0.2831681966781616,0.04497375339269638,9.53958797454834,0.7117321491241455,0.44390013813972473, 1.5480892658233643
222,370045624,0.9972453,0.002848618,-0.014989857,0.07258845,0.2943606376647949,0.0361776240170002,9.531707763671875,0.7163937091827393,0.41759586334228516, 1.481240153312683
223,370062291,0.99724495,0.0028450736,-0.014988574,0.07259343,0.28275832533836365,0.04016152024269104,9.538500785827637,0.6605067849159241,0.47991156578063965, 1.4946738481521606
224,370078958,0.99724454,0.0028284367,-0.014984169,0.07260078,0.2903591990470886,0.0415990836918354,9.526266098022461,0.5708237886428833,0.5076629519462585, 1.457625150680542
225,370095625,0.9972435,0.0028355187,-0.0149809,0.072616056,0.2896510362625122,0.03621303290128708,9.530404090881348,0.7342840433120728,0.4881972074508667, 1.5290716886520386
226,370112292,0.99724215,0.0028358058,-0.014984377,0.07263238,0.2893594205379486,0.029201220721006393,9.538811683654785,0.6837886571884155,0.4452703595161438, 1.5151513814926147
227,370128959,0.9972418,0.0028328458,-0.014985881,0.072637185,0.27862223982810974,0.03577692061662674,9.517705917358398,0.6613262891769409,0.46031782031059265, 1.435854196548462
228,370145626,0.9972404,0.002826502,-0.014986931,0.07265596,0.29289770126342773,0.03900328651070595,9.524182319641113,0.6386975049972534,0.4650561809539795, 1.4946738481521606
229,370162293,0.99724,0.0028263286,-0.0149854245,0.07266186,0.2941203713417053,0.03694143146276474,9.527050971984863,0.6823543310165405,0.4795657694339752, 1.4534245729446411
230,370178960,0.9972402,0.0028128657,-0.014990859,0.07265969,0.28596559166908264,0.033211175352334976,9.50908374786377,0.587740957736969,0.4386366605758667, 1.4267234802246094
231,370195627,0.99724054,0.0028144664,-0.0149889905,0.07265537,0.2900356650352478,0.03682972863316536,9.53582763671875,0.6944819092750549,0.4811665415763855, 1.4097037315368652
232,370212294,0.9972401,0.0028215428,-0.014988924,0.0726609,0.2907617688179016,0.04009801894426346,9.527371406555176,0.7319149971008301,0.46618321537971497, 1.4696760177612305
233,370228961,0.99724054,0.0028201002,-0.014987308,0.07265555,0.2936420738697052,0.03735821694135666,9.505012512207031,0.6733514666557312,0.4809744954109192, 1.4038769006729126
234,370245628,0.9972403,0.0028179728,-0.014986116,0.07265873,0.2914954423904419,0.030045077204704285,9.536303520202637,0.6685234308242798,0.47845160961151123, 1.4354956150054932
235,370262295,0.9972399,0.0028153183,-0.014984028,0.07266501,0.29562628269195557,0.04408794641494751,9.544198036193848,0.6667433977127075,0.48503410816192627, 1.48996102809906
236,370278962,0.9972396,0.00281457,-0.014982407,0.07266857,0.288337767124176,0.04551736265420914,9.514296531677246,0.6796650886535645,0.4809361398220062, 1.4845954179763794
237,370295629,0.99723977,0.0028184599,-0.014977322,0.07266686,0.3008784055709839,0.040949784219264984,9.504293441772461,0.711309552192688,0.5021818280220032, 1.4056955575942993
238,370312296,0.99723864,0.0028127183,-0.01497839,0.0726845,0.2926187813282013,0.05252022296190262,9.535048484802246,0.6436343193054199,0.46506255865097046, 1.522995114326477
239,370328963,0.9972384,0.0030521604,-0.014894025,0.072694406,0.2817491590976715,0.03836170211434364,9.532384872436523,0.7023321986198425,0.4771837592124939, 1.4542057514190674
240,370345630,0.9972386,0.0030541387,-0.014895025,0.07269158,0.2831484079360962,0.03257222846150398,9.525641441345215,0.6882965564727783,0.4595623016357422, 1.416632056236267
241,370362297,0.9972383,0.0030505327,-0.014895399,0.07269583,0.2854907512664795,0.03568364679813385,9.522457122802734,0.6521570086479187,0.46686190366744995, 1.503484845161438
242,370378964,0.99723804,0.0030470989,-0.014891977,0.072699375,0.2838722765445709,0.033795811235904694,9.5258207321167,0.6551023721694946,0.49275636672973633, 1.4953268766403198
243,370395631,0.99723643,0.0030468153,-0.0149044525,0.07271894,0.2827467620372772,0.03030487895011902,9.517376899719238,0.6685106754302979,0.3820582330226898, 1.5403286218643188
244,370412298,0.99723715,0.0030420565,-0.014899941,0.072709724,0.2942192852497101,0.027290910482406616,9.528680801391602,0.6471753716468811,0.5009012222290039, 1.4695736169815063
245,370428965,0.9972363,0.0030372432,-0.0149026215,0.07272239,0.29361775517463684,0.03280828148126602,9.522418022155762,0.6427443027496338,0.45158395171165466, 1.5285851955413818
246,370445632,0.9972355,0.003035506,-0.014897709,0.07273532,0.29094234108924866,0.03593188896775246,9.540119171142578,0.6673580408096313,0.5020921230316162, 1.516752004623413
247,370462299,0.99723536,0.0030342566,-0.014903824,0.07273614,0.2839099168777466,0.04625967890024185,9.52592945098877,0.6636314392089844,0.42603522539138794, 1.4255836009979248
248,370478966,0.9972353,0.0030334187,-0.014901248,0.072737835,0.2871324121952057,0.049699049443006516,9.536312103271484,0.6718146800994873,0.4855463206768036, 1.4648478031158447
249,370495633,0.9972346,0.003041428,-0.01490169,0.072747596,0.2931254506111145,0.03867947682738304,9.513727188110352,0.731492280960083,0.4604586958885193, 1.5098494291305542
250,370512300,0.99723446,0.0030491734,-0.014905378,0.07274651,0.2888330817222595,0.025896500796079636,9.537099838256836,0.7266899347305298,0.43821412324905396, 1.4292335510253906
251,370528967,0.9972341,0.0030439047,-0.014902538,0.07275221,0.2820426821708679,0.03312058374285698,9.517413139343262,0.6414892673492432,0.48960599303245544, 1.4762840270996094
252,370545634,0.9972342,0.0030436425,-0.01490078,0.07275109,0.2878141403198242,0.020256077870726585,9.528136253356934,0.6753748059272766,0.47960421442985535, 1.454321026802063
253,370562301,0.99723375,0.0030364608,-0.014896004,0.07275846,0.27854835987091064,0.039886921644210815,9.542842864990234,0.6306039690971375,0.5039234757423401, 1.5200691223144531
254,370578968,0.99723285,0.0030358292,-0.014894548,0.072770774,0.2847139537334442,0.03360976278781891,9.5194673538208,0.6740174889564514,0.477811336517334, 1.5405336618423462
255,370595635,0.9972339,0.0030310545,-0.014892773,0.0727568,0.2841683626174927,0.03965425491333008,9.535538673400879,0.6441274285316467,0.48184531927108765, 1.3969359397888184
256,370612302,0.997234,0.003031628,-0.014899859,0.07275454,0.29137900471687317,0.034878458827733994,9.532564163208008,0.6759383082389832,0.418325811624527, 1.4231889247894287
257,370628969,0.99723405,0.0030296973,-0.014902878,0.07275301,0.2939876914024353,0.03992379084229469,9.538640975952148,0.6613006591796875,0.44756269454956055, 1.4433716535568237
258,370645636,0.99723434,0.0030307046,-0.014903005,0.07274951,0.29724302887916565,0.03359903395175934,9.529568672180176,0.6825591921806335,0.46592700481414795, 1.4270180463790894
259,370662303,0.9972345,0.0030257206,-0.0149062835,0.07274582,0.30274730920791626,0.0412350557744503,9.54138469696045,0.6400421261787415,0.44735783338546753, 1.4283242225646973
260,370678970,0.99723464,0.003032564,-0.014909568,0.07274282,0.29134416580200195,0.04251392185688019,9.53293514251709,0.7218492031097412,0.44158217310905457, 1.4557043313980103
261,370695637,0.99723434,0.0030329002,-0.014917995,0.07274627,0.30103403329849243,0.04475168138742447,9.55087947845459,0.6749778985977173,0.40963032841682434, 1.4897692203521729
262,370712304,0.9972339,0.0030364974,-0.014920273,0.07275109,0.29287001490592957,0.030330048874020576,9.538111686706543,0.6999117732048035,0.4501752257347107, 1.4799848794937134
263,370728971,0.99723417,0.003029591,-0.014919622,0.07274811,0.2786383330821991,0.026536816731095314,9.514471054077148,0.6288493871688843,0.4754677712917328, 1.4360719919204712
264,370745638,0.9972342,0.0030268396,-0.014914423,0.072748326,0.2846980094909668,0.03261418640613556,9.535226821899414,0.660609245300293,0.5046021938323975, 1.4762327671051025
265,370762305,0.9972347,0.0030189177,-0.014913273,0.07274194,0.2837757468223572,0.03875384107232094,9.516605377197266,0.621677815914154,0.4792712330818176, 1.406886339187622
266,370778972,0.99723417,0.003016845,-0.014909773,0.07274993,0.28338494896888733,0.0427539199590683,9.530221939086914,0.6631705164909363,0.4924362003803253, 1.4616464376449585
267,370795639,0.9972343,0.003018609,-0.014915223,0.07274915,0.29419180750846863,0.03193553164601326,9.531730651855469,0.6865549087524414,0.4293009042739868, 1.4833531379699707
268,370812306,0.9972338,0.0030251723,-0.01492156,0.07275314,0.2884717881679535,0.03069479949772358,9.538728713989258,0.7180200815200806,0.42068222165107727, 1.4664745330810547
269,370828973,0.9972326,0.0030213278,-0.014923499,0.07276941,0.2840370237827301,0.04427914321422577,9.523697853088379,0.6495189070701599,0.45615583658218384, 1.5307495594024658
270,370845640,0.99723226,0.0030223306,-0.014926846,0.07277297,0.2928653657436371,0.04157308489084244,9.542133331298828,0.6805486083030701,0.4438616633415222, 1.4386461973190308
271,370862307,0.99723226,0.0030258305,-0.014921882,0.07277426,0.28951215744018555,0.03740754723548889,9.534299850463867,0.7023578882217407,0.49969738721847534, 1.4487119913101196
272,370878974,0.9972315,0.003019076,-0.014921549,0.07278525,0.2940886914730072,0.031029807403683662,9.536341667175293,0.6312057971954346,0.47327789664268494, 1.5327215194702148
273,370895641,0.99723077,0.0030226177,-0.014915812,0.07279553,0.28695741295814514,0.031376902014017105,9.535051345825195,0.703190267086029,0.5050248503684998, 1.4836091995239258
274,370912308,0.9972295,0.0030239713,-0.014917612,0.072812125,0.28295788168907166,0.03646985813975334,9.531035423278809,0.6854918599128723,0.45454221963882446, 1.5410714149475098
275,370928975,0.9972295,0.0030225334,-0.014913043,0.07281329,0.29046693444252014,0.03803708404302597,9.540176391601562,0.6687795519828796,0.49950525164604187, 1.464476466178894
276,370945642,0.9972295,0.0030264652,-0.014910503,0.07281474,0.2914363145828247,0.03135939687490463,9.555453300476074,0.7051240801811218,0.48295947909355164, 1.4819828271865845
277,370962309,0.9972293,0.0030336909,-0.014905456,0.07281741,0.29499369859695435,0.04120925813913345,9.526932716369629,0.7284059524536133,0.498429536819458, 1.4677804708480835
278,370978976,0.9972282,0.0030282137,-0.014912247,0.072829776,0.28356537222862244,0.029001614078879356,9.534608840942383,0.6363539099693298,0.4237684905529022, 1.5344375371932983
279,370995643,0.99722743,0.0030250966,-0.014909351,0.07284259,0.2908799946308136,0.028169123455882072,9.512242317199707,0.6573947668075562,0.48900413513183594, 1.5348860025405884
280,371012310,0.99722683,0.003022215,-0.014908195,0.07285104,0.2965722978115082,0.023309553042054176,9.53123664855957,0.6577405333518982,0.4769149124622345, 1.505354642868042
281,371028977,0.9972269,0.0030209103,-0.014903374,0.072850585,0.2778770923614502,0.03160464018583298,9.54759693145752,0.669752836227417,0.5011700391769409, 1.452041506767273
282,371045644,0.99722576,0.0030204656,-0.0149137275,0.072865464,0.2830515503883362,0.04904046282172203,9.511598587036133,0.6699322462081909,0.39691364765167236, 1.5665817260742188
283,371062311,0.99722534,0.0030224153,-0.014903981,0.07287214,0.3005669116973877,0.0196844432502985,9.527519226074219,0.695263147354126,0.5333396792411804, 1.5005265474319458
284,371078978,0.9972249,0.0030163005,-0.014904085,0.07287798,0.2882921099662781,0.03339897468686104,9.532437324523926,0.6341000199317932,0.4697689414024353, 1.4665000438690186
285,371095645,0.9972258,0.0030116183,-0.014914059,0.07286443,0.2996661961078644,0.03437802940607071,9.53447151184082,0.6379290819168091,0.4012293517589569, 1.3629989624023438
286,371112312,0.99722606,0.0030087165,-0.014911853,0.072861485,0.28337571024894714,0.026900893077254295,9.538420677185059,0.6570490002632141,0.4840352237224579, 1.428554892539978
287,371128979,0.9972256,0.0030045838,-0.014913547,0.072868265,0.2686769366264343,0.037197910249233246,9.529716491699219,0.6481229662895203,0.4580383598804474, 1.5087225437164307
288,371145646,0.9972251,0.003001653,-0.014924395,0.07287251,0.2827405631542206,0.04844880849123001,9.538385391235352,0.6517598628997803,0.3945572078227997, 1.4999115467071533
289,371162313,0.99722415,0.0030014352,-0.014930101,0.072885044,0.29519566893577576,0.027136852964758873,9.547734260559082,0.6731722354888916,0.4284684658050537, 1.537306308746338
290,371178980,0.9972239,0.003005817,-0.014928034,0.0728884,0.2968400716781616,0.038193847984075546,9.528377532958984,0.7084153294563293,0.4794761836528778, 1.4973121881484985
291,371195647,0.9972237,0.003015736,-0.014927468,0.07289106,0.28777119517326355,0.03360559418797493,9.520858764648438,0.7455281019210815,0.46642646193504333, 1.491421103477478
292,371212314,0.99722373,0.0030214346,-0.0149251735,0.07289068,0.27770256996154785,0.0314566008746624,9.51034927368164,0.7169827818870544,0.48033422231674194, 1.4652706384658813
293,371228981,0.99722373,0.0030239376,-0.014927982,0.07288998,0.28328824043273926,0.02979428879916668,9.528436660766602,0.6931500434875488,0.44696080684661865, 1.4860295057296753
294,371245648,0.9972234,0.0030249646,-0.014935404,0.072893135,0.2853392958641052,0.04263438656926155,9.514856338500977,0.6796266436576843,0.4158926010131836, 1.4633495807647705
295,371262315,0.9972233,0.003023905,-0.014939799,0.07289273,0.28669896721839905,0.040442150086164474,9.530041694641113,0.6680368185043335,0.437829852104187, 1.4917668104171753
296,371278982,0.99722266,0.0030258356,-0.014941244,0.07290146,0.2869703769683838,0.04382406547665596,9.523669242858887,0.6895642876625061,0.4565143287181854, 1.5092090368270874
297,371295649,0.9972226,0.0030212447,-0.014942547,0.072902754,0.2853781282901764,0.036853622645139694,9.523538589477539,0.6442042589187622,0.46066367626190186, 1.4609036445617676
298,371312316,0.99722284,0.003012769,-0.014935209,0.07290102,0.28944242000579834,0.05753577500581741,9.529909133911133,0.6225230693817139,0.5219164490699768, 1.470931053161621
299,371328983,0.99722284,0.003003932,-0.014935077,0.072901025,0.2835695445537567,0.039281632751226425,9.529897689819336,0.6155948638916016,0.47258633375167847, 1.4537192583084106
300,371345650,0.9972236,0.003000396,-0.014925791,0.07289164,0.2956109642982483,0.038690581917762756,9.519003868103027,0.6562677621841431,0.5326224565505981, 1.4109587669372559
301,371362317,0.9972232,0.0030073498,-0.014934488,0.07289723,0.2804434895515442,0.03689831122756004,9.537102699279785,0.7196465134620667,0.4041875898838043, 1.4787300825119019
302,371378984,0.99722165,0.0029984815,-0.014935562,0.07291771,0.2800825536251068,0.042231444269418716,9.531911849975586,0.615915060043335,0.4644415080547333, 1.562368392944336
303,371395651,0.997221,0.0029922735,-0.014936643,0.072926566,0.2832355201244354,0.03257083147764206,9.51785945892334,0.6334725022315979,0.462956041097641, 1.5016406774520874
304,371412318,0.9972217,0.0029908197,-0.014937072,0.07291685,0.27883538603782654,0.05194026231765747,9.521477699279785,0.6653474569320679,0.46487686038017273, 1.400777816772461
305,371428985,0.99722147,0.00298393,-0.014930183,0.07292137,0.28793153166770935,0.03277653083205223,9.531115531921387,0.63187175989151,0.517767071723938, 1.456498146057129
306,371445652,0.9972209,0.0029837915,-0.014929746,0.07292977,0.2845766246318817,0.04626942425966263,9.531539916992188,0.6761177182197571,0.4702683985233307, 1.5094014406204224
307,371462319,0.9972208,0.0029896626,-0.014927339,0.072931565,0.28926944732666016,0.029263310134410858,9.541051864624023,0.7178536653518677,0.4807056188583374, 1.471571445465088
308,371478986,0.997221,0.0029880987,-0.0149268145,0.07292926,0.2950167953968048,0.03922797739505768,9.547264099121094,0.6656036376953125,0.47145935893058777, 1.4469060897827148
309,371495653,0.9972203,0.0029890765,-0.014929035,0.072938174,0.2903381884098053,0.031828563660383224,9.531951904296875,0.6828922033309937,0.45154550671577454, 1.5245641469955444
310,371512320,0.9972205,0.0029975805,-0.014934591,0.072933085,0.2852665185928345,0.03840729221701622,9.521162033081055,0.730339765548706,0.424588143825531, 1.3941056728363037
311,371528987,0.9972202,0.0030004054,-0.014937749,0.07293645,0.2886439561843872,0.026661522686481476,9.512445449829102,0.6935086846351624,0.44397690892219543, 1.454743504524231
312,371545654,0.99722034,0.003007718,-0.014928411,0.07293642,0.28310608863830566,0.028466971591114998,9.508999824523926,0.7310441136360168,0.527512788772583, 1.45731782913208
313,371562321,0.99722093,0.0030115943,-0.01493065,0.07292738,0.2785230576992035,0.027241919189691544,9.520898818969727,0.7018968462944031,0.44980382919311523, 1.4343175888061523
314,371578988,0.99722,0.0030075675,-0.014931484,0.07294062,0.2944627106189728,0.01946994848549366,9.52463436126709,0.6480589509010315,0.4633401930332184, 1.4974018335342407
315,371595655,0.99721926,0.0030003313,-0.014920681,0.07295253,0.294135719537735,0.03588442876935005,9.541580200195312,0.6324352622032166,0.5448525547981262, 1.509887933731079
316,371612322,0.99721926,0.0030064736,-0.014916736,0.07295369,0.2823607623577118,0.04057003930211067,9.529603958129883,0.7198256850242615,0.491014689207077, 1.4419372081756592
317,371628989,0.9972197,0.0030093896,-0.014917069,0.07294754,0.28615644574165344,0.039699602872133255,9.525351524353027,0.6958906054496765,0.46328890323638916, 1.4287594556808472
318,371645656,0.9972194,0.0030141433,-0.01491849,0.07295199,0.28741326928138733,0.04709864780306816,9.515819549560547,0.708428144454956,0.4549904465675354, 1.4826104640960693
319,371662323,0.9972189,0.0030097885,-0.01492611,0.0729567,0.27875444293022156,0.03500121086835861,9.520575523376465,0.6424497365951538,0.4170067608356476, 1.4726725816726685
320,371678990,0.9972186,0.003002378,-0.014929341,0.07295995,0.29458290338516235,0.04022100940346718,9.536910057067871,0.6239573955535889,0.44859999418258667, 1.4737355709075928
321,371695657,0.99721867,0.003004302,-0.014930998,0.072959095,0.29917511343955994,0.041327934712171555,9.536158561706543,0.6888087391853333,0.45473429560661316, 1.461633563041687
322,371712324,0.9972183,0.0030000599,-0.01492739,0.072964564,0.28346988558769226,0.03821132332086563,9.53104305267334,0.6472905278205872,0.49378079175949097, 1.4226125478744507
323,371728991,0.9972183,0.003000128,-0.014936445,0.07296316,0.3015066981315613,0.021610470488667488,9.535962104797363,0.67176353931427,0.4048919677734375, 1.442116618156433
324,371745658,0.99721795,0.0030088879,-0.014938523,0.07296735,0.2928023636341095,0.03557048365473747,9.53331470489502,0.7353854775428772,0.4484848082065582, 1.4748753309249878
325,371762325,0.99721736,0.0030133422,-0.014935008,0.072976574,0.28627079725265503,0.031885482370853424,9.510735511779785,0.7091836333274841,0.4890553057193756, 1.5113860368728638
326,371778992,0.99721694,0.0030164937,-0.014934836,0.07298218,0.29103395342826843,0.05342375859618187,9.526561737060547,0.6984776258468628,0.46678510308265686, 1.4937134981155396
327,371795659,0.9972164,0.0030183478,-0.014940395,0.07298847,0.282329797744751,0.04979496821761131,9.526796340942383,0.6859528422355652,0.42807143926620483, 1.4744142293930054
328,371812326,0.9972156,0.003022065,-0.0149364155,0.072998405,0.2910917401313782,0.03301280364394188,9.546615600585938,0.7051305174827576,0.49271154403686523, 1.5406936407089233
329,371828993,0.99721557,0.0030211802,-0.014931482,0.073000304,0.2922157943248749,0.041458334773778915,9.533992767333984,0.6725703477859497,0.5013750195503235, 1.464194893836975
330,371845660,0.9972157,0.0030116297,-0.014922909,0.072999835,0.2896985411643982,0.04466214403510094,9.510351181030273,0.6158381700515747,0.5308296084403992, 1.4864267110824585
331,371862327,0.9972151,0.0030136576,-0.014918129,0.07301064,0.28690677881240845,0.05138584226369858,9.531965255737305,0.69367516040802,0.49906986951828003, 1.5363714694976807
332,371878994,0.9972147,0.0030096113,-0.014913738,0.07301742,0.28529611229896545,0.03928177431225777,9.53310489654541,0.6510171890258789,0.4993516206741333, 1.497196912765503
333,371895661,0.9972131,0.0030126346,-0.014921451,0.07303717,0.2910800874233246,0.05012980476021767,9.526609420776367,0.6940721869468689,0.4128447473049164, 1.5645326375961304
334,371912328,0.99721265,0.0030091482,-0.014923311,0.073043734,0.27308645844459534,0.029013022780418396,9.526405334472656,0.6515551209449768,0.45616865158081055, 1.494712471961975
335,371928995,0.9972127,0.0030082776,-0.014925492,0.07304217,0.2851198613643646,0.02793213352560997,9.524447441101074,0.6683440804481506,0.45246750116348267, 1.4321403503417969
336,371945662,0.9972124,0.0030061859,-0.014924815,0.07304632,0.28162074089050293,0.026416242122650146,9.53283977508545,0.6624148488044739,0.47279125452041626, 1.484877109527588
337,371962329,0.99721265,0.003006496,-0.014923129,0.07304309,0.29523536562919617,0.031241657212376595,9.528014183044434,0.6788326501846313,0.47840043902397156, 1.4383643865585327
338,371978996,0.99721265,0.0030064445,-0.014912861,0.073045686,0.28738638758659363,0.03326602280139923,9.555157661437988,0.6813939213752747,0.5375401377677917, 1.4834556579589844
339,371995663,0.99721265,0.0030065924,-0.014910424,0.07304627,0.2819214165210724,0.040795888751745224,9.539460182189941,0.6777824759483337,0.4835997521877289, 1.4411689043045044
340,372012330,0.9972129,0.003000437,-0.014916487,0.0730406,0.29312360286712646,0.036709509789943695,9.52284049987793,0.6302068829536438,0.4284556210041046, 1.4182329177856445
341,372028997,0.99721146,0.0030134176,-0.014919229,0.0730585,0.2841751277446747,0.03741062805056572,9.54593276977539,0.7653394937515259,0.4419151246547699, 1.5746240615844727
342,372045664,0.99721086,0.0030196153,-0.014924174,0.073067114,0.30309343338012695,0.040204647928476334,9.549671173095703,0.7168547511100769,0.4300948679447174, 1.512039303779602
343,372062331,0.9972095,0.0030139596,-0.014922823,0.07308442,0.28269270062446594,0.03445080295205116,9.543377876281738,0.6391714215278625,0.47929689288139343, 1.5589362382888794
344,372078998,0.9972088,0.003013783,-0.014918253,0.07309686,0.2855541706085205,0.028568483889102936,9.530606269836426,0.6772446036338806,0.4985063374042511, 1.5041762590408325
345,372095665,0.9972088,0.0030032287,-0.014925173,0.073096454,0.29596200585365295,0.030374659225344658,9.517720222473145,0.6011748313903809,0.4249851107597351, 1.4879376888275146
346,372112332,0.9972085,0.0030033295,-0.014925465,0.0731007,0.27125516533851624,0.0435514971613884,9.517263412475586,0.677270233631134,0.4650562107563019, 1.4937007427215576
347,372128999,0.9972076,0.0030079666,-0.0149219595,0.07311377,0.2834559381008148,0.041316404938697815,9.520285606384277,0.7103106379508972,0.48879918456077576, 1.5255885124206543
348,372145666,0.99720675,0.0030098883,-0.014917573,0.07312444,0.2907944917678833,0.0337822325527668,9.54376220703125,0.6920999884605408,0.4961755871772766, 1.5170209407806396
349,372162333,0.9972068,0.0030105351,-0.014917174,0.07312395,0.2971862256526947,0.029421424493193626,9.52646255493164,0.6796265840530396,0.46926942467689514, 1.420089602470398
350,372179000,0.99720603,0.0030129277,-0.014911402,0.07313491,0.28761357069015503,0.042474061250686646,9.536175727844238,0.696262001991272,0.5055242776870728, 1.5246793031692505
351,372195667,0.9972057,0.0030182176,-0.014904758,0.07314308,0.2854244112968445,0.03897719457745552,9.524128913879395,0.7162527441978455,0.5100321769714355, 1.5052518844604492
352,372212334,0.99720436,0.0030230829,-0.014911345,0.073157474,0.2867909073829651,0.03789182007312775,9.544244766235352,0.7067632675170898,0.4194656014442444, 1.5302371978759766
353,372229001,0.9972031,0.0030269949,-0.014914805,0.07317434,0.29477179050445557,0.03284315764904022,9.506393432617188,0.7011540532112122,0.4413132071495056, 1.5158427953720093
354,372245668,0.9972021,0.003017062,-0.014921473,0.07318803,0.28559058904647827,0.05442624166607857,9.529657363891602,0.6059389114379883,0.42645788192749023, 1.5500743389129639
355,372262335,0.9972016,0.003020686,-0.014926442,0.07319248,0.2819022834300995,0.03321382403373718,9.533178329467773,0.6988745927810669,0.43117061257362366, 1.4890904426574707
356,372279002,0.99720186,0.003020994,-0.01492673,0.073188774,0.2835811376571655,0.038397129625082016,9.516886711120605,0.6774367094039917,0.46480002999305725, 1.4287468194961548
357,372295669,0.99720144,0.0030203431,-0.014931331,0.07319339,0.27874404191970825,0.03271764889359474,9.510815620422363,0.6692278385162354,0.43574243783950806, 1.4742605686187744
358,372312336,0.9972013,0.0030218137,-0.014929043,0.07319565,0.2881438434123993,0.041090965270996094,9.54421615600586,0.6875409483909607,0.4819349944591522, 1.475144386291504
359,372329003,0.9972012,0.003039643,-0.014919197,0.07319901,0.2869856059551239,0.041279762983322144,9.533896446228027,0.715817391872406,0.4411211609840393, 1.46592378616333
360,372345670,0.99720246,0.003045255,-0.014921162,0.07318117,0.27796152234077454,0.04325476288795471,9.521087646484375,0.712654173374176,0.4503032863140106, 1.3777775764465332
361,372362337,0.9972016,0.0030469717,-0.014913823,0.07319434,0.28884217143058777,0.03646831959486008,9.529070854187012,0.6918438673019409,0.5161919593811035, 1.5257165431976318
362,372379004,0.99720216,0.003049686,-0.014909941,0.07318788,0.2842610478401184,0.028836220502853394,9.528164863586426,0.6957369446754456,0.49183425307273865, 1.419231653213501
363,372395671,0.9972011,0.003049679,-0.014918617,0.07319923,0.29833734035491943,0.025853922590613365,9.535295486450195,0.6728776693344116,0.4073251783847809, 1.5475130081176758
364,372412338,0.9972014,0.0030520328,-0.014919088,0.07319585,0.28053662180900574,0.0251828171312809,9.517374038696289,0.690742552280426,0.4621235728263855, 1.4150952100753784
365,372429005,0.997201,0.0030491543,-0.014913091,0.07320234,0.2841123044490814,0.04324668273329735,9.537195205688477,0.660865306854248,0.5094686150550842, 1.5408152341842651
366,372445672,0.9972013,0.003057426,-0.014907829,0.073199004,0.290420264005661,0.039667822420597076,9.532916069030762,0.734719455242157,0.4985063374042511, 1.4347785711288452
367,372462339,0.99720114,0.0030550377,-0.014908676,0.07320109,0.28044337034225464,0.027127092704176903,9.550989151000977,0.6599944829940796,0.46214917302131653, 1.5003598928451538
368,372479006,0.9972006,0.0030528314,-0.014917472,0.07320624,0.29951298236846924,0.04017205908894539,9.535713195800781,0.6563574075698853,0.40741482377052307, 1.4796135425567627
369,372495673,0.99720055,0.0030511285,-0.014909383,0.073208705,0.28370800614356995,0.03846703842282295,9.528070449829102,0.669189453125,0.5230945348739624, 1.500411033630371
370,372512340,0.9972006,0.003044935,-0.014913045,0.07320721,0.2845041751861572,0.0495174378156662,9.528461456298828,0.6312954425811768,0.44461721181869507, 1.4480844736099243
371,372529007,0.9972009,0.003045484,-0.014910609,0.07320371,0.28175365924835205,0.028117001056671143,9.544546127319336,0.680497407913208,0.48297229409217834, 1.4385693073272705
372,372545674,0.99720055,0.0030493455,-0.014903733,0.073210225,0.2971360385417938,0.042686644941568375,9.536271095275879,0.7057644128799438,0.511812150478363, 1.4801132678985596
373,372562341,0.99719983,0.0030564638,-0.0148923965,0.0732225,0.28426945209503174,0.03833838552236557,9.530779838562012,0.7315306663513184,0.5409594178199768, 1.5430306196212769
374,372579008,0.9972001,0.0030647013,-0.014891382,0.07321884,0.28843677043914795,0.0407230406999588,9.528018951416016,0.7327858209609985,0.4693976044654846, 1.4456769227981567
375,372595675,0.99719965,0.0030776416,-0.014890053,0.073224135,0.28203409910202026,0.04590192437171936,9.522462844848633,0.7657108306884766,0.46926942467689514, 1.4932013750076294
376,372612342,0.99719954,0.0030713452,-0.014888493,0.07322671,0.2816331684589386,0.029796939343214035,9.538662910461426,0.6338567733764648,0.48051348328590393, 1.4860296249389648
377,372629009,0.9971988,0.0030688,-0.01488457,0.073237024,0.2900713384151459,0.038748081773519516,9.534627914428711,0.6606859564781189,0.4948309361934662, 1.5090426206588745
378,372645676,0.9971984,0.003058308,-0.014879968,0.07324374,0.29006054997444153,0.03942627087235451,9.53205394744873,0.6068609356880188,0.5035136938095093, 1.5079542398452759
379,372662343,0.9971982,0.0030597935,-0.014880772,0.073246524,0.2748910188674927,0.042266301810741425,9.527799606323242,0.6851973533630371,0.4602794647216797, 1.4592130184173584
380,372679010,0.9971987,0.0030612894,-0.014868478,0.07324248,0.284139484167099,0.03612908348441124,9.539351463317871,0.6924329400062561,0.5501288175582886, 1.4554609060287476
381,372695677,0.99719906,0.0030608778,-0.014862254,0.073239505,0.2933903634548187,0.029379330575466156,9.53131103515625,0.6766812205314636,0.5095454454421997, 1.4711872339248657
382,372712344,0.9971976,0.0030553876,-0.014864893,0.07325664,0.27857688069343567,0.03633102774620056,9.536864280700684,0.6382493376731873,0.4514046609401703, 1.5671964883804321
383,372729011,0.99719715,0.0030495254,-0.014870587,0.073262505,0.29473549127578735,0.04970712214708328,9.528249740600586,0.6333317160606384,0.430530309677124, 1.5021400451660156
384,372745678,0.99719685,0.0030429272,-0.0148671605,0.07326708,0.2976005971431732,0.03799872845411301,9.526954650878906,0.6336901783943176,0.49355027079582214, 1.5247303247451782
385,372762345,0.99719733,0.0030422464,-0.014859876,0.07326359,0.29234758019447327,0.029768940061330795,9.50728702545166,0.6750162243843079,0.516909122467041, 1.4574201107025146
386,372779012,0.99719703,0.00304671,-0.014866171,0.073266655,0.2914614677429199,0.04228493198752403,9.530104637145996,0.7037153840065002,0.4212456941604614, 1.488142728805542
387,372795679,0.9971965,0.0030508875,-0.014866964,0.07327402,0.28795790672302246,0.04040002077817917,9.541360855102539,0.7044069170951843,0.4591396749019623, 1.499335527420044
388,372812346,0.99719656,0.003064558,-0.014877139,0.07326836,0.2816632091999054,0.03450700268149376,9.52630615234375,0.7646607756614685,0.3900109529495239, 1.4515548944473267
389,372829013,0.997197,0.0030679035,-0.014884059,0.07326272,0.2825011610984802,0.033179182559251785,9.530509948730469,0.6944435238838196,0.41737815737724304, 1.4157356023788452
390,372845680,0.99719614,0.0030763512,-0.014886615,0.0732718,0.2935982346534729,0.03582051396369934,9.534873008728027,0.7321966886520386,0.44474533200263977, 1.4844545125961304
391,372862347,0.997196,0.0030795094,-0.014884396,0.073274255,0.29187193512916565,0.03811556100845337,9.545281410217285,0.698567271232605,0.48023173213005066, 1.4707006216049194
392,372879014,0.997196,0.0030838589,-0.014880883,0.073274784,0.27472081780433655,0.04114363342523575,9.528033256530762,0.7075188755989075,0.4885302484035492, 1.4681775569915771
393,372895681,0.9971949,0.0030750607,-0.014876588,0.07329052,0.28839215636253357,0.03922398388385773,9.526127815246582,0.6187067627906799,0.5005810260772705, 1.5528532266616821
394,372912348,0.9971951,0.0030663658,-0.014875737,0.073289014,0.27704018354415894,0.02786429226398468,9.530169486999512,0.616824209690094,0.47683802247047424, 1.4652448892593384
395,372929015,0.9971959,0.0030677607,-0.014869848,0.073279634,0.283947616815567,0.04080848768353462,9.522838592529297,0.687873899936676,0.5061646103858948, 1.4144037961959839
396,372945682,0.99719596,0.0030661644,-0.01487182,0.07327919,0.2847200632095337,0.024198783561587334,9.530359268188477,0.6638748049736023,0.4538250267505646, 1.4605450630187988
397,372962349,0.99719614,0.0030701,-0.014877839,0.07327459,0.280494749546051,0.03652721270918846,9.5260648727417,0.6991690397262573,0.42319220304489136, 1.4280809164047241
398,372979016,0.99719536,0.0030664683,-0.014870566,0.07328661,0.30183959007263184,0.04278789833188057,9.529394149780273,0.655858039855957,0.5183818340301514, 1.545732855796814
399,372995683,0.99719447,0.0030693964,-0.014873987,0.073297724,0.2980412244796753,0.04645640403032303,9.52437973022461,0.6948533654212952,0.4417229890823364, 1.5239620208740234
400,373012350,0.9971938,0.0030720474,-0.014875068,0.07330639,0.2905274033546448,0.04999551922082901,9.549463272094727,0.6943154335021973,0.4579358398914337, 1.5204658508300781
401,373029017,0.9971936,0.0030661342,-0.014886179,0.073306985,0.2903032600879669,0.03515523299574852,9.536760330200195,0.6296818256378174,0.3933534622192383, 1.4677037000656128
402,373045684,0.9971932,0.003065483,-0.014885118,0.07331206,0.2812405526638031,0.02805400639772415,9.53675651550293,0.6716354489326477,0.47421279549598694, 1.4756308794021606
403,373062351,0.9971929,0.003068302,-0.014893967,0.07331638,0.2878893315792084,0.0484735444188118,9.540872573852539,0.6899997591972351,0.4043925106525421, 1.454064965248108
404,373079018,0.99719226,0.0030680771,-0.014896522,0.07332302,0.28825995326042175,0.03923449292778969,9.524888038635254,0.6736332774162292,0.4492788016796112, 1.507941484451294
405,373095685,0.9971912,0.0030648594,-0.014895748,0.07333722,0.2772164046764374,0.04894864559173584,9.545204162597656,0.6550384163856506,0.4736364781856537, 1.5415964126586914
406,373112352,0.99719006,0.0030642694,-0.014903335,0.07335095,0.28845861554145813,0.027429619804024696,9.534819602966309,0.6679600477218628,0.41482970118522644, 1.5119370222091675
407,373129019,0.9971894,0.0030568824,-0.014906799,0.07336035,0.30507415533065796,0.05370242893695831,9.526089668273926,0.6243287920951843,0.44667911529541016, 1.5289182662963867
408,373145686,0.9971895,0.003053049,-0.014902509,0.073358916,0.28492942452430725,0.030890073627233505,9.534247398376465,0.6511836051940918,0.4979044795036316, 1.4448059797286987
409,373162353,0.99718875,0.0030455533,-0.014907176,0.07336999,0.29322898387908936,0.03508317098021507,9.544840812683105,0.6222925782203674,0.4383934438228607, 1.510233759880066
410,373179020,0.9971882,0.003041959,-0.014905292,0.07337824,0.3009340763092041,0.03212756663560867,9.529967308044434,0.6521313190460205,0.48134586215019226, 1.4939055442810059
411,373195687,0.99718773,0.0030399212,-0.014902315,0.073386095,0.2713620662689209,0.041009146720170975,9.555157661437988,0.6640668511390686,0.48817160725593567, 1.516329288482666
412,373212354,0.9971872,0.003038527,-0.0149030015,0.07339203,0.28569158911705017,0.03243478760123253,9.539559364318848,0.6664489507675171,0.46262305974960327, 1.5040611028671265
413,373229021,0.99718696,0.0030360736,-0.014902905,0.073395625,0.2778954803943634,0.03423995152115822,9.548983573913574,0.6585025191307068,0.46844351291656494, 1.4588226079940796
414,373245688,0.9971865,0.003030484,-0.014906997,0.07340063,0.29101258516311646,0.04150957241654396,9.528708457946777,0.6358544826507568,0.44136449694633484, 1.4959418773651123
415,373262355,0.9971864,0.0030369586,-0.014908735,0.07340206,0.29506850242614746,0.03102254495024681,9.519704818725586,0.7181480526924133,0.45123809576034546, 1.430526852607727
416,373279022,0.9971855,0.0030338478,-0.014904405,0.07341498,0.2821172773838043,0.03726542741060257,9.545134544372559,0.6578430533409119,0.4980069696903229, 1.548870325088501
417,373295689,0.997184,0.0030399547,-0.0149011975,0.07343645,0.27663639187812805,0.027051223441958427,9.534123420715332,0.719684898853302,0.48553359508514404, 1.5513935089111328
418,373312356,0.9971837,0.0030429608,-0.01490068,0.07344043,0.29944077134132385,0.034239646047353745,9.530937194824219,0.6970945000648499,0.4686420261859894, 1.4917925596237183
419,373329023,0.99718285,0.0030447072,-0.014898667,0.07345187,0.28436437249183655,0.03655720502138138,9.530571937561035,0.6892057061195374,0.47952741384506226, 1.515368938446045
420,373345690,0.9971826,0.0030559052,-0.0148983095,0.073454194,0.2773270905017853,0.04445037990808487,9.545658111572266,0.7533143162727356,0.46341702342033386, 1.4907937049865723
421,373362357,0.9971831,0.003050028,-0.014899688,0.07344825,0.2932169735431671,0.02937960810959339,9.516587257385254,0.6338054537773132,0.45989522337913513, 1.4104721546173096
422,373379024,0.99718344,0.003052275,-0.01490305,0.07344254,0.28361570835113525,0.044277291744947433,9.53339958190918,0.6888855695724487,0.44227367639541626, 1.4228047132492065
423,373395691,0.9971837,0.0030457412,-0.01490522,0.073439285,0.2914227843284607,0.03770311921834946,9.541377067565918,0.6297458410263062,0.45495203137397766, 1.449185848236084
424,373412358,0.9971841,0.003039116,-0.014903031,0.07343431,0.2837803363800049,0.03687596693634987,9.521987915039062,0.6305782794952393,0.4847908318042755, 1.4191420078277588
425,373429025,0.99718404,0.003051376,-0.014913238,0.073431686,0.2991345524787903,0.030496301129460335,9.53891658782959,0.7547998428344727,0.39035674929618835, 1.4566518068313599
426,373445692,0.99718446,0.0030513352,-0.0149222175,0.073426135,0.28720003366470337,0.04436596855521202,9.525781631469727,0.6704060435295105,0.40494316816329956, 1.425378680229187
427,373462359,0.9971839,0.003057017,-0.014922624,0.073432446,0.2929750084877014,0.043335720896720886,9.515830039978027,0.7144343256950378,0.46088138222694397, 1.4821622371673584
428,373479026,0.99718404,0.0030602321,-0.014930316,0.073429346,0.2823038697242737,0.03381335362792015,9.524333953857422,0.6938031911849976,0.4122171700000763, 1.449288249015808
429,373495693,0.9971837,0.0030532638,-0.014929365,0.07343404,0.28587037324905396,0.03157149255275726,9.547711372375488,0.6289646625518799,0.4766971468925476, 1.4968253374099731
430,373512360,0.9971828,0.0030514065,-0.014934224,0.073445015,0.2860965430736542,0.04536651447415352,9.516490936279297,0.6608844995498657,0.4341736435890198, 1.5114694833755493
431,373529027,0.9971822,0.003039635,-0.014937536,0.07345294,0.29383140802383423,0.031220844015479088,9.54517936706543,0.593567967414856,0.4497654438018799, 1.4969536066055298
432,373545694,0.9971818,0.003041709,-0.014943354,0.07345736,0.29843270778656006,0.03451170399785042,9.520576477050781,0.6873745322227478,0.42563825845718384, 1.4896795749664307
433,373562361,0.9971816,0.0030436774,-0.014939952,0.07346104,0.2827647626399994,0.044726110994815826,9.528644561767578,0.6911395192146301,0.4889528751373291, 1.481995701789856
434,373579028,0.99718195,0.003044537,-0.014936991,0.07345699,0.2914943993091583,0.03791225329041481,9.542021751403809,0.682712972164154,0.48632749915122986, 1.4336389303207397
435,373595695,0.9971811,0.0030445168,-0.014934467,0.073468834,0.27236074209213257,0.03657005727291107,9.526644706726074,0.6776928901672363,0.4839712083339691, 1.530583143234253
436,373612362,0.9971807,0.0030504144,-0.0149370255,0.0734737,0.2853286862373352,0.0373447984457016,9.528507232666016,0.7155868411064148,0.4460900127887726, 1.503062129020691
437,373629029,0.9971799,0.00304605,-0.014928613,0.073485635,0.27512478828430176,0.037111878395080566,9.524511337280273,0.6512861251831055,0.5265523791313171, 1.5447596311569214
438,373645696,0.99717987,0.0030421081,-0.014919116,0.07348756,0.28246578574180603,0.044810518622398376,9.53933334350586,0.652285099029541,0.5334420800209045, 1.4291183948516846
439,373662363,0.99718016,0.0030384301,-0.014916423,0.07348608,0.27805817127227783,0.029386816546320915,9.528045654296875,0.6519520878791809,0.486801415681839, 1.4591236114501953
440,373679030,0.9971795,0.0030377333,-0.014910138,0.073495075,0.2943192422389984,0.02902325429022312,9.529638290405273,0.6750290393829346,0.5099936127662659, 1.5238850116729736
441,373695697,0.9971795,0.0030337034,-0.014910964,0.07349509,0.27896928787231445,0.03892439603805542,9.550544738769531,0.6472136974334717,0.46277663111686707, 1.4489552974700928
442,373712364,0.9971797,0.0030260538,-0.014904458,0.0734942,0.2833828032016754,0.036089297384023666,9.531966209411621,0.6268003582954407,0.5149497389793396, 1.4677294492721558
443,373729031,0.99717927,0.0030221248,-0.014909089,0.07349888,0.2795109748840332,0.03568514063954353,9.514921188354492,0.6473930478096008,0.4367925524711609, 1.510335922241211
444,373745698,0.9971778,0.003033247,-0.014911961,0.07351871,0.28702202439308167,0.04100903123617172,9.51696491241455,0.7525203824043274,0.44139009714126587, 1.5960490703582764
445,373762365,0.99717784,0.003025073,-0.014905943,0.07351941,0.2887996733188629,0.041729118674993515,9.513727188110352,0.6225230693817139,0.5117865800857544, 1.460199236869812
446,373779032,0.9971777,0.0030188533,-0.014905508,0.07352109,0.28318464756011963,0.03495212271809578,9.535014152526855,0.6337799429893494,0.4726119637489319, 1.4855175018310547
447,373795699,0.9971769,0.0030225208,-0.014906617,0.07353245,0.2913462817668915,0.03285045549273491,9.536723136901855,0.6999374628067017,0.45694980025291443, 1.49070405960083
448,373812366,0.997177,0.003018685,-0.014906695,0.07353032,0.2913966178894043,0.03728339448571205,9.53725814819336,0.648904025554657,0.4678094685077667, 1.440848708152771
449,373829033,0.99717784,0.003026324,-0.014909752,0.073517755,0.29665857553482056,0.040715429931879044,9.529596328735352,0.725140392780304,0.44144126772880554, 1.3726292848587036
450,373845700,0.99717736,0.0030284629,-0.014902693,0.073525935,0.2774062752723694,0.026524147018790245,9.524636268615723,0.6951990723609924,0.5139251947402954, 1.5304421186447144
451,373862367,0.9971763,0.003032842,-0.014907872,0.07353959,0.28317129611968994,0.03180699422955513,9.539582252502441,0.7044069170951843,0.4288654625415802, 1.5517263412475586
452,373879034,0.9971767,0.0030394474,-0.01490733,0.073534235,0.2824099361896515,0.049206215888261795,9.527731895446777,0.721759557723999,0.46687471866607666, 1.4590210914611816
453,373895701,0.99717665,0.0030360776,-0.014909064,0.073534414,0.28941652178764343,0.04338306933641434,9.550738334655762,0.651695966720581,0.45623263716697693, 1.4617359638214111
454,373912368,0.99717665,0.00303452,-0.014907745,0.07353477,0.29174914956092834,0.04231809824705124,9.523967742919922,0.6655524373054504,0.4762105643749237, 1.458367943763733
455,373929035,0.9971766,0.0030308585,-0.014890836,0.07353885,0.2888979911804199,0.05814561992883682,9.527030944824219,0.6596103310585022,0.5843089818954468, 1.4939056634902954
456,373945702,0.9971767,0.0030332268,-0.01489289,0.07353663,0.28495681285858154,0.034303802996873856,9.516056060791016,0.6911651492118835,0.4512253403663635, 1.466500163078308
457,373962369,0.99717736,0.0030260256,-0.014885262,0.07352951,0.29265859723091125,0.03677487373352051,9.521772384643555,0.6295152902603149,0.5222749710083008, 1.4153512716293335
458,373979036,0.9971773,0.0030379228,-0.014883771,0.073529236,0.2785918414592743,0.02923472225666046,9.532509803771973,0.7578221559524536,0.47062698006629944, 1.4566646814346313
459,373995703,0.99717677,0.0030355123,-0.014899205,0.073533714,0.2874354422092438,0.04664119333028793,9.551209449768066,0.6519777178764343,0.36187544465065, 1.4983494281768799
460,374012370,0.9971763,0.0030360105,-0.014906139,0.07354012,0.28570887446403503,0.046835388988256454,9.53710651397705,0.676476240158081,0.418761283159256, 1.5155994892120361
461,374029037,0.9971758,0.0030309295,-0.014902164,0.073546804,0.2840021550655365,0.03811423107981682,9.521468162536621,0.6435126066207886,0.49632924795150757, 1.5114117860794067
462,374045704,0.99717593,0.0030354701,-0.014903741,0.07354574,0.2772965133190155,0.052412599325180054,9.536928176879883,0.7059564590454102,0.45327436923980713, 1.459328532218933
463,374062371,0.99717563,0.0030388208,-0.014904044,0.07354808,0.288616418838501,0.031888123601675034,9.541269302368164,0.6986439824104309,0.4626229703426361, 1.477795124053955
464,374079038,0.99717575,0.0030416853,-0.014899943,0.073547296,0.28703269362449646,0.05074986815452576,9.56163501739502,0.6973122358322144,0.49306368827819824, 1.45761239528656
465,374095705,0.9971756,0.0030412404,-0.014901538,0.07355025,0.2905377447605133,0.03142033517360687,9.528420448303223,0.6721605062484741,0.45573318004608154, 1.4888471364974976
466,374112372,0.9971751,0.0030421263,-0.014905109,0.07355649,0.3014650046825409,0.04096036031842232,9.521326065063477,0.6807406544685364,0.44158217310905457, 1.5156761407852173
467,374129039,0.99717504,0.0030390765,-0.014910082,0.07355661,0.296064555644989,0.03495177999138832,9.51924991607666,0.6524770855903625,0.43389829993247986, 1.4741580486297607
468,374145706,0.99717516,0.0030398702,-0.014902817,0.07355702,0.29617995023727417,0.030797936022281647,9.526330947875977,0.6848004460334778,0.5158718824386597, 1.4661415815353394
469,374162373,0.99717516,0.003037724,-0.014903337,0.07355497,0.28154170513153076,0.03895731642842293,9.523138046264648,0.6601224541664124,0.4639291763305664, 1.4393119812011719
470,374179040,0.99717426,0.0030242717,-0.01490822,0.07356673,0.27229511737823486,0.04107949882745743,9.506834983825684,0.5816964507102966,0.4399045407772064, 1.5303525924682617
471,374195707,0.9971744,0.0030255255,-0.014913778,0.07356442,0.28676608204841614,0.04010029882192612,9.528464317321777,0.6817139983177185,0.4277000427246094, 1.4651936292648315
472,374212374,0.99717337,0.0030268994,-0.014908763,0.07357924,0.29627734422683716,0.04470883309841156,9.542844772338867,0.6904734969139099,0.5004657506942749, 1.6112116575241089
473,374229041,0.9971736,0.0030212647,-0.014908672,0.073576316,0.29450973868370056,0.031086646020412445,9.526362419128418,0.6366997957229614,0.4698457717895508, 1.4430643320083618
474,374245708,0.9971735,0.0030238,-0.014900969,0.07357958,0.279310405254364,0.040114276111125946,9.546225547790527,0.6966462135314941,0.5179592370986938, 1.4674731492996216
475,374262375,0.9971732,0.0030291164,-0.014890616,0.07358547,0.2854118049144745,0.04494229331612587,9.531312942504883,0.7179304361343384,0.5347995758056641, 1.5075829029083252
476,374279042,0.9971721,0.00302373,-0.014890247,0.073599175,0.277462899684906,0.047442153096199036,9.540698051452637,0.6401702165603638,0.47184357047080994, 1.555773138999939
477,374295709,0.9971722,0.0030248526,-0.014885656,0.07360077,0.2924461364746094,0.040771741420030594,9.536259651184082,0.6858376264572144,0.49732816219329834, 1.4751825332641602
478,374312376,0.9971716,0.003020003,-0.0148834605,0.07360921,0.28974923491477966,0.0530308373272419,9.525504112243652,0.6440889239311218,0.4840351939201355, 1.5187753438949585
479,374329043,0.9971736,0.0030241369,-0.014898791,0.07357886,0.2911134362220764,0.040760673582553864,9.532251358032227,0.6702778935432434,0.45928049087524414, 1.5224251747131348
480,374345710,0.99717283,0.003020183,-0.014897657,0.07358926,0.28814470767974854,0.020844919607043266,9.532143592834473,0.6499671339988708,0.47656914591789246, 1.533118724822998
481,374362377,0.99717283,0.0030224896,-0.014890889,0.07359102,0.29300856590270996,0.05154703930020332,9.534821510314941,0.6947765350341797,0.5119530558586121, 1.4714689254760742
482,374379044,0.9971734,0.0030253534,-0.01489488,0.073581524,0.27699828147888184,0.040411949157714844,9.549699783325195,0.6925097107887268,0.4378170371055603, 1.413084626197815
483,374395711,0.99717253,0.0030270983,-0.014894015,0.07359412,0.2849297523498535,0.049332477152347565,9.527115821838379,0.6889495849609375,0.47185635566711426, 1.5444523096084595
484,374412378,0.9971737,0.0030247662,-0.014893783,0.07357784,0.2748722434043884,0.03952421247959137,9.539127349853516,0.6582528352737427,0.4692822992801666, 1.3642284870147705
485,374429045,0.9971743,0.0030230272,-0.014897603,0.073568396,0.2870771586894989,0.04476586729288101,9.52906608581543,0.6608396768569946,0.44124916195869446, 1.4068094491958618
486,374445712,0.9971743,0.0030167087,-0.014903508,0.073567435,0.3038587272167206,0.03693757578730583,9.54179859161377,0.6289006471633911,0.4293137192726135, 1.4528995752334595
487,374462379,0.9971748,0.0030158649,-0.014901367,0.07356184,0.29026833176612854,0.043166156858205795,9.530282974243164,0.6705725193023682,0.4817812740802765, 1.4398499727249146
488,374479046,0.99717456,0.0030116232,-0.014893507,0.07356688,0.2853306233882904,0.041489019989967346,9.530592918395996,0.6497622132301331,0.5226719379425049, 1.4665768146514893
489,374495713,0.99717456,0.0030139643,-0.014896656,0.07356655,0.2797958254814148,0.0320681557059288,9.54142951965332,0.6896539330482483,0.4438744783401489, 1.4565621614456177
490,374512380,0.9971743,0.0030011637,-0.0148935495,0.073570594,0.28470587730407715,0.030663415789604187,9.537065505981445,0.5898796319961548,0.49449795484542847, 1.5015636682510376
491,374529047,0.99717456,0.0029950847,-0.014888171,0.07356857,0.28814321756362915,0.030238987877964973,9.520511627197266,0.6367508769035339,0.5066383481025696, 1.4668456315994263
492,374545714,0.9971737,0.0029989593,-0.014891719,0.07357946,0.28213387727737427,0.03722134605050087,9.536520957946777,0.7017431855201721,0.44054487347602844, 1.554057002067566
493,374562381,0.99717396,0.0030077414,-0.014879051,0.073579274,0.2804417610168457,0.04727163910865784,9.52601432800293,0.7415196895599365,0.5490530729293823, 1.4455232620239258
494,374579048,0.99717396,0.0030021034,-0.014876942,0.0735797,0.2944483160972595,0.0443531833589077,9.525338172912598,0.6367508769035339,0.48379185795783997, 1.432153344154358
495,374595715,0.99717396,0.00300825,-0.014870624,0.073579475,0.2858872413635254,0.04413815960288048,9.532865524291992,0.7210552096366882,0.5068433284759521, 1.4721348285675049
496,374612382,0.9971751,0.0030061593,-0.0148681775,0.07356487,0.28165239095687866,0.041349492967128754,9.525790214538574,0.66102534532547,0.4842977225780487, 1.371150255203247
497,374629049,0.9971746,0.00300535,-0.014865861,0.07357232,0.30159470438957214,0.04256884381175041,9.526671409606934,0.6717891693115234,0.4830235540866852, 1.515791654586792
498,374645716,0.9971748,0.0030006967,-0.014869767,0.07356758,0.28787076473236084,0.029415616765618324,9.535293579101562,0.6414892673492432,0.44224804639816284, 1.4485454559326172
499,374662383,0.9971745,0.0029970515,-0.014865167,0.07357368,0.27376437187194824,0.022839700803160667,9.528867721557617,0.6532967686653137,0.5001456141471863, 1.5044068098068237
500,374679050,0.9971743,0.0029929955,-0.014854486,0.07357813,0.282705694437027,0.022614162415266037,9.545953750610352,0.6533735394477844,0.5419583320617676, 1.4905120134353638
501,374695717,0.99717414,0.0029900605,-0.0148511175,0.07358118,0.2972148656845093,0.035772714763879776,9.534168243408203,0.6575740575790405,0.4913092255592346, 1.4970303773880005
502,374712384,0.9971745,0.002988743,-0.014852165,0.07357753,0.2852156162261963,0.03896825388073921,9.527905464172363,0.6656292080879211,0.46008726954460144, 1.4421420097351074
503,374729051,0.99717396,0.0029842467,-0.014854891,0.073582955,0.2789483368396759,0.030759666115045547,9.550505638122559,0.6440249681472778,0.4503032863140106, 1.5118216276168823
504,374745718,0.9971734,0.0029879531,-0.01485561,0.073591724,0.27973291277885437,0.048737794160842896,9.527888298034668,0.7012822031974792,0.45994648337364197, 1.5221821069717407
505,374762385,0.99717337,0.0029890744,-0.014848514,0.07359255,0.28465041518211365,0.04444947466254234,9.529064178466797,0.6874128580093384,0.5147960782051086, 1.4905375242233276
506,374779052,0.99717337,0.0029977623,-0.014850727,0.07359176,0.2915605902671814,0.04086767137050629,9.535244941711426,0.7338101863861084,0.44706323742866516, 1.4588032960891724
507,374795719,0.9971732,0.002991598,-0.014859448,0.07359225,0.29181480407714844,0.042994119226932526,9.530999183654785,0.6290543675422668,0.41002729535102844, 1.4803820848464966
508,374812386,0.99717337,0.0029980142,-0.014857291,0.0735917,0.28754734992980957,0.049876682460308075,9.547103881835938,0.7211320400238037,0.47829797863960266, 1.484095811843872
509,374829053,0.99717325,0.0029999258,-0.014846211,0.073595606,0.2876948118209839,0.040825389325618744,9.531121253967285,0.6950711011886597,0.54183030128479, 1.5109509229660034
510,374845720,0.9971729,0.0030022024,-0.014844225,0.07359904,0.28611135482788086,0.03863062337040901,9.538264274597168,0.6923689246177673,0.47919443249702454, 1.488296389579773
511,374862387,0.9971733,0.0029976447,-0.01483147,0.07359618,0.2979867458343506,0.047802139073610306,9.521875381469727,0.6504794359207153,0.5564423203468323, 1.4506202936172485
512,374879054,0.9971733,0.0029856164,-0.0148299895,0.07359759,0.2840438187122345,0.03574057295918465,9.540007591247559,0.5934910774230957,0.4829210638999939, 1.4652833938598633
513,374895721,0.99717313,0.002982411,-0.014826082,0.07360072,0.2942144274711609,0.035864461213350296,9.533770561218262,0.6557044386863708,0.4950999319553375, 1.4835069179534912
514,374912388,0.99717224,0.0029770876,-0.014831665,0.07361173,0.288276731967926,0.03924374282360077,9.525731086730957,0.6374680995941162,0.4312730133533478, 1.5529298782348633
515,374929055,0.99717194,0.0029807677,-0.014837571,0.07361414,0.2836229205131531,0.0406753271818161,9.540926933288574,0.6974530220031738,0.42431920766830444, 1.4697271585464478
516,374945722,0.99717176,0.002984149,-0.014838904,0.07361823,0.29294976592063904,0.03812716528773308,9.538278579711914,0.6984007358551025,0.4559124708175659, 1.495275855064392
517,374962389,0.9971721,0.0029933644,-0.014834276,0.07361291,0.28776994347572327,0.028119239956140518,9.517849922180176,0.7407897114753723,0.4937296211719513, 1.441425085067749
518,374979056,0.99717194,0.0029894854,-0.014837335,0.0736145,0.2901875674724579,0.05501909181475639,9.523270606994629,0.6481613516807556,0.4478316009044647, 1.5050597190856934
519,374995723,0.9971722,0.0029871366,-0.014839637,0.07361077,0.2797669470310211,0.04796779900789261,9.55302619934082,0.6579710245132446,0.4521090090274811, 1.4493651390075684
520,375012390,0.99717057,0.0029857624,-0.014841807,0.07363225,0.29958027601242065,0.052280493080616,9.550481796264648,0.667434811592102,0.4528389275074005, 1.625067949295044
521,375029057,0.99717075,0.0029748701,-0.014836413,0.07363256,0.2969735264778137,0.03401223570108414,9.52138900756836,0.6029806137084961,0.5091612339019775, 1.4561269283294678
522,375045724,0.9971705,0.0029761211,-0.014836867,0.073635876,0.27315905690193176,0.02694425731897354,9.531330108642578,0.6836478114128113,0.46299439668655396, 1.4784740209579468
523,375062391,0.99717,0.0029777347,-0.014834728,0.07364393,0.2812848389148712,0.04414470121264458,9.551902770996094,0.6883477568626404,0.4806799590587616, 1.5225533246994019
524,375079058,0.99716985,0.0029671497,-0.014839296,0.07364423,0.2931922972202301,0.04009786248207092,9.51762580871582,0.6008803248405457,0.4408009350299835, 1.4844415187835693
525,375095725,0.9971692,0.0029718755,-0.014837637,0.07365336,0.28438442945480347,0.036584727466106415,9.531844139099121,0.7095165848731995,0.4757879376411438, 1.5263824462890625
526,375112392,0.99716884,0.0029728385,-0.014835593,0.0736582,0.27609384059906006,0.03244957700371742,9.533482551574707,0.6836093664169312,0.48032137751579285, 1.505930781364441
527,375129059,0.9971682,0.0029698848,-0.01483931,0.073666066,0.2942843735218048,0.0421576090157032,9.539654731750488,0.6539499163627625,0.4428372085094452, 1.519492745399475
528,375145726,0.997168,0.002973326,-0.0148400115,0.07366853,0.2832656800746918,0.03686682879924774,9.535484313964844,0.6992971897125244,0.46025386452674866, 1.498170256614685
529,375162393,0.99716747,0.002976438,-0.014838427,0.07367568,0.28454384207725525,0.052219029515981674,9.529325485229492,0.6985031962394714,0.4761337339878082, 1.5239492654800415
530,375179060,0.9971671,0.0029734971,-0.014838305,0.073680356,0.2939497232437134,0.05534672737121582,9.525199890136719,0.6556019186973572,0.4691542387008667, 1.4958522319793701
531,375195727,0.9971668,0.0029819503,-0.01483555,0.07368557,0.2816903591156006,0.03997582197189331,9.533764839172363,0.735090970993042,0.4813331067562103, 1.4978628158569336
532,375212394,0.9971669,0.0029840062,-0.014827198,0.07368536,0.2992797791957855,0.03777823969721794,9.551677703857422,0.6936494708061218,0.5229408740997314, 1.4674603939056396
533,375229061,0.9971657,0.0029816437,-0.014837429,0.0736997,0.28484782576560974,0.04262971878051758,9.544422149658203,0.655064046382904,0.39789971709251404, 1.5555169582366943
534,375245728,0.99716574,0.0029773102,-0.01483062,0.07370041,0.29015082120895386,0.04298079013824463,9.525738716125488,0.6493268013000488,0.5156285166740417, 1.478576421737671
535,375262395,0.99716556,0.0029726145,-0.014834295,0.073701605,0.28724145889282227,0.042447369545698166,9.540775299072266,0.6412842869758606,0.44391289353370667, 1.4748495817184448
536,375279062,0.9971661,0.002977925,-0.014841472,0.073692836,0.28665614128112793,0.03861626610159874,9.533438682556152,0.7073267102241516,0.4147784411907196, 1.412918210029602
537,375295729,0.99716604,0.0029792702,-0.014831421,0.07369528,0.2979676425457001,0.041557781398296356,9.51656723022461,0.6900126338005066,0.5350173115730286, 1.48842453956604
538,375312396,0.9971653,0.0029837654,-0.014833368,0.07370379,0.2947661578655243,0.04766654595732689,9.527816772460938,0.7058795690536499,0.45116132497787476, 1.5200432538986206
539,375329063,0.9971648,0.002988798,-0.01483213,0.07371298,0.28840431571006775,0.040742240846157074,9.520546913146973,0.7120394706726074,0.4729449152946472, 1.554185152053833
540,375345730,0.99716294,0.0029824667,-0.014828328,0.07373904,0.2821984589099884,0.042837031185626984,9.532623291015625,0.6362257599830627,0.49632924795150757, 1.639090895652771
541,375362397,0.9971634,0.0029898675,-0.014829738,0.07373274,0.2673046588897705,0.04308320954442024,9.515210151672363,0.7255117893218994,0.4533511996269226, 1.4508891105651855
542,375379064,0.99716306,0.0029897627,-0.0148309525,0.07373604,0.2710360288619995,0.04350830242037773,9.53211498260498,0.674292802810669,0.4585314095020294, 1.4944498538970947
543,375395731,0.9971629,0.002986007,-0.014835638,0.073736966,0.2740895450115204,0.03492244705557823,9.542830467224121,0.6474186182022095,0.43654921650886536, 1.479831337928772
544,375412398,0.99716336,0.002974761,-0.014841346,0.07372988,0.2936266362667084,0.05983012169599533,9.54021167755127,0.5946052074432373,0.43316835165023804, 1.4250200986862183
545,375429065,0.9971633,0.00297029,-0.014835953,0.07373256,0.2930108308792114,0.026310710236430168,9.530389785766602,0.6470345258712769,0.5059853792190552, 1.4685746431350708
546,375445732,0.99716383,0.0029758322,-0.014823438,0.07372815,0.29443633556365967,0.042961545288562775,9.532130241394043,0.719543993473053,0.549718976020813, 1.4501590728759766
547,375462399,0.9971642,0.0029737651,-0.014820109,0.07372259,0.28159981966018677,0.031606197357177734,9.534696578979492,0.6627093553543091,0.4906304180622101, 1.4476488828659058
548,375479066,0.99716425,0.0029782848,-0.014824352,0.07372208,0.2918105721473694,0.03584975749254227,9.540088653564453,0.70393306016922,0.4353070557117462, 1.4577147960662842
549,375495733,0.99716395,0.0029735523,-0.014830358,0.07372561,0.2840428352355957,0.05288255214691162,9.536834716796875,0.640195906162262,0.42800745368003845, 1.494430661201477
550,375512400,0.9971644,0.002980354,-0.014828522,0.073718995,0.2784234881401062,0.037046488374471664,9.529352188110352,0.7222333550453186,0.4757879376411438, 1.4261088371276855
551,375529067,0.9971645,0.0029873392,-0.014817192,0.07371918,0.28712427616119385,0.04636448994278908,9.535247802734375,0.7290975451469421,0.5408698916435242, 1.4737740755081177
552,375545734,0.9971638,0.0029832365,-0.014819162,0.07372917,0.2776294946670532,0.046929504722356796,9.53093147277832,0.6472009420394897,0.45542585849761963, 1.54313325881958
553,375562401,0.9971634,0.0029762355,-0.014816658,0.07373433,0.27892279624938965,0.045426346361637115,9.515122413635254,0.6289966702461243,0.4875377416610718, 1.503542184829712
554,375579068,0.99716365,0.0029808024,-0.014802469,0.07373372,0.27652448415756226,0.04836389049887657,9.540759086608887,0.7137555480003357,0.5616545081138611, 1.4661798477172852
555,375595735,0.9971632,0.0029795528,-0.014808138,0.073739015,0.28960052132606506,0.03338475525379181,9.529255867004395,0.663887619972229,0.4284812808036804, 1.4911521673202515
556,375612402,0.9971637,0.0029719837,-0.01480933,0.073731795,0.285411536693573,0.02931802347302437,9.534958839416504,0.6215241551399231,0.46216198801994324, 1.404453158378601
557,375629069,0.9971636,0.002971167,-0.0148142325,0.07373225,0.28831228613853455,0.030918823555111885,9.532245635986328,0.6672683954238892,0.43350133299827576, 1.476668119430542
558,375645736,0.9971631,0.0029668438,-0.0148131875,0.07374015,0.28883612155914307,0.04253522306680679,9.519181251525879,0.6477645039558411,0.47633862495422363, 1.549882173538208
559,375662403,0.99716324,0.002964419,-0.014806469,0.07373998,0.29537907242774963,0.048243120312690735,9.536245346069336,0.6616592407226562,0.5139380097389221, 1.4549998044967651
560,375679070,0.99716276,0.0029585392,-0.014807562,0.07374584,0.2690572440624237,0.03424684703350067,9.52598762512207,0.6341000199317932,0.46217477321624756, 1.4804205894470215
561,375695737,0.9971628,0.0029532728,-0.014803727,0.07374572,0.2806597352027893,0.04843629151582718,9.517687797546387,0.640759289264679,0.49562498927116394, 1.4589442014694214
562,375712404,0.9971621,0.0029501186,-0.01479674,0.073756725,0.2827519476413727,0.03985578939318657,9.537574768066406,0.6581119298934937,0.5163072347640991, 1.5410329103469849
563,375729071,0.9971623,0.0029483137,-0.0148026,0.07375371,0.2830010950565338,0.05072658136487007,9.517234802246094,0.6594949960708618,0.42736706137657166, 1.448596715927124
564,375745738,0.99716175,0.002951182,-0.014807388,0.07376057,0.2867712676525116,0.033736228942871094,9.537505149841309,0.6931116580963135,0.432528018951416, 1.5164061784744263
565,375762405,0.9971614,0.0029532253,-0.014807286,0.073766075,0.28454551100730896,0.045444779098033905,9.54629898071289,0.6901021599769592,0.466452032327652, 1.5170080661773682
566,375779072,0.99716175,0.0029539575,-0.014803646,0.07376088,0.28082141280174255,0.04903503879904747,9.515265464782715,0.6815603375434875,0.4912067651748657, 1.4335492849349976
567,375795739,0.9971612,0.0029493219,-0.01479954,0.07376927,0.29156139492988586,0.029799118638038635,9.54532527923584,0.6466246247291565,0.4973282217979431, 1.5371397733688354
568,375812406,0.9971601,0.0029440213,-0.014799211,0.07378504,0.2907446324825287,0.03164352849125862,9.536776542663574,0.6405928730964661,0.47184357047080994, 1.5778896808624268
569,375829073,0.9971597,0.00293978,-0.01480144,0.07378979,0.2896253168582916,0.042468562722206116,9.524020195007324,0.6453183889389038,0.4536328911781311, 1.498003363609314
570,375845740,0.99715954,0.002939951,-0.014797654,0.0737928,0.2794477939605713,0.03982044383883476,9.535113334655762,0.6785252690315247,0.49256432056427, 1.4879508018493652
571,375862407,0.9971593,0.002936443,-0.014798303,0.07379604,0.29050111770629883,0.05036751553416252,9.532212257385254,0.6517344117164612,0.46412140130996704, 1.5117961168289185
572,375879074,0.99715877,0.0029406755,-0.014791702,0.07380477,0.28429731726646423,0.02989022061228752,9.519518852233887,0.7086458206176758,0.5099552869796753, 1.5382540225982666
573,375895741,0.99715847,0.0029389423,-0.014787612,0.073809534,0.2831537127494812,0.03392487391829491,9.531055450439453,0.6658598184585571,0.4956889748573303, 1.5021785497665405
574,375912408,0.997158,0.0029418783,-0.01479008,0.07381555,0.28887057304382324,0.03032442182302475,9.531970024108887,0.6948918104171753,0.4483695328235626, 1.5167906284332275
575,375929075,0.99715704,0.0029495002,-0.014797875,0.07382659,0.2906564176082611,0.025446908548474312,9.526782989501953,0.7246281504631042,0.4094894528388977, 1.5431588888168335
576,375945742,0.9971572,0.0029531321,-0.014802247,0.07382177,0.2939574122428894,0.022276150062680244,9.527873992919922,0.6978115439414978,0.4348844587802887, 1.4484814405441284
577,375962409,0.9971561,0.0029549517,-0.014799667,0.07383778,0.26220935583114624,0.05447118356823921,9.53300666809082,0.6905248165130615,0.48367658257484436, 1.5749311447143555
578,375979076,0.9971561,0.0029601944,-0.014792505,0.07383996,0.2824556827545166,0.029007211327552795,9.54415225982666,0.7148633003234863,0.5131504535675049, 1.477622389793396
579,375995743,0.9971559,0.0029644978,-0.014791822,0.07384113,0.2917742431163788,0.03820052742958069,9.517330169677734,0.7050344347953796,0.46914142370224, 1.4708670377731323
580,376012410,0.997156,0.0029628526,-0.014795607,0.07383843,0.28094080090522766,0.030700456351041794,9.525029182434082,0.6622611880302429,0.4415949583053589, 1.4701241254806519
581,376029077,0.9971551,0.0029572998,-0.014794719,0.07385121,0.2959878742694855,0.04279327020049095,9.513885498046875,0.6390817761421204,0.4757879376411438, 1.562906265258789
582,376045744,0.9971553,0.0029469999,-0.014782253,0.07385193,0.2972221076488495,0.031923435628414154,9.529705047607422,0.6110998392105103,0.5574156641960144, 1.4796650409698486
583,376062411,0.9971549,0.0029570786,-0.014777836,0.073857985,0.2856617271900177,0.03460925444960594,9.526169776916504,0.7474234104156494,0.49194955825805664, 1.514536738395691
584,376079078,0.99715483,0.0029543894,-0.01478366,0.073857725,0.28616490960121155,0.03565116226673126,9.528861999511719,0.6544620394706726,0.4282379150390625, 1.490447759628296
585,376095745,0.9971549,0.0029583417,-0.014786123,0.073856264,0.28612497448921204,0.03217153996229172,9.526652336120605,0.7009747624397278,0.447818785905838, 1.4604936838150024
586,376112412,0.9971548,0.0029630845,-0.01478669,0.073857725,0.2874949872493744,0.05040151998400688,9.52149486541748,0.7071731090545654,0.46034350991249084, 1.4633753299713135
587,376129079,0.99715525,0.0029638861,-0.014786869,0.07385085,0.30006906390190125,0.022709812968969345,9.523144721984863,0.6801260113716125,0.4649921953678131, 1.4304757118225098
588,376145746,0.9971548,0.0029663206,-0.014786515,0.073858984,0.2945224642753601,0.028153156861662865,9.529579162597656,0.6935343146324158,0.4680913984775543, 1.5453487634658813
589,376162413,0.99715406,0.0029643485,-0.01478505,0.07386706,0.28986555337905884,0.0345095656812191,9.541169166564941,0.6633241176605225,0.4779009222984314, 1.5272659063339233
590,376179080,0.9971538,0.002973076,-0.014776751,0.073873356,0.2881251275539398,0.034457869827747345,9.545475006103516,0.7400854229927063,0.519278347492218, 1.5137939453125
591,376195747,0.99715346,0.0029739027,-0.014784298,0.07387622,0.2894285321235657,0.03923311084508896,9.535920143127441,0.6778208613395691,0.4146760106086731, 1.5043811798095703
592,376212414,0.9971523,0.0029775414,-0.014782769,0.07389187,0.2865963280200958,0.03993360698223114,9.525932312011719,0.7023066878318787,0.4755702316761017, 1.566389560699463
593,376229081,0.9971527,0.0029686145,-0.014782689,0.07388568,0.286478191614151,0.03938908874988556,9.522448539733887,0.614237368106842,0.47185635566711426, 1.4543852806091309
594,376245748,0.9971529,0.0029668398,-0.014783653,0.07388243,0.2838422358036041,0.0390448123216629,9.533902168273926,0.662017822265625,0.4609709680080414, 1.4410407543182373
595,376262415,0.99715227,0.002963232,-0.014779845,0.07389198,0.2757209837436676,0.04018512740731239,9.532423973083496,0.6533735394477844,0.49490776658058167, 1.5344887971878052
596,376279082,0.99715257,0.0029560945,-0.014783538,0.07388855,0.2861107885837555,0.05569014698266983,9.534003257751465,0.6237524747848511,0.44502702355384827, 1.4362000226974487
597,376295749,0.9971523,0.0029535121,-0.014784518,0.0738919,0.28930872678756714,0.05041959881782532,9.553308486938477,0.6572282910346985,0.46135517954826355, 1.487156629562378
598,376312416,0.9971529,0.0029484436,-0.014781946,0.073884815,0.28872305154800415,0.04442491754889488,9.520263671875,0.6411563158035278,0.48687824606895447, 1.4253531694412231
599,376329083,0.9971539,0.0029998797,-0.01487882,0.07384991,0.2884494960308075,0.02791263349354267,9.52101993560791,0.7218106389045715,0.46979451179504395, 1.5586543083190918
600,376345750,0.9971542,0.0029922936,-0.014877609,0.07384588,0.29099735617637634,0.03357527032494545,9.529516220092773,0.6228944063186646,0.48024454712867737, 1.4409128427505493
601,376362417,0.9971541,0.0029973849,-0.014881838,0.07384575,0.28238198161125183,0.03954300284385681,9.540165901184082,0.7070833444595337,0.4365748465061188, 1.459917426109314
602,376379084,0.99715424,0.002992416,-0.0148795135,0.073844515,0.28015589714050293,0.03427246958017349,9.52013111114502,0.6413356065750122,0.4866093099117279, 1.4537193775177002
603,376395751,0.99715483,0.0029898188,-0.0148805035,0.07383846,0.2826995551586151,0.04242587462067604,9.550939559936523,0.6558708548545837,0.46271267533302307, 1.4345992803573608
604,376412418,0.99715483,0.0029927003,-0.014883963,0.07383591,0.28760889172554016,0.022763723507523537,9.526603698730469,0.6923048496246338,0.4429140090942383, 1.4480972290039062
605,376429085,0.9971546,0.0029936095,-0.014879259,0.07383985,0.2828020751476288,0.035077884793281555,9.520223617553711,0.6842241287231445,0.5001199841499329, 1.5138708353042603
606,376445752,0.9971543,0.002993659,-0.014878013,0.07384395,0.28594720363616943,0.04612402245402336,9.5252103805542,0.676488995552063,0.4767740070819855, 1.5097724199295044
607,376462419,0.9971538,0.0029936214,-0.014871616,0.07385332,0.2900112271308899,0.03076397255063057,9.516051292419434,0.6786660552024841,0.512260377407074, 1.5365890264511108
608,376479086,0.9971533,0.0029940573,-0.014869385,0.07386091,0.2961098551750183,0.042588748037815094,9.536785125732422,0.679357647895813,0.4833180010318756, 1.5156890153884888
609,376495753,0.99715275,0.0029953888,-0.014876202,0.07386677,0.28818297386169434,0.04768562316894531,9.531903266906738,0.6811889410018921,0.4208742678165436, 1.5158555507659912
610,376512420,0.9971526,0.0029947576,-0.014873452,0.07386936,0.28078940510749817,0.03459491580724716,9.530193328857422,0.6715714335441589,0.48736488819122314, 1.4742094278335571
611,376529087,0.99715275,0.002990195,-0.014880698,0.07386576,0.29018688201904297,0.037137310951948166,9.544540405273438,0.6394402980804443,0.4208102822303772, 1.4485198259353638
612,376545754,0.9971523,0.0029838958,-0.01487655,0.07387252,0.28611040115356445,0.030884217470884323,9.540279388427734,0.6341384053230286,0.49991506338119507, 1.5122184753417969
613,376562421,0.99715227,0.002990897,-0.014881773,0.07387313,0.29040083289146423,0.04570828005671501,9.527573585510254,0.7202867269515991,0.4288654327392578, 1.4784352779388428
614,376579088,0.99715203,0.002991352,-0.014878477,0.073875695,0.2921604514122009,0.04546695202589035,9.53492546081543,0.6797162294387817,0.4905664324760437, 1.486964464187622
