PacketCounter,SampleTimeFine,Quat_W,Quat_X,Quat_Y,Quat_Z,Acc_X,Acc_Y,Acc_Z,Gyr_X,Gyr_Y,Gyr_Z 
1,1231777080,0.20455526,0.6725113,-0.024939867,0.71081907,-0.5322688817977905,-0.148931086063385,-0.10545864701271057,-0.031097888946533203,0.19080767035484314, 0.009554634802043438
2,1231793747,0.20443033,0.67282677,-0.02492891,0.71055686,9.562878608703613,2.3872673511505127,0.9531526565551758,0.20912127196788788,-3.336092233657837, 0.49325573444366455
3,1231810414,0.20526764,0.6726722,-0.02602242,0.7104227,9.628438949584961,2.4754838943481445,1.2921675443649292,-6.815475940704346,-1.9566439390182495, 1.912276029586792
4,1231827081,0.20648739,0.67131025,-0.026733227,0.7113305,9.427750587463379,2.341824531555176,0.8908580541610718,-10.820883750915527,-2.7850747108459473, 1.8257956504821777
5,1231843748,0.2071595,0.67082095,-0.027478764,0.7115682,9.53667163848877,2.2824020385742188,0.8640679121017456,-9.274591445922852,-2.7016797065734863, 1.9182443618774414
6,1231860415,0.20756325,0.6708781,-0.02836605,0.71136165,9.534980773925781,2.273559808731079,0.8760319948196411,-5.464739799499512,-2.895695686340332, 1.4061055183410645
7,1231877082,0.20751551,0.6711794,-0.028929735,0.7110687,9.521860122680664,2.307058095932007,0.9027132391929626,-3.063624382019043,-3.0005533695220947, 1.036155343055725
8,1231893749,0.2076985,0.67155266,-0.029595768,0.7106354,9.53665828704834,2.293309450149536,0.9608108997344971,-1.32660973072052,-3.0524444580078125, 0.6629654765129089
9,1231910416,0.20748979,0.67196536,-0.029768739,0.7102989,9.531413078308105,2.298348903656006,0.9455698728561401,0.592402458190918,-3.2211427688598633, 0.23222392797470093
10,1231927083,0.20723346,0.67240113,-0.029817205,0.7099592,9.539013862609863,2.322384834289551,0.9619644284248352,1.3194704055786133,-3.4520926475524902, -0.003304038429632783
11,1231943750,0.20697388,0.6728377,-0.029768355,0.7096234,9.509636878967285,2.318302631378174,0.9405125379562378,1.9182697534561157,-3.5566952228546143, -0.19853688776493073
12,1231960417,0.20684811,0.67331135,-0.029764146,0.7092107,9.525524139404297,2.307234287261963,0.981086254119873,3.0250837802886963,-3.7991185188293457, -0.41262054443359375
13,1231977084,0.2065524,0.673797,-0.029539168,0.7088451,9.518818855285645,2.334235429763794,0.9513590931892395,4.083990097045898,-3.832671880722046, -0.563697099685669
14,1231993751,0.20623793,0.67429876,-0.02923535,0.708472,9.550674438476562,2.330183744430542,0.9386317729949951,4.502002239227295,-3.964116334915161, -0.729500949382782
15,1232010418,0.20596097,0.6748132,-0.028960194,0.7080739,9.536066055297852,2.3361756801605225,0.9456313848495483,4.643103122711182,-4.123414993286133, -0.7230850458145142
16,1232027085,0.20556697,0.6753276,-0.028574279,0.7077134,9.553351402282715,2.3368523120880127,0.9446278810501099,4.66294002532959,-4.159092903137207, -0.6553266048431396
17,1232043752,0.20530601,0.6758299,-0.028339386,0.70731926,9.553929328918457,2.372047185897827,0.9253402352333069,4.504742622375488,-4.21506929397583, -0.509526252746582
18,1232060419,0.20499207,0.67631364,-0.02807353,0.7069584,9.561285018920898,2.3479270935058594,0.9670713543891907,3.843390703201294,-4.221779823303223, -0.3573227822780609
19,1232077086,0.20471665,0.67678064,-0.027872644,0.7065991,9.53506851196289,2.340116500854492,0.9282416105270386,3.578843593597412,-4.257739543914795, -0.20157192647457123
20,1232093753,0.20439655,0.677238,-0.027652822,0.7062622,9.5214204788208,2.3658809661865234,0.9442710876464844,3.128995180130005,-4.30376672744751, -0.0943571925163269
21,1232110420,0.20443739,0.67764676,-0.027792405,0.7058527,9.527295112609863,2.3667654991149902,0.92751544713974,2.2240729331970215,-4.2573442459106445, -0.008759545162320137
22,1232127087,0.20452829,0.67803276,-0.027999058,0.7054475,9.53896713256836,2.3708043098449707,0.9164214134216309,1.7128558158874512,-4.220794200897217, 0.10381469130516052
23,1232143754,0.20434023,0.6784222,-0.027945276,0.7051296,9.522090911865234,2.361355781555176,0.917249858379364,1.4623634815216064,-4.229220390319824, 0.15678173303604126
24,1232160421,0.20424305,0.6787908,-0.027983194,0.7048014,9.532600402832031,2.366624116897583,0.9216805100440979,1.2429395914077759,-4.138525485992432, 0.20155273377895355
25,1232177088,0.20419423,0.679136,-0.02809888,0.70447826,9.54875373840332,2.390251874923706,0.9274883270263672,1.0515741109848022,-4.014995098114014, 0.38809001445770264
26,1232193755,0.20411146,0.6794581,-0.028187571,0.7041881,9.53945541381836,2.348548412322998,0.8973335027694702,0.9538490772247314,-3.8272807598114014, 0.47393110394477844
27,1232210422,0.20396394,0.6797891,-0.028239511,0.7039091,9.55412769317627,2.369933843612671,0.9291436672210693,1.3288955688476562,-3.810119390487671, 0.6122523546218872
28,1232227089,0.2039121,0.6801064,-0.028382236,0.703612,9.534775733947754,2.3619489669799805,0.9280198812484741,1.0739341974258423,-3.7975058555603027, 0.6065792441368103
29,1232243756,0.2037927,0.68041265,-0.028448256,0.7033478,9.53317642211914,2.367431402206421,0.8811948299407959,0.8951318860054016,-3.7272117137908936, 0.5602714419364929
30,1232260423,0.20367816,0.68072,-0.02853025,0.7030802,9.524596214294434,2.3689725399017334,0.9218354225158691,0.6395684480667114,-3.798248529434204, 0.6017768979072571
31,1232277090,0.20356655,0.68101573,-0.028626418,0.7028222,9.543733596801758,2.369244337081909,0.8924069404602051,0.62249755859375,-3.7143285274505615, 0.6831228137016296
32,1232293757,0.2034773,0.681294,-0.028731713,0.70257396,9.53596019744873,2.345876455307007,0.8942065238952637,0.5145399570465088,-3.5769033432006836, 0.6436663866043091
33,1232310424,0.2033581,0.6815623,-0.028819785,0.7023445,9.516289710998535,2.3488426208496094,0.9073418378829956,0.817602276802063,-3.4001245498657227, 0.736883819103241
34,1232327091,0.20321687,0.6818474,-0.028880019,0.7021063,9.523824691772461,2.3702645301818848,0.9185761213302612,0.7278938293457031,-3.5800538063049316, 0.6718147993087769
35,1232343758,0.20317551,0.6821426,-0.02903704,0.7018249,9.511626243591309,2.373908758163452,0.9174893498420715,0.4110262393951416,-3.8116822242736816, 0.6311674118041992
36,1232360425,0.20323782,0.6824812,-0.029293997,0.7014669,9.526854515075684,2.3745946884155273,0.9257802963256836,-0.1586962789297104,-4.425708293914795, 0.5178439617156982
37,1232377092,0.20324382,0.682827,-0.029496474,0.7011202,9.54231071472168,2.3735785484313965,0.8849443197250366,-0.6019881963729858,-4.595226287841797, 0.48717281222343445
38,1232393759,0.20329343,0.68316174,-0.029702952,0.7007709,9.512316703796387,2.356050968170166,0.9277147650718689,-0.27259594202041626,-4.4109039306640625, 0.3372616171836853
39,1232410426,0.20337157,0.683577,-0.029959625,0.70033216,9.502070426940918,2.449867010116577,0.9389137029647827,-0.9080085754394531,-5.385697364807129, 0.2705661654472351
40,1232427093,0.20368004,0.6839224,-0.030462686,0.6998834,9.558642387390137,2.349510908126831,0.8114363551139832,-2.512746572494507,-5.227718353271484, 0.4006786644458771
41,1232443760,0.20374025,0.6842594,-0.030733833,0.6995244,9.582890510559082,2.2737605571746826,0.8353169560432434,-0.8749299645423889,-4.628868579864502, 0.5820679068565369
42,1232460427,0.20371026,0.6846126,-0.03087942,0.69918126,9.541047096252441,2.3479394912719727,0.8509794473648071,0.14216329157352448,-4.475243091583252, 0.4127998948097229
43,1232477094,0.20374681,0.68491274,-0.03110871,0.69886625,9.5403470993042,2.328260898590088,0.845457911491394,-0.47292566299438477,-4.146362781524658, 0.5440393090248108
44,1232493761,0.2037237,0.6852144,-0.031297825,0.6985687,9.560103416442871,2.3312175273895264,0.8441518545150757,0.17445454001426697,-3.9842610359191895, 0.6706622838973999
45,1232510428,0.20354894,0.68550384,-0.031321246,0.6983347,9.54446792602539,2.3334670066833496,0.8496959209442139,0.41648176312446594,-3.7328972816467285, 0.6268901228904724
46,1232527095,0.20347334,0.685784,-0.03143706,0.6980765,9.549154281616211,2.3224241733551025,0.8428310751914978,0.6188347935676575,-3.6351206302642822, 0.6175797581672668
47,1232543762,0.20336072,0.68605924,-0.031511888,0.6978354,9.539219856262207,2.3477351665496826,0.8444271683692932,0.7893642783164978,-3.531235933303833, 0.6087434887886047
48,1232560429,0.20331652,0.686329,-0.031657062,0.6975765,9.537302017211914,2.321838140487671,0.8752681612968445,0.6113559603691101,-3.554184913635254, 0.6177207827568054
49,1232577096,0.2031701,0.6865967,-0.03169091,0.697354,9.543437957763672,2.3480727672576904,0.8638943433761597,0.890355110168457,-3.429860830307007, 0.5872928500175476
50,1232593763,0.203001,0.68686885,-0.03170849,0.69713455,9.557432174682617,2.333369255065918,0.8824107646942139,1.113262414932251,-3.4195644855499268, 0.6268516182899475
51,1232610430,0.20285238,0.68712884,-0.031738803,0.6969201,9.535468101501465,2.3446974754333496,0.8630580902099609,1.430693507194519,-3.2430803775787354, 0.6228688359260559
52,1232627097,0.2027483,0.6873838,-0.03181622,0.6966953,9.536988258361816,2.353950262069702,0.8408878445625305,0.9723924994468689,-3.334658145904541, 0.6195263266563416
53,1232643764,0.20265506,0.68761647,-0.031898256,0.6964892,9.570180892944336,2.3317112922668457,0.833504855632782,1.0298289060592651,-3.10904860496521, 0.633370041847229
54,1232660431,0.20249586,0.68786085,-0.03190602,0.6962937,9.531301498413086,2.352792739868164,0.9168205261230469,1.3548541069030762,-3.1180901527404785, 0.586588442325592
55,1232677098,0.2025014,0.68812966,-0.0320678,0.6960192,9.514745712280273,2.38407301902771,0.8899499773979187,0.6699705719947815,-3.611095905303955, 0.45632222294807434
56,1232693765,0.2026294,0.6884087,-0.032359384,0.69569236,9.5228910446167,2.366542100906372,0.8771779537200928,-0.40762612223625183,-4.045231342315674, 0.4232562482357025
57,1232710432,0.20266265,0.6887065,-0.03252949,0.69537985,9.562385559082031,2.3133885860443115,0.8541098237037659,-0.4763065576553345,-4.2027363777160645, 0.2668651044368744
58,1232727099,0.20269105,0.6889941,-0.032680847,0.69507957,9.54939079284668,2.35005784034729,0.8524221181869507,-0.38974839448928833,-4.083227634429932, 0.21458959579467773
59,1232743766,0.20282511,0.68926233,-0.032921206,0.69476324,9.54911994934082,2.332435369491577,0.8305993676185608,-0.20519618690013885,-3.900635242462158, 0.16953688859939575
60,1232760433,0.2028623,0.68952054,-0.03307616,0.6944886,9.559556007385254,2.3343400955200195,0.8198394775390625,0.24765561521053314,-3.664140462875366, 0.26457279920578003
61,1232777100,0.20287764,0.689757,-0.033185992,0.69424397,9.54670238494873,2.3398306369781494,0.8392438292503357,0.5638571381568909,-3.3607959747314453, 0.20388346910476685
62,1232793767,0.20286757,0.6899789,-0.0332912,0.69402134,9.542259216308594,2.3428518772125244,0.8491921424865723,0.4789767265319824,-3.2462687492370605, 0.32651713490486145
63,1232810434,0.20276402,0.6902031,-0.03333014,0.69382674,9.53275203704834,2.3373520374298096,0.8708683252334595,0.47674837708473206,-3.2499186992645264, 0.46440309286117554
64,1232827101,0.20261382,0.6904203,-0.033304334,0.69365597,9.539833068847656,2.3233184814453125,0.8326385021209717,0.8482221364974976,-3.0752525329589844, 0.41004008054733276
65,1232843768,0.202562,0.6906304,-0.03338077,0.69345826,9.5507173538208,2.339448928833008,0.8686109185218811,1.1459314823150635,-2.9931769371032715, 0.44259384274482727
66,1232860435,0.20246309,0.6908434,-0.03339002,0.69327444,9.550699234008789,2.33644700050354,0.845341145992279,1.209809422492981,-2.990833282470703, 0.34652063250541687
67,1232877102,0.20231822,0.6910602,-0.033357307,0.6931022,9.537933349609375,2.3319365978240967,0.8508224487304688,1.3254635334014893,-2.990833044052124, 0.3698025345802307
68,1232893769,0.20227161,0.6912677,-0.033420224,0.6929059,9.541045188903809,2.3394887447357178,0.8509227633476257,1.125569224357605,-3.0064315795898438, 0.3557156026363373
69,1232910436,0.20225161,0.69147295,-0.03352136,0.6927021,9.53243637084961,2.3396408557891846,0.8850431442260742,0.8429075479507446,-3.0866377353668213, 0.3991674780845642
70,1232927103,0.20221634,0.691679,-0.03359479,0.692503,9.544330596923828,2.3453054428100586,0.8398385643959045,0.8940817713737488,-3.087533950805664, 0.34361356496810913
71,1232943770,0.20222141,0.69188666,-0.033710256,0.69228846,9.551865577697754,2.3262879848480225,0.8644512295722961,1.1805596351623535,-3.066185712814331, 0.3586994707584381
72,1232960437,0.20219986,0.6920927,-0.03379037,0.6920848,9.546435356140137,2.3341259956359863,0.8886334896087646,1.305331826210022,-3.0217859745025635, 0.3251211643218994
73,1232977104,0.20220926,0.69231373,-0.033920437,0.69185454,9.553018569946289,2.346858024597168,0.8659339547157288,1.4678572416305542,-3.1721198558807373, 0.39451882243156433
74,1232993771,0.20216426,0.69252455,-0.034033127,0.69165105,9.583736419677734,2.3880245685577393,0.8992201685905457,0.582439124584198,-3.2951886653900146, 0.5679935812950134
75,1233010438,0.20224802,0.69268334,-0.0343763,0.69145066,9.529596328735352,2.3648736476898193,0.864610493183136,-1.438934326171875,-3.4005086421966553, 1.061652660369873
76,1233027105,0.20245744,0.69285965,-0.034837745,0.6911896,9.529922485351562,2.333200216293335,0.835662841796875,-1.2324320077896118,-3.6005313396453857, 0.9908722043037415
77,1233043772,0.202535,0.69306046,-0.03514244,0.69095004,9.524041175842285,2.3048131465911865,0.8575775623321533,0.04464934393763542,-3.4754385948181152, 0.889061689376831
78,1233060439,0.20262848,0.6933072,-0.03539002,0.6906625,9.51091194152832,2.3629024028778076,0.9311563372612,0.23326128721237183,-3.8695545196533203, 0.4613296091556549
79,1233077106,0.20279603,0.69357634,-0.03569695,0.69032705,9.537407875061035,2.364363193511963,0.8735440373420715,-0.654724657535553,-4.360203742980957, 0.31518349051475525
80,1233093773,0.20295407,0.6938731,-0.03595203,0.68996924,9.547098159790039,2.3382959365844727,0.8471150994300842,-0.7332660555839539,-4.6425580978393555, 0.06608717143535614
81,1233110440,0.20307724,0.69415045,-0.036164697,0.6896426,9.565975189208984,2.310886859893799,0.8307738900184631,-0.4018760621547699,-4.371793270111084, 0.08153163641691208
82,1233127107,0.20310217,0.6944507,-0.03624,0.6893289,9.544656753540039,2.3416543006896973,0.8925613760948181,0.288533478975296,-4.378913879394531, -0.11127438396215439
83,1233143774,0.20329323,0.6947424,-0.036486167,0.68896586,9.53886604309082,2.360811710357666,0.8434809446334839,-0.22905439138412476,-4.530874252319336, -0.1184203252196312
84,1233160441,0.20325482,0.6950365,-0.036491234,0.6886802,9.555072784423828,2.3112757205963135,0.8365986347198486,0.2649441957473755,-4.332772254943848, -0.11817700415849686
85,1233177108,0.20327133,0.69534445,-0.03652593,0.68836254,9.544034957885742,2.338472604751587,0.8228974938392639,0.7463349103927612,-4.389453411102295, -0.26105746626853943
86,1233193775,0.20338048,0.6956332,-0.036657583,0.68803144,9.542236328125,2.3590283393859863,0.8215133547782898,0.45953667163848877,-4.339892864227295, -0.23279385268688202
87,1233210442,0.20351996,0.69591266,-0.03679964,0.68769985,9.58696174621582,2.3090932369232178,0.8383303880691528,0.4687700867652893,-4.271647930145264, -0.31787922978401184
88,1233227109,0.20345351,0.696192,-0.036746077,0.6874397,9.549155235290527,2.349289655685425,0.7945998311042786,0.9110629558563232,-4.083317279815674, -0.21505701541900635
89,1233243776,0.20347022,0.6964511,-0.036761563,0.6871713,9.521747589111328,2.349708318710327,0.7973634004592896,0.39654219150543213,-4.063697814941406, -0.2792680561542511
90,1233260443,0.20352595,0.6966763,-0.0368304,0.6869229,9.562691688537598,2.3659441471099854,0.7627883553504944,0.18849027156829834,-3.825167655944824, -0.16205155849456787
91,1233277110,0.20353366,0.6969027,-0.036876015,0.6866884,9.549771308898926,2.3498106002807617,0.8517277836799622,0.693668782711029,-3.721768856048584, -0.021271347999572754
92,1233293777,0.20356798,0.69712144,-0.0369384,0.68645287,9.525129318237305,2.3415331840515137,0.8480484485626221,0.23345333337783813,-3.790013551712036, -0.06665704399347305
93,1233310444,0.20369089,0.69736177,-0.03706154,0.6861656,9.530693054199219,2.391392707824707,0.8466091156005859,-0.2791783809661865,-4.183424472808838, -0.2690998315811157
94,1233327111,0.20381945,0.69759345,-0.037190765,0.68588483,9.551819801330566,2.3333969116210938,0.8161202073097229,-0.9116840362548828,-4.279818534851074, -0.2587651014328003
95,1233343778,0.2039746,0.6978244,-0.03734277,0.6855955,9.547905921936035,2.343031644821167,0.7705791592597961,-0.8643389344215393,-4.296018123626709, -0.2794089615345001
96,1233360445,0.20397225,0.69804525,-0.037347574,0.6853711,9.564595222473145,2.340667486190796,0.7870466709136963,-0.3497926890850067,-4.014342784881592, -0.16511228680610657
97,1233377112,0.2040076,0.69826275,-0.03740826,0.68513554,9.551976203918457,2.357875347137451,0.8362341523170471,0.2262050062417984,-3.8963966369628906, -0.07339319586753845
98,1233393779,0.20405588,0.69846725,-0.037486464,0.68490845,9.543967247009277,2.3672523498535156,0.8181079030036926,0.27063021063804626,-3.792280673980713, -0.029557056725025177
99,1233410446,0.20410527,0.6986698,-0.037568297,0.68468267,9.561758995056152,2.343297004699707,0.80385822057724,0.12115448713302612,-3.8367955684661865, -0.01506026927381754
100,1233427113,0.20411092,0.69886893,-0.037590217,0.6844765,9.550508499145508,2.3447351455688477,0.7990095615386963,0.30326077342033386,-3.7515945434570312, -0.0717027559876442
101,1233443780,0.20415074,0.69905263,-0.03765814,0.68427324,9.561080932617188,2.3669519424438477,0.7797855138778687,0.30415719747543335,-3.6484906673431396, 0.0005314635345712304
102,1233460447,0.20411965,0.6992347,-0.037689164,0.68409485,9.527585983276367,2.356895685195923,0.8041579723358154,0.3244937062263489,-3.6296653747558594, 0.19295969605445862
103,1233477114,0.2040974,0.69940084,-0.03772038,0.68392986,9.547335624694824,2.3556480407714844,0.775044322013855,0.6262369751930237,-3.4253273010253906, 0.18174132704734802
104,1233493781,0.20406914,0.69955665,-0.037745137,0.68377763,9.544950485229492,2.3678438663482666,0.7862837910652161,0.6307703852653503,-3.3416378498077393, 0.2024235725402832
105,1233510448,0.20401186,0.6996997,-0.0377503,0.6836481,9.559372901916504,2.3639793395996094,0.7961081862449646,0.39239293336868286,-3.2869672775268555, 0.27794259786605835
106,1233527115,0.20392177,0.69983983,-0.037734512,0.6835324,9.537622451782227,2.3629226684570312,0.8215116858482361,0.5861402153968811,-3.2258169651031494, 0.35373058915138245
107,1233543782,0.20387474,0.69996625,-0.037745316,0.6834162,9.534501075744629,2.3496787548065186,0.7966760396957397,0.4761720895767212,-3.1582894325256348, 0.2901342511177063
108,1233560449,0.20389955,0.70008963,-0.037842043,0.6832772,9.559008598327637,2.3443267345428467,0.7938446402549744,0.8180118799209595,-3.1167452335357666, 0.33823487162590027
109,1233577116,0.20387979,0.7002088,-0.0378658,0.6831597,9.551109313964844,2.349571943283081,0.8189599514007568,0.7450157403945923,-3.079594135284424, 0.2274087518453598
110,1233593783,0.20381409,0.7003289,-0.03786803,0.68305606,9.534783363342285,2.3495845794677734,0.7932453155517578,0.9448077082633972,-3.0575671195983887, 0.3619138300418854
111,1233610450,0.20377776,0.70043623,-0.037881564,0.6829561,9.556873321533203,2.357562780380249,0.783699631690979,0.8914437294006348,-2.9760935306549072, 0.2882005274295807
112,1233627117,0.2037368,0.700535,-0.03790164,0.6828659,9.545984268188477,2.3614723682403564,0.8183327317237854,1.0403944253921509,-2.8831067085266113, 0.36393728852272034
113,1233643784,0.20360078,0.7006428,-0.037827864,0.6827998,9.537934303283691,2.3553924560546875,0.8278552293777466,1.353061318397522,-2.8777148723602295, 0.38710394501686096
114,1233660451,0.20352362,0.70075715,-0.037809562,0.68270653,9.526415824890137,2.39676570892334,0.8401334881782532,1.031724214553833,-3.0774550437927246, 0.3411034941673279
115,1233677118,0.20353627,0.70088226,-0.037893828,0.68256956,9.518353462219238,2.4142582416534424,0.8520654439926147,0.46508172154426575,-3.4052209854125977, 0.35639429092407227
116,1233693785,0.20357867,0.70100415,-0.038015436,0.682425,9.542618751525879,2.3475160598754883,0.7908858060836792,0.06627926230430603,-3.5197994709014893, 0.39033111929893494
117,1233710452,0.20354646,0.70112646,-0.038062427,0.68230623,9.560733795166016,2.3144524097442627,0.7860259413719177,0.568608283996582,-3.3903145790100098, 0.42260313034057617
118,1233727119,0.20354487,0.7012396,-0.038116574,0.6821875,9.552396774291992,2.3745529651641846,0.7907743453979492,0.6046198606491089,-3.319662094116211, 0.3116617798805237
119,1233743786,0.20365779,0.7013401,-0.038289584,0.6820407,9.564901351928711,2.3661417961120605,0.7986311316490173,0.14017188549041748,-3.3975884914398193, 0.316566526889801
120,1233760453,0.20368785,0.701436,-0.038380407,0.68192804,9.547506332397461,2.348568916320801,0.8011733889579773,0.24034318327903748,-3.3108255863189697, 0.35485753417015076
121,1233777120,0.203647,0.701529,-0.03839767,0.6818436,9.540480613708496,2.3493638038635254,0.8097888827323914,0.4753139913082123,-3.213599443435669, 0.3836589753627777
122,1233793787,0.20372035,0.7016186,-0.038535185,0.68172175,9.540298461914062,2.36124324798584,0.8244079351425171,0.6104722619056702,-3.2408385276794434, 0.37646180391311646
123,1233810454,0.20375794,0.70170236,-0.03862217,0.6816193,9.553125381469727,2.377250909805298,0.8290155529975891,0.6893081665039062,-3.1658196449279785, 0.3294369578361511
124,1233827121,0.20378855,0.70178497,-0.03873049,0.681519,9.560710906982422,2.369450807571411,0.8171744346618652,0.4736364185810089,-3.2470881938934326, 0.4678095281124115
125,1233843788,0.2038207,0.7018542,-0.03883526,0.68143207,9.533814430236816,2.38132905960083,0.7958059906959534,0.6221900582313538,-3.10676908493042, 0.4759928584098816
126,1233860455,0.20378509,0.7019298,-0.038871728,0.68136287,9.534513473510742,2.368933916091919,0.8081570267677307,0.5444684028625488,-3.1767690181732178, 0.4935119152069092
127,1233877122,0.2037957,0.70200115,-0.038951967,0.6812815,9.543951988220215,2.3873064517974854,0.8078148365020752,0.42278242111206055,-3.21677565574646, 0.472074031829834
128,1233893789,0.20382477,0.7020621,-0.03905781,0.6812041,9.535696983337402,2.3366804122924805,0.817489743232727,0.23191656172275543,-3.2010498046875, 0.5222749710083008
129,1233910456,0.20385751,0.7021389,-0.03911787,0.68111145,9.541705131530762,2.3470354080200195,0.8298880457878113,-0.04634618014097214,-3.43009090423584, 0.2675054371356964
130,1233927123,0.2039561,0.7022053,-0.039237797,0.68100667,9.5503568649292,2.3577184677124023,0.8048822283744812,-0.3359745740890503,-3.457944869995117, 0.22762645781040192
131,1233943790,0.2040918,0.7022526,-0.039391536,0.6809084,9.538932800292969,2.3593688011169434,0.7872257828712463,-0.7128397822380066,-3.404529571533203, 0.23636038601398468
132,1233960457,0.204197,0.70226717,-0.039531574,0.6808536,9.534117698669434,2.3377647399902344,0.7425887584686279,-0.6497941017150879,-3.0845372676849365, 0.3859897255897522
133,1233977124,0.20424704,0.70226544,-0.039610106,0.680836,9.529711723327637,2.353567361831665,0.7880662679672241,0.24755316972732544,-2.6948018074035645, 0.4008195400238037
134,1233993791,0.20423692,0.70223135,-0.039637685,0.68087256,9.577047348022461,2.3659751415252686,0.812898576259613,-0.05524659529328346,-2.444283962249756, 0.5289342999458313
135,1234010458,0.2043161,0.7021841,-0.03975179,0.6808908,9.562582969665527,2.3922317028045654,0.797546923160553,-0.015444458462297916,-2.381315231323242, 0.504871129989624
136,1234027125,0.20437758,0.70212173,-0.039867997,0.68093,9.531820297241211,2.38486385345459,0.8233606815338135,-0.34479817748069763,-2.336083173751831, 0.6397476196289062
137,1234043792,0.20442727,0.70206827,-0.039991178,0.6809629,9.554630279541016,2.3519158363342285,0.8386257290840149,-0.05204501003026962,-2.387219190597534, 0.7215802669525146
138,1234060459,0.20441248,0.7019982,-0.040055294,0.6810359,9.648361206054688,2.3209688663482666,0.8553609848022461,0.3045157790184021,-2.1313226222991943, 0.8003648519515991
139,1234077126,0.20441525,0.7019481,-0.040161405,0.68108034,9.552597045898438,2.300363779067993,0.8645977973937988,1.1941088438034058,-2.1712396144866943, 0.8720291256904602
140,1234093793,0.2043078,0.701974,-0.040153254,0.68108636,9.502098083496094,2.355423927307129,0.888414204120636,1.4728519916534424,-2.822660446166992, 0.7622275948524475
141,1234110460,0.20425718,0.70202667,-0.04020514,0.6810441,9.457609176635742,2.361001968383789,0.845893144607544,0.8732200860977173,-3.2970714569091797, 0.71558678150177
142,1234127127,0.2041524,0.70208746,-0.040184706,0.68101424,9.494693756103516,2.3262414932250977,0.8281881213188171,1.2279047966003418,-3.279411792755127, 0.6403366923332214
143,1234143794,0.20403299,0.7021463,-0.040114023,0.68099344,9.591285705566406,2.3123466968536377,0.7628753185272217,1.969456434249878,-3.0815536975860596, 0.48142269253730774
144,1234160461,0.20385863,0.7021556,-0.039931115,0.68104684,9.594813346862793,2.307326555252075,0.7218601703643799,2.679197311401367,-2.3786771297454834, 0.31474804878234863
145,1234177128,0.20373456,0.7020908,-0.039762806,0.68116075,9.552244186401367,2.3559415340423584,0.7529759407043457,2.3348987102508545,-1.7526259422302246, 0.25235551595687866
146,1234193795,0.20370829,0.7019499,-0.039657503,0.6813199,9.530954360961914,2.3937973976135254,0.8014668822288513,1.3579660654067993,-1.2867562770843506, 0.19050085544586182
147,1234210462,0.20374525,0.70176613,-0.039600845,0.6815013,9.571128845214844,2.345224380493164,0.8067576289176941,1.0354253053665161,-0.9907376170158386, 0.16963930428028107
148,1234227129,0.20366201,0.7015622,-0.039405182,0.6817474,9.569785118103027,2.3531668186187744,0.8184924125671387,1.5400340557098389,-0.6159086227416992, 0.16962650418281555
149,1234243796,0.20369044,0.7013344,-0.03933314,0.68197745,9.563446044921875,2.35264253616333,0.854215681552887,1.6198302507400513,-0.45353683829307556, 0.22441202402114868
150,1234260463,0.20361891,0.7011195,-0.039176226,0.6822288,9.55522346496582,2.3553197383880615,0.8829110860824585,1.9168221950531006,-0.48869022727012634, 0.3185514807701111
151,1234277130,0.20360696,0.7009072,-0.0390759,0.68245625,9.56695556640625,2.3439266681671143,0.8691148161888123,2.0162765979766846,-0.5499559044837952, 0.28233519196510315
152,1234293797,0.20365773,0.7007099,-0.039027017,0.68264645,9.53199291229248,2.3809168338775635,0.9138087630271912,1.945278286933899,-0.7697129249572754, 0.18412329256534576
153,1234310464,0.20369792,0.70052755,-0.038971398,0.68282473,9.502860069274902,2.3838436603546143,0.9199784398078918,1.1299235820770264,-1.1363202333450317, 0.1828426718711853
154,1234327131,0.20391895,0.7003734,-0.039089043,0.68291014,9.51160717010498,2.398259401321411,0.9186483025550842,0.6386974453926086,-1.6562068462371826, 0.04612206667661667
155,1234343798,0.20404282,0.7002166,-0.039087255,0.6830341,9.50562572479248,2.342592239379883,0.8661091923713684,0.6720964908599854,-1.5812768936157227, -0.018223436549305916
156,1234360465,0.20413099,0.70002604,-0.03899244,0.6832085,9.616287231445312,2.26872181892395,0.9015145301818848,0.9968910813331604,-1.1406359672546387, -0.2172469049692154
157,1234377132,0.20413353,0.6998484,-0.038777765,0.6834019,9.547001838684082,2.314004421234131,0.923763632774353,1.6913022994995117,-1.0610955953598022, -0.3753284513950348
158,1234393799,0.20445657,0.699695,-0.038802262,0.683461,9.41940975189209,2.4849677085876465,0.9601340293884277,-0.045731473714113235,-1.8732103109359741, -0.9160894155502319
159,1234410466,0.2049894,0.6995041,-0.039068416,0.68348175,9.595396995544434,2.357884168624878,0.9185039401054382,-2.475620985031128,-2.2448761463165283, -0.775898277759552
160,1234427133,0.20530578,0.69934076,-0.039099224,0.68355197,9.59262752532959,2.233926296234131,0.8578476309776306,-0.3335670232772827,-1.9007185697555542, -0.8281611204147339
161,1234443800,0.20534132,0.6992498,-0.038826287,0.68365,9.505027770996094,2.337956666946411,0.9206200242042542,2.0976738929748535,-1.8816883563995361, -0.9602712392807007
162,1234460467,0.20546572,0.6992108,-0.03864554,0.68366265,9.437660217285156,2.4191105365753174,0.9940665364265442,1.7649903297424316,-2.550320625305176, -1.0629911422729492
163,1234477134,0.20572777,0.69922936,-0.038595192,0.6835678,9.452179908752441,2.3710319995880127,1.0043704509735107,0.2965374290943146,-3.570115566253662, -1.2454558610916138
164,1234493801,0.2060787,0.6993223,-0.038589686,0.68336743,9.447484970092773,2.382697343826294,0.9444193243980408,0.02008676342666149,-4.425619602203369, -1.610859751701355
165,1234510468,0.2064605,0.69944113,-0.038641356,0.68312734,9.524063110351562,2.3986828327178955,0.9155261516571045,-0.5522738695144653,-4.877721309661865, -1.5444073677062988
166,1234527135,0.20672041,0.6996031,-0.038568627,0.6828871,9.523627281188965,2.2965586185455322,0.9191291928291321,0.5183178186416626,-4.99731969833374, -1.5824167728424072
167,1234543802,0.20692293,0.69985795,-0.03842356,0.68257284,9.491458892822266,2.377861738204956,0.9505429267883301,1.2957912683486938,-5.709967136383057, -1.7941054105758667
168,1234560469,0.20728715,0.70016736,-0.038403094,0.682146,9.473366737365723,2.4215214252471924,0.9368296265602112,-0.16095025837421417,-6.6997456550598145, -2.129453182220459
169,1234577136,0.20777233,0.7005213,-0.038515404,0.6816284,9.484940528869629,2.434144973754883,0.918425440788269,-1.6589348316192627,-7.606550216674805, -2.201117515563965
170,1234593803,0.2082845,0.700897,-0.03868199,0.68107635,9.528948783874512,2.425605535507202,0.8739556670188904,-1.6725739240646362,-7.8816447257995605, -2.115776300430298
171,1234610470,0.20864871,0.70129335,-0.038705524,0.6805551,9.548542976379395,2.424290180206299,0.8898422122001648,-0.98678058385849,-7.865635871887207, -2.0806221961975098
172,1234627137,0.20902687,0.7016465,-0.03872218,0.680074,9.564253807067871,2.4466896057128906,0.847115159034729,-0.9462999105453491,-7.446139335632324, -2.108181953430176
173,1234643804,0.2094223,0.7019374,-0.03876376,0.67964983,9.572550773620605,2.419499397277832,0.7605634331703186,-1.0367636680603027,-6.884105205535889, -1.9669145345687866
174,1234660471,0.20978056,0.7021435,-0.038752392,0.6793268,9.5634126663208,2.4624738693237305,0.7432191967964172,-0.8147273063659668,-5.974111557006836, -1.8826361894607544
175,1234677138,0.21012594,0.7022553,-0.038704235,0.6791073,9.574373245239258,2.4197027683258057,0.7720490097999573,-0.6205445528030396,-4.979839324951172, -1.8234193325042725
176,1234693805,0.21036567,0.7023027,-0.038556147,0.6789924,9.539042472839355,2.4558730125427246,0.7991838455200195,0.008689108304679394,-4.142547130584717, -1.64810049533844
177,1234710472,0.2106124,0.70233136,-0.038391057,0.6788958,9.507499694824219,2.4918882846832275,0.8096147179603577,-0.11428387463092804,-3.9942877292633057, -1.7294976711273193
178,1234727139,0.2109177,0.7023564,-0.03829951,0.67878,9.487792015075684,2.5429630279541016,0.8895975947380066,-0.9367078542709351,-4.22471284866333, -1.6726120710372925
179,1234743806,0.21135204,0.7024202,-0.03834074,0.67857665,9.508219718933105,2.550098419189453,0.9354614019393921,-2.676988363265991,-5.144169807434082, -1.7684415578842163
180,1234760473,0.21184988,0.7024819,-0.03846115,0.6783508,9.550841331481934,2.4371743202209473,0.8513858914375305,-2.6562418937683105,-5.186443328857422, -1.7040002346038818
181,1234777140,0.2121519,0.7025557,-0.038387246,0.67818403,9.552149772644043,2.4231958389282227,0.7560765743255615,-1.1250892877578735,-4.833771228790283, -1.6532231569290161
182,1234793807,0.21234344,0.7026176,-0.038220245,0.67806953,9.549637794494629,2.4763567447662354,0.8323161602020264,-0.1092509925365448,-4.418280601501465, -1.5094335079193115
183,1234810474,0.21267281,0.7026524,-0.03816568,0.6779332,9.5159330368042,2.537785768508911,0.7918035387992859,-1.097017526626587,-4.480493545532227, -1.6324125528335571
184,1234827141,0.21300963,0.7026414,-0.038171187,0.67783856,9.536227226257324,2.4861297607421875,0.7370463609695435,-1.5126991271972656,-4.178135871887207, -1.2999600172042847
185,1234843808,0.21320747,0.7026246,-0.038051877,0.67780036,9.515633583068848,2.4490575790405273,0.7181993126869202,0.08262018114328384,-3.6549072265625, -1.1717042922973633
186,1234860475,0.21333446,0.70258003,-0.037849594,0.67781806,9.495405197143555,2.4877548217773438,0.7318456172943115,0.6540522575378418,-3.197399854660034, -1.1519951820373535
187,1234877142,0.21344039,0.7025075,-0.037650414,0.677871,9.483874320983887,2.5143070220947266,0.7345756888389587,0.6084616184234619,-2.94464111328125, -0.9781234264373779
188,1234893809,0.21346438,0.7024245,-0.037386727,0.6779639,9.49569034576416,2.5188841819763184,0.7434977293014526,0.845865786075592,-2.759563446044922, -0.8454751968383789
189,1234910476,0.21350355,0.7023154,-0.037165344,0.67807686,9.514505386352539,2.5348851680755615,0.7888104319572449,0.8654723763465881,-2.520315408706665, -0.675137996673584
190,1234927143,0.21341999,0.70220846,-0.03683881,0.6782316,9.496511459350586,2.489619493484497,0.7946068644523621,1.2705882787704468,-2.400076389312744, -0.5509675741195679
191,1234943810,0.21334669,0.70210195,-0.036551405,0.67838055,9.486138343811035,2.5388975143432617,0.8273441195487976,1.5266897678375244,-2.36967396736145, -0.4128895401954651
192,1234960477,0.21329787,0.70201606,-0.036286753,0.67849904,9.488978385925293,2.5675864219665527,0.8584101796150208,1.0056891441345215,-2.7378950119018555, -0.46679142117500305
193,1234977144,0.21342173,0.70194715,-0.036209755,0.6785354,9.469087600708008,2.5582258701324463,0.8492211103439331,0.1855703890323639,-3.223498821258545, -0.4849380552768707
194,1234993811,0.21352232,0.7018821,-0.036140803,0.6785748,9.508602142333984,2.535338878631592,0.8097682595252991,0.13996699452400208,-3.292640447616577, -0.33113372325897217
195,1235010478,0.21354003,0.7018393,-0.0360294,0.6786194,9.513840675354004,2.495025396347046,0.8220053911209106,1.005407452583313,-3.2790277004241943, -0.14426355063915253
196,1235027145,0.21349864,0.70180714,-0.035843913,0.6786755,9.508319854736328,2.5409207344055176,0.8037056922912598,0.8905344009399414,-3.3958983421325684, -0.21467286348342896
197,1235043812,0.2136353,0.7017638,-0.035836376,0.67867774,9.482613563537598,2.5616893768310547,0.8124703168869019,-0.242962047457695,-3.6728355884552, -0.2602122128009796
198,1235060479,0.21370514,0.70171386,-0.035775512,0.67871064,9.501214027404785,2.521972894668579,0.8000531196594238,-0.3493316173553467,-3.624709367752075, -0.15951590240001678
199,1235077146,0.21377867,0.7016575,-0.035729263,0.67874825,9.478076934814453,2.541245222091675,0.7885228395462036,0.1684483140707016,-3.447930335998535, -0.0872112363576889
200,1235093813,0.2138291,0.7015831,-0.03566799,0.6788125,9.504691123962402,2.5351767539978027,0.7983890771865845,0.5090460181236267,-3.169264316558838, -0.013625956140458584
201,1235110480,0.21376714,0.70148414,-0.035503928,0.6789428,9.521370887756348,2.546907663345337,0.7556886672973633,0.5726423263549805,-2.8743722438812256, 0.11354749649763107
202,1235127147,0.21368442,0.7013495,-0.03531943,0.6791174,9.530495643615723,2.5183067321777344,0.7692009806632996,0.821943461894989,-2.4504692554473877, 0.18787555396556854
203,1235143814,0.21368134,0.70118254,-0.035207327,0.6792967,9.500362396240234,2.5284619331359863,0.8278881907463074,0.794320285320282,-2.1694085597991943, 0.1845715194940567
204,1235160481,0.2136599,0.7010092,-0.035078973,0.67948884,9.482556343078613,2.542595863342285,0.795712947845459,0.5671228170394897,-2.173109769821167, 0.21036352217197418
205,1235177148,0.21370724,0.7008134,-0.03498964,0.67968047,9.499695777893066,2.5128276348114014,0.824225664138794,0.41949114203453064,-2.0119287967681885, 0.08693590015172958
206,1235193815,0.21361032,0.700606,-0.034765605,0.6799361,9.499298095703125,2.493809938430786,0.8127986788749695,1.1895240545272827,-1.6458591222763062, 0.20469029247760773
207,1235210482,0.2134492,0.7004015,-0.034466665,0.68021274,9.51253890991211,2.5274300575256348,0.8210935592651367,2.1837196350097656,-1.3833163976669312, 0.17687492072582245
208,1235227149,0.21328545,0.7001928,-0.03415825,0.6804944,9.504929542541504,2.526017427444458,0.8280390501022339,2.4272196292877197,-1.279508113861084, 0.15388749539852142
209,1235243816,0.21312901,0.69997954,-0.033886496,0.68077636,9.497361183166504,2.544982433319092,0.8882782459259033,2.154879570007324,-1.3319499492645264, 0.29794612526893616
210,1235260483,0.21302103,0.69977796,-0.033663664,0.6810284,9.477943420410156,2.556576728820801,0.8437296152114868,1.8757140636444092,-1.5527698993682861, 0.2644447386264801
211,1235277150,0.21297005,0.69957256,-0.033498906,0.6812635,9.501778602600098,2.5274879932403564,0.8215628862380981,1.4343945980072021,-1.664402961730957, 0.2563767433166504
212,1235293817,0.21295103,0.6993862,-0.03335489,0.68146783,9.499809265136719,2.552406072616577,0.8226575255393982,1.748457431793213,-1.7857816219329834, 0.167244553565979
213,1235310484,0.21287805,0.6992064,-0.033145327,0.68168527,9.480206489562988,2.537607431411743,0.8485791683197021,1.629960298538208,-1.8645663261413574, 0.11349628120660782
214,1235327151,0.212861,0.6990312,-0.032984708,0.68187803,9.467308044433594,2.567155361175537,0.8820908069610596,1.416106939315796,-1.9917718172073364, 0.05527861416339874
215,1235343818,0.21280085,0.6988768,-0.032766905,0.68206555,9.450592994689941,2.5601367950439453,0.8582128882408142,0.8463652729988098,-2.339656114578247, -0.046896856278181076
216,1235360485,0.21288866,0.69871634,-0.032750234,0.6822034,9.503156661987305,2.568695545196533,0.8348536491394043,0.59425950050354,-2.4312217235565186, 0.18352138996124268
217,1235377152,0.2129698,0.6985444,-0.032749154,0.68235415,9.498601913452148,2.543858766555786,0.8432504534721375,0.6450494527816772,-2.3163869380950928, 0.31497859954833984
218,1235393819,0.2129467,0.6983689,-0.03263893,0.68254614,9.488053321838379,2.5525760650634766,0.8662919402122498,1.1660630702972412,-2.1048004627227783, 0.33138352632522583
219,1235410486,0.21286084,0.6981967,-0.03247757,0.68275684,9.501493453979492,2.556342601776123,0.8566086292266846,1.5038559436798096,-2.031599283218384, 0.4039826989173889
220,1235427153,0.21280913,0.6980419,-0.03237809,0.6829359,9.477781295776367,2.5536346435546875,0.8531745672225952,1.369940161705017,-2.270771026611328, 0.49855759739875793
221,1235443820,0.21281342,0.6978541,-0.032330997,0.6831287,9.502967834472656,2.5500173568725586,0.8601021766662598,0.7868542075157166,-2.124675989151001, 0.5156285166740417
222,1235460487,0.212771,0.6976719,-0.032261986,0.6833314,9.50899887084961,2.519721031188965,0.8473016619682312,1.1922905445098877,-2.068507194519043, 0.6452800035476685
223,1235477154,0.21264505,0.6974966,-0.03212564,0.6835559,9.485130310058594,2.546525001525879,0.8839149475097656,1.54584801197052,-2.021507740020752, 0.735206127166748
224,1235493821,0.21255045,0.69732416,-0.03201348,0.6837665,9.49146556854248,2.5644643306732178,0.8839537501335144,1.2630966901779175,-2.140312433242798, 0.6834043860435486
225,1235510488,0.21248889,0.69717294,-0.031958114,0.6839423,9.475306510925293,2.542463779449463,0.891618013381958,1.4275686740875244,-2.3325998783111572, 0.7618946433067322
226,1235527155,0.21242853,0.6970385,-0.03190113,0.68410087,9.475473403930664,2.5564682483673096,0.9048877954483032,1.0927979946136475,-2.5923380851745605, 0.7106564044952393
227,1235543822,0.2124202,0.6969149,-0.031911418,0.68422884,9.499602317810059,2.5391857624053955,0.9058516025543213,1.0805935859680176,-2.7373194694519043, 0.7578350305557251
228,1235560489,0.21239506,0.6967947,-0.031886376,0.6843602,9.497376441955566,2.5392777919769287,0.8784255981445312,0.8186395168304443,-2.830049753189087, 0.6573818922042847
229,1235577156,0.21237619,0.6966747,-0.03186701,0.6844891,9.489298820495605,2.547755718231201,0.921945333480835,0.8741679191589355,-2.822545289993286, 0.654871940612793
230,1235593823,0.21232729,0.696546,-0.03182791,0.68463707,9.490411758422852,2.547560453414917,0.9003308415412903,0.8238645195960999,-2.74940824508667, 0.7232193946838379
231,1235610490,0.21228836,0.6964129,-0.03181733,0.68478495,9.510519027709961,2.549253225326538,0.8955554366111755,0.705367386341095,-2.7515082359313965, 0.8168850541114807
232,1235627157,0.21230578,0.69628406,-0.031850327,0.684909,9.48536205291748,2.5348081588745117,0.8803600668907166,0.68400639295578,-2.818049907684326, 0.7394578456878662
233,1235643824,0.212281,0.6961459,-0.031850737,0.6850571,9.497952461242676,2.512507677078247,0.8623486161231995,0.671328067779541,-2.7194156646728516, 0.8078182339668274
234,1235660491,0.21224287,0.69599843,-0.031835444,0.6852195,9.499588966369629,2.5500152111053467,0.8728470206260681,0.7254477143287659,-2.6073856353759766, 0.8151689767837524
235,1235677158,0.21222088,0.69585204,-0.031840704,0.68537474,9.515079498291016,2.5349879264831543,0.8846079111099243,0.6956602334976196,-2.636251211166382, 0.8321758508682251
236,1235693825,0.21219051,0.69570106,-0.031824436,0.6855381,9.484996795654297,2.550018072128296,0.9050695896148682,0.7991739511489868,-2.55586576461792, 0.7806431651115417
237,1235710492,0.21219298,0.6955446,-0.031855572,0.68569463,9.497488975524902,2.5244274139404297,0.9054781198501587,0.34230732917785645,-2.644857168197632, 0.8422927856445312
238,1235727159,0.21218805,0.6953892,-0.031873472,0.68585294,9.510794639587402,2.5235276222229004,0.8698431253433228,0.5888423919677734,-2.5851409435272217, 0.8217514157295227
239,1235743826,0.21216105,0.6952389,-0.031872194,0.68601376,9.504644393920898,2.512615919113159,0.8918280601501465,0.8432020545005798,-2.562025308609009, 0.8375288844108582
240,1235760493,0.21210515,0.69508594,-0.031834174,0.6861876,9.477733612060547,2.5110106468200684,0.9055360555648804,1.0197888612747192,-2.4757745265960693, 0.8124668598175049
241,1235777160,0.21207581,0.6949558,-0.031814896,0.68632954,9.48011302947998,2.55930757522583,0.9614852070808411,0.6033135056495667,-2.8207011222839355, 0.715535581111908
242,1235793827,0.21302916,0.6931279,-0.03280543,0.6878347,10.481345176696777,3.0301499366760254,3.490957021713257,-10.714877128601074,10.529767036437988, 3.2744903564453125
243,1235810494,0.21633229,0.6881572,-0.03547614,0.6916514,8.974788665771484,2.3033297061920166,1.5567275285720825,-33.866554260253906,34.37747573852539, 4.2661824226379395
244,1235827161,0.21840838,0.6866667,-0.03809357,0.69234055,8.615387916564941,2.5644140243530273,-0.3028651773929596,-22.619285583496094,2.989987373352051, 4.381733417510986
245,1235843828,0.22023836,0.6863381,-0.04043206,0.691954,9.532173156738281,2.41064715385437,0.5105366706848145,-18.901134490966797,-7.266267776489258, 2.303321123123169
246,1235860495,0.22168261,0.686628,-0.042364202,0.69108915,9.550919532775879,2.3518803119659424,0.9179950952529907,-13.944644927978516,-11.827624320983887, 1.3384124040603638
247,1235877162,0.22276463,0.6872313,-0.04395982,0.6900411,9.474363327026367,2.6176185607910156,0.9637876152992249,-11.129064559936523,-14.006819725036621, 1.020545482635498
248,1235893829,0.22397535,0.6881119,-0.045924447,0.6886424,9.450368881225586,2.634155035018921,0.9129209518432617,-13.071538925170898,-17.474998474121094, 1.5361945629119873
249,1235910496,0.22515683,0.6893604,-0.048186205,0.68685156,9.563810348510742,2.7637226581573486,1.1106947660446167,-14.069331169128418,-21.576045989990234, 2.349592685699463
250,1235927163,0.22630708,0.69100726,-0.05041444,0.68465513,9.518917083740234,2.651366949081421,1.2941956520080566,-14.227487564086914,-25.582067489624023, 1.531394362449646
251,1235943830,0.22751255,0.69295913,-0.052375454,0.68213105,9.337388038635254,1.869211196899414,1.0727853775024414,-13.24598503112793,-28.247419357299805, -0.6270266175270081
252,1235960497,0.22818215,0.6952462,-0.05327163,0.6795056,9.629311561584473,1.8401658535003662,0.49409061670303345,-5.450923919677734,-28.898868560791016, -3.4995884895324707
253,1235977164,0.22906919,0.6974326,-0.05383705,0.67691696,9.649099349975586,2.208513021469116,0.47599634528160095,-5.694129467010498,-27.7924861907959, -6.0391082763671875
254,1235993831,0.230213,0.699389,-0.054274887,0.6744713,9.504655838012695,2.2899234294891357,0.4297667145729065,-8.37176513671875,-26.173744201660156, -7.57843542098999
255,1236010498,0.23173137,0.7010755,-0.054775238,0.67215586,9.452357292175293,2.1706886291503906,0.5753636956214905,-9.115609169006348,-23.806386947631836, -8.66939640045166
256,1236027165,0.23294206,0.7026926,-0.054679077,0.6700532,9.348214149475098,2.239851951599121,0.5997479557991028,-5.072656631469727,-21.669092178344727, -9.758125305175781
257,1236043832,0.23387872,0.7044376,-0.054055553,0.66794205,9.275229454040527,2.5477116107940674,0.6827643513679504,-2.504287004470825,-21.92724609375, -11.107111930847168
258,1236060499,0.23558816,0.70614797,-0.05387513,0.66554564,9.177945137023926,2.6124050617218018,0.9945766925811768,-6.198584079742432,-22.986679077148438, -12.928442001342773
259,1236077166,0.23810984,0.7077732,-0.054075293,0.6629002,9.03649616241455,2.737680435180664,0.9910174012184143,-12.129959106445312,-24.150909423828125, -15.162257194519043
260,1236093833,0.24144375,0.7092799,-0.05480253,0.6600181,9.09228515625,2.7526423931121826,1.000150442123413,-18.490272521972656,-25.27373695373535, -16.636762619018555
261,1236110500,0.24519001,0.71070856,-0.05563843,0.6570234,9.178351402282715,2.482832431793213,0.6245510578155518,-21.044754028320312,-25.488859176635742, -18.134815216064453
262,1236127167,0.24851333,0.7122289,-0.055815544,0.6541069,9.225906372070312,2.47110915184021,0.3205851912498474,-15.674707412719727,-24.54369354248047, -19.359813690185547
263,1236143834,0.25189206,0.7137,-0.055775467,0.65120804,9.322294235229492,2.671044111251831,0.23355112969875336,-13.996846199035645,-23.535144805908203, -20.6585693359375
264,1236160501,0.2555072,0.7150304,-0.055718537,0.64833885,9.473368644714355,2.713998794555664,0.07843369245529175,-15.305137634277344,-22.631004333496094, -21.707599639892578
265,1236177168,0.25892234,0.7162151,-0.05536658,0.64570105,9.789864540100098,2.6745290756225586,-0.23192331194877625,-13.166245460510254,-20.389759063720703, -21.8189640045166
266,1236193835,0.26158565,0.71737766,-0.054334577,0.6434205,9.847704887390137,2.759038209915161,-0.2560228407382965,-6.344898223876953,-17.584806442260742, -21.205570220947266
267,1236210502,0.26327342,0.7185303,-0.052636985,0.64158463,9.70221996307373,3.0383760929107666,-0.18051458895206451,1.5619999170303345,-14.492975234985352, -19.38443374633789
268,1236227169,0.26435378,0.7195704,-0.050710388,0.6401281,9.716848373413086,3.0672998428344727,-0.1273561716079712,5.509538173675537,-11.911563873291016, -17.1109619140625
269,1236243836,0.26461732,0.7206934,-0.04820056,0.63894886,9.671929359436035,2.672013282775879,-0.12657077610492706,12.368183135986328,-10.114767074584961, -15.926081657409668
270,1236260503,0.26404706,0.7220058,-0.044940874,0.63793993,9.449348449707031,3.092298984527588,0.2348814308643341,20.1970157623291,-9.00377082824707, -15.744243621826172
271,1236277170,0.26365244,0.72329855,-0.041899286,0.63684475,9.325264930725098,3.431389093399048,0.470903605222702,18.313987731933594,-9.6898193359375, -15.576375007629395
272,1236293837,0.26300636,0.7246024,-0.038694598,0.6358316,9.561617851257324,2.9314231872558594,0.07980962097644806,20.333965301513672,-9.120089530944824, -15.122529029846191
273,1236310504,0.26116812,0.72613114,-0.034501925,0.63508636,9.566549301147461,3.225220203399658,-0.0752720832824707,31.07573127746582,-7.298305511474609, -14.410113334655762
274,1236327171,0.25883147,0.7277668,-0.030348692,0.6343822,9.271222114562988,3.639183282852173,-0.11432017385959625,33.59709548950195,-7.744611740112305, -11.978205680847168
275,1236343838,0.25648955,0.729574,-0.027222905,0.6333987,9.057639122009277,3.9150073528289795,0.07358822971582413,29.39190673828125,-11.715216636657715, -7.320368766784668
276,1236360505,0.25464135,0.731317,-0.025032079,0.6322235,8.906562805175781,4.038249969482422,0.23397845029830933,22.699024200439453,-13.956294059753418, -5.071596622467041
277,1236377172,0.2533579,0.7330204,-0.023850266,0.6308107,8.889039993286133,4.188399791717529,0.3365165591239929,15.370111465454102,-16.658260345458984, -2.8255081176757812
278,1236393839,0.2525925,0.7345991,-0.023348665,0.6292981,8.91950511932373,3.7496178150177,-0.07554393261671066,9.583586692810059,-17.73590850830078, -1.7600557804107666
279,1236410506,0.25208968,0.7362637,-0.023124296,0.6275605,8.83526611328125,3.836872100830078,0.28695592284202576,7.173250198364258,-19.685422897338867, -1.8819983005523682
280,1236427173,0.2517191,0.7382278,-0.022826737,0.6254089,8.871153831481934,3.5780508518218994,-0.19687113165855408,7.281609058380127,-22.942583084106445, -3.566934108734131
281,1236443840,0.25163108,0.7404944,-0.022688134,0.6227643,9.069469451904297,3.149601459503174,0.08388450741767883,5.612724781036377,-26.97705841064453, -4.8661956787109375
282,1236460507,0.25111848,0.7432338,-0.022005407,0.6197248,9.032207489013672,3.1761398315429688,-0.06919817626476288,10.8675537109375,-30.150869369506836, -6.583218574523926
283,1236477174,0.2505194,0.74632794,-0.021049108,0.6162725,9.070088386535645,3.3261969089508057,-0.11062255501747131,13.031362533569336,-33.321510314941406, -8.385049819946289
284,1236493841,0.2497588,0.74969053,-0.019887075,0.61252695,9.191251754760742,3.17427396774292,-0.27051058411598206,15.16011905670166,-35.64370346069336, -9.301355361938477
285,1236510508,0.24834953,0.7534926,-0.01809555,0.60847694,9.190848350524902,3.2768137454986572,-0.39145711064338684,21.873945236206055,-38.07986068725586, -10.4048490524292
286,1236527175,0.24680658,0.75767833,-0.016173916,0.6039442,9.027000427246094,3.8570659160614014,-0.38991308212280273,23.713741302490234,-41.98841094970703, -11.394752502441406
287,1236543842,0.24590857,0.7620073,-0.0148783075,0.59887624,9.054699897766113,3.7326080799102783,-0.915692925453186,17.95021629333496,-46.37181091308594, -11.720170021057129
288,1236560509,0.24477077,0.76670593,-0.013448321,0.59335387,9.168512344360352,3.5230956077575684,-1.08980131149292,20.34505844116211,-50.06910705566406, -12.235088348388672
289,1236577176,0.2434116,0.7718894,-0.011811235,0.58719534,9.070067405700684,3.837555408477783,-0.867816686630249,23.119319915771484,-55.06891632080078, -13.54086971282959
290,1236593843,0.24235559,0.77777725,-0.010532411,0.579841,9.031044960021973,4.106809616088867,-0.9591747522354126,21.158634185791016,-64.8419189453125, -14.914657592773438
291,1236610510,0.24143247,0.78445804,-0.0098370975,0.57117355,9.426587104797363,3.6979281902313232,-1.4613698720932007,19.364303588867188,-75.9986572265625, -14.557700157165527
292,1236627177,0.23961525,0.7917267,-0.0087995855,0.5618505,10.21119213104248,3.1854186058044434,-1.764296054840088,26.471176147460938,-81.33875274658203, -14.028907775878906
293,1236643844,0.2367608,0.79918987,-0.0070100613,0.5524409,10.502779960632324,3.4263601303100586,-2.110391616821289,35.34075164794922,-81.39350128173828, -14.3038969039917
294,1236660511,0.23345004,0.8065452,-0.0047749984,0.5431053,10.450861930847168,3.9512228965759277,-2.006164789199829,39.37141799926758,-79.88330078125, -14.920568466186523
295,1236677178,0.22999558,0.813626,-0.0026935295,0.5339547,11.053502082824707,3.2175023555755615,-1.8955836296081543,39.171424865722656,-78.10411071777344, -13.236059188842773
296,1236693845,0.22600295,0.820598,-0.0006092055,0.5249201,11.743799209594727,2.972275495529175,-1.612069845199585,42.02938461303711,-77.10211181640625, -11.130741119384766
297,1236710512,0.22251347,0.8277224,0.00045368308,0.5151343,11.97359848022461,3.044300079345703,-1.467785358428955,35.7451057434082,-83.541015625, -8.408205032348633
298,1236727179,0.22019812,0.83501554,-0.00018223008,0.50424415,13.017333984375,2.9040184020996094,-0.94888836145401,23.317901611328125,-93.11026000976562, -4.650393486022949
299,1236743846,0.21731494,0.84259164,-0.0016271085,0.49275866,14.116486549377441,2.978741407394409,-0.41370058059692383,24.213125228881836,-98.85784149169922, 0.9782167077064514
300,1236760513,0.2129699,0.8505019,-0.0029650037,0.48091742,15.235627174377441,3.4405956268310547,1.1317903995513916,33.556610107421875,-102.07231140136719, 4.686310291290283
301,1236777180,0.20615058,0.8589311,-0.0030830605,0.46875346,16.455646514892578,3.191366672515869,2.8975772857666016,52.852783203125,-104.1778335571289, 5.173905372619629
302,1236793847,0.19618009,0.86786973,-0.0008671197,0.45641515,17.46393394470215,2.4174962043762207,5.750000476837158,79.76239013671875,-103.92731475830078, 1.2136863470077515
303,1236810514,0.1821929,0.87712955,0.0049113007,0.44432566,16.573760986328125,2.009739637374878,6.159027099609375,115.43089294433594,-99.09736633300781, -7.172308444976807
304,1236827181,0.16525297,0.8867085,0.011956449,0.43162096,14.29512882232666,2.1857190132141113,1.5725480318069458,137.61451721191406,-102.53271484375, -6.571903705596924
305,1236843848,0.14379008,0.89691633,0.02031686,0.4176756,14.919556617736816,7.583960056304932,1.226102590560913,169.95176696777344,-110.38616180419922, -2.4758384227752686
306,1236860515,0.13471346,0.9058555,0.020877067,0.40105158,13.556715965270996,6.632850170135498,-0.024026572704315186,70.40122985839844,-132.98756408691406, 7.3871331214904785
307,1236877182,0.12004235,0.9164829,0.023661822,0.380906,12.969603538513184,6.053221702575684,-7.21530818939209,113.55616760253906,-156.95973205566406, 6.046928405761719
308,1236893849,0.111532725,0.92589045,0.02605641,0.36001134,13.96092414855957,10.848618507385254,-0.11613139510154724,72.86827087402344,-159.87120056152344, -8.35602855682373
309,1236910516,0.12663487,0.9305466,0.020744655,0.34295228,12.864205360412598,3.912954568862915,7.40649938583374,-100.62464904785156,-134.08775329589844, -15.593788146972656
310,1236927183,0.13354897,0.9322039,0.018483652,0.33588535,6.858404159545898,-0.8940929174423218,8.323662757873535,-44.932743072509766,-59.649539947509766, -7.694039821624756
311,1236943850,0.13148399,0.93190455,0.019263381,0.33748323,5.5407328605651855,0.6709088683128357,5.594855308532715,16.77166748046875,4.067807197570801, 1.153629183769226
312,1236960517,0.13168879,0.92833465,0.019541299,0.34708947,6.493210315704346,2.646681308746338,6.696352005004883,-2.9145472049713135,62.03068542480469, 5.907271862030029
313,1236977184,0.13177374,0.92161506,0.019158347,0.36454704,5.36912202835083,-0.003279570024460554,4.766437530517578,-7.552839279174805,118.8541030883789, 17.142562866210938
314,1236993851,0.12782204,0.9122133,0.020561507,0.38872334,5.881666660308838,1.8746522665023804,3.7767245769500732,19.18512535095215,170.1473846435547, 21.71963882446289
315,1237010518,0.12695561,0.8992562,0.021377213,0.4180475,6.37998628616333,2.947382688522339,2.7800748348236084,-5.5720415115356445,210.8485107421875, 21.287094116210938
316,1237027185,0.13049458,0.88245475,0.020534733,0.45146793,7.281883239746094,2.8722684383392334,1.7669291496276855,-41.52122116088867,245.01708984375, 21.986543655395508
317,1237043852,0.1363855,0.861805,0.018283814,0.4882181,9.181394577026367,2.408071994781494,0.07345259189605713,-64.09810638427734,275.47515869140625, 25.733434677124023
318,1237060519,0.14266668,0.83781856,0.015618121,0.526747,10.331977844238281,2.451364755630493,-1.2915327548980713,-71.19647216796875,296.70428466796875, 28.1448974609375
319,1237077186,0.14819679,0.8107585,0.013427127,0.5661523,11.745938301086426,2.633138656616211,-2.3662173748016357,-68.31517028808594,313.39727783203125, 28.667949676513672
320,1237093853,0.15468694,0.78057545,0.010841563,0.60552174,12.74727725982666,4.254271984100342,-2.4208450317382812,-78.45171356201172,324.8722229003906, 26.802677154541016
321,1237110520,0.16691813,0.74654496,0.0037231056,0.6440458,14.185723304748535,5.1381754875183105,-2.1349329948425293,-132.25376892089844,331.1497802734375, 26.025541305541992
322,1237127187,0.18334672,0.7083168,-0.008325476,0.6816172,16.47301483154297,5.017817497253418,-2.302945137023926,-180.52281188964844,339.1595764160156, 31.45822525024414
323,1237143854,0.20057535,0.6662433,-0.02314735,0.7178814,17.94220733642578,5.215017795562744,-3.2350239753723145,-202.43624877929688,347.4879150390625, 39.62826919555664
324,1237160521,0.21675059,0.6218283,-0.037307616,0.7516361,17.672943115234375,6.351053714752197,-5.118530750274658,-198.0603485107422,348.52325439453125, 38.5385856628418
325,1237177188,0.23232077,0.578937,-0.05507759,0.7796316,17.598773956298828,2.584306478500366,-10.531438827514648,-213.46133422851562,310.8530578613281, 48.00278854370117
326,1237193855,0.23693708,0.5433958,-0.06277569,0.8028955,16.260181427001953,3.3964598178863525,-12.172365188598633,-105.98045349121094,265.1191101074219, 56.148189544677734
327,1237210522,0.23784983,0.5166971,-0.062600076,0.82008106,12.554841041564941,3.4796574115753174,-17.136978149414062,-37.0150146484375,205.47787475585938, 33.46966552734375
328,1237227189,0.23106052,0.504392,-0.050646387,0.83044255,7.44482946395874,3.3134641647338867,-23.18841552734375,77.2164306640625,116.77500915527344, 17.818681716918945
329,1237243856,0.22047153,0.50773686,-0.032690667,0.8321821,6.63016939163208,8.889677047729492,-24.21673583984375,146.35719299316406,6.53683614730835, -0.28783169388771057
330,1237260523,0.2165668,0.52154976,-0.02522223,0.8248932,9.143089294433594,10.453441619873047,-21.849912643432617,76.60787200927734,-98.50254821777344, -17.732975006103516
331,1237277190,0.2156375,0.54184663,-0.02209611,0.81204337,12.597883224487305,9.486090660095215,-6.20911979675293,49.77305603027344,-160.4912872314453, -28.248010635375977
332,1237293857,0.2295159,0.55171996,-0.03295625,0.80115014,16.608322143554688,6.441235542297363,25.35863494873047,-98.7657699584961,-113.17095184326172, -54.2081413269043
333,1237310524,0.23779811,0.5634697,-0.039371,0.7901924,12.284955024719238,-1.240357518196106,-4.962463855743408,-50.02302551269531,-118.34163665771484, -40.75551223754883
334,1237327191,0.242881,0.5797425,-0.044903085,0.77646095,18.455476760864258,-0.2508421540260315,-4.128643035888672,-26.18779182434082,-152.8271026611328, -32.658329010009766
335,1237343858,0.23911102,0.59999096,-0.032008752,0.7627662,10.216082572937012,7.307422637939453,-2.4741716384887695,114.12574005126953,-145.61973571777344, -60.10928726196289
336,1237360525,0.25017276,0.6156812,-0.034256525,0.74644274,9.110523223876953,10.315549850463867,-1.53867506980896,-34.60710906982422,-154.05564880371094, -78.66352844238281
337,1237377192,0.26451397,0.62723625,-0.043334518,0.73125184,11.1201810836792,3.5264017581939697,-3.349623441696167,-90.43955993652344,-138.9398193359375, -63.531803131103516
338,1237393859,0.27370173,0.63717604,-0.049364116,0.71878874,11.544594764709473,1.8266792297363281,-2.58691143989563,-55.02246856689453,-114.9421157836914, -45.335567474365234
339,1237410526,0.27295706,0.64764357,-0.04600239,0.7098846,11.272947311401367,-0.09747564047574997,-2.0067169666290283,37.102386474609375,-87.5810317993164, -30.917743682861328
340,1237427193,0.267801,0.65775776,-0.037032723,0.7030408,10.576769828796387,5.388616561889648,-0.03525182604789734,84.10944366455078,-67.50289916992188, -30.455062866210938
341,1237443860,0.2693323,0.66475236,-0.036272172,0.69587994,9.685733795166016,4.996104717254639,0.14898601174354553,8.355792045593262,-67.26111602783203, -25.427631378173828
342,1237460527,0.27334133,0.6702505,-0.03928327,0.6888436,9.536495208740234,3.002511739730835,-0.1211969330906868,-23.7529296875,-65.90426635742188, -19.426902770996094
343,1237477194,0.27840647,0.67457825,-0.043259565,0.68232155,10.219252586364746,3.15173077583313,0.5585609674453735,-35.24677276611328,-59.52509307861328, -18.712974548339844
344,1237493861,0.2806608,0.6789642,-0.044857237,0.6769233,9.584755897521973,2.7311208248138428,0.702272891998291,-10.597503662109375,-50.88253402709961, -14.439986228942871
345,1237510528,0.27884302,0.6842315,-0.042659264,0.6724987,8.978086471557617,2.5728955268859863,0.849833607673645,28.0858154296875,-44.387115478515625, -11.618088722229004
346,1237527195,0.27450004,0.690246,-0.038074076,0.66840166,9.219985008239746,3.2602577209472656,1.0750648975372314,52.54067611694336,-42.48155212402344, -10.781560897827148
347,1237543862,0.2705538,0.69639957,-0.0340836,0.66382736,9.035544395446777,3.4488344192504883,1.00844144821167,48.07025909423828,-46.423587799072266, -10.729525566101074
348,1237560529,0.26827195,0.70263624,-0.031366725,0.6582923,8.997554779052734,2.959778070449829,0.8047210574150085,34.225345611572266,-53.40055847167969, -14.0404634475708
349,1237577196,0.2661334,0.7096425,-0.028151028,0.6517577,9.076974868774414,2.729844331741333,1.006206750869751,37.001407623291016,-60.777374267578125, -19.118824005126953
350,1237593863,0.2648212,0.7173686,-0.025209188,0.6439075,9.164719581604004,3.4663033485412598,1.1012672185897827,32.81235122680664,-70.78201293945312, -24.04424476623535
351,1237610530,0.2641877,0.7258107,-0.022370137,0.6347468,8.67154312133789,3.6180975437164307,1.012949824333191,30.094404220581055,-80.50444030761719, -29.056564331054688
352,1237627197,0.26327848,0.73525625,-0.019002208,0.624277,8.165156364440918,4.486196994781494,1.0400573015213013,35.40779113769531,-90.517578125, -33.026893615722656
353,1237643864,0.26321888,0.7451981,-0.016492369,0.61247355,8.659640312194824,4.252502918243408,0.37388843297958374,28.162992477416992,-100.84976959228516, -34.80751037597656
354,1237660531,0.2629593,0.75571686,-0.014127387,0.59962064,9.775150299072266,3.408820390701294,-0.08410945534706116,29.509374618530273,-108.95582580566406, -35.18646240234375
355,1237677198,0.26043707,0.76683867,-0.009875497,0.58654374,11.345983505249023,2.893854856491089,-1.3460056781768799,50.11973571777344,-109.42530059814453, -36.13716125488281
356,1237693865,0.25531232,0.77839994,-0.004026729,0.57349193,11.517375946044922,1.9611189365386963,-1.5446739196777344,71.07097625732422,-108.38743591308594, -34.06595993041992
357,1237710532,0.25039682,0.7896661,0.0016499365,0.5601126,12.206591606140137,2.6359379291534424,-1.4454197883605957,68.74347686767578,-109.2811508178711, -34.562339782714844
358,1237727199,0.24605013,0.8008727,0.0060159974,0.5459175,13.049652099609375,3.018061399459839,-0.8671462535858154,60.51403045654297,-115.75511169433594, -31.06244468688965
359,1237743866,0.24234663,0.81231415,0.008794714,0.5304116,13.113346099853516,2.802762031555176,-0.5031886100769043,51.46825408935547,-126.5872573852539, -26.962722778320312
360,1237760533,0.23866808,0.82379353,0.010181363,0.51409924,13.773964881896973,2.4021549224853516,-0.5589761137962341,46.36704635620117,-133.57623291015625, -20.63941764831543
361,1237777200,0.23247957,0.83510333,0.012412228,0.49839893,14.124077796936035,2.1916825771331787,-0.144253671169281,63.24939727783203,-127.9760513305664, -15.576994895935059
362,1237793867,0.22254093,0.84612334,0.015525345,0.48405582,15.41792106628418,1.351702332496643,0.09811416268348694,87.22891998291016,-117.4930419921875, -5.6659440994262695
363,1237810534,0.20913142,0.8569037,0.017485036,0.47082353,18.39409828186035,-0.1625070571899414,3.2132668495178223,103.09825134277344,-111.66683197021484, 14.247115135192871
364,1237827201,0.19547503,0.8672939,0.016522001,0.457513,19.4676513671875,-2.404240131378174,7.211321830749512,94.54084014892578,-115.1043472290039, 32.073883056640625
365,1237843868,0.17833155,0.87737817,0.016037975,0.44513872,17.443981170654297,-2.3001461029052734,6.8265228271484375,116.32652282714844,-107.6106185913086, 41.372737884521484
366,1237860535,0.1517135,0.88906366,0.020621449,0.43142065,14.009954452514648,8.98828125,0.38087964057922363,191.1199188232422,-113.44952392578125, 38.314918518066406
367,1237877202,0.14254482,0.8986005,0.019822245,0.41449386,15.315314292907715,15.439042091369629,3.357236862182617,66.70098114013672,-134.79641723632812, 15.84815788269043
368,1237893869,0.15389122,0.90507275,0.0090571195,0.39633158,16.095279693603516,7.667685031890869,2.3627514839172363,-91.24100494384766,-146.30438232421875, 17.377538681030273
369,1237910536,0.16152059,0.9118703,-0.00031337875,0.37736434,13.654152870178223,3.9312024116516113,-2.8188910484313965,-63.89303970336914,-150.52772521972656, 17.9950008392334
370,1237927203,0.15763585,0.9185091,-0.0025546744,0.36260903,14.210700988769531,7.154346466064453,-1.5982520580291748,26.627771377563477,-115.81449127197266, 7.842199802398682
371,1237943870,0.16503675,0.9202386,-0.00794816,0.35476872,13.341121673583984,6.0556864738464355,14.650954246520996,-57.687828063964844,-63.1348762512207, 7.19935941696167
372,1237960537,0.1634542,0.91862565,-0.010324717,0.3595873,4.937224388122559,-3.5499556064605713,7.314538955688477,3.447262763977051,27.97011375427246, 24.571582794189453
373,1237977204,0.14023343,0.9166209,-0.0046467283,0.37432504,5.067743301391602,1.6989339590072632,2.8973093032836914,160.29563903808594,99.10540771484375, 38.37812805175781
374,1237993871,0.12394677,0.91030294,0.0012705172,0.39494842,6.336965084075928,4.67869234085083,4.4594597816467285,113.23397064208984,147.76107788085938, 24.86803436279297
375,1238010538,0.11545081,0.8998256,0.0062543126,0.42064947,4.733648300170898,3.6452372074127197,3.470824718475342,58.358009338378906,189.9752197265625, 13.880826950073242
376,1238027205,0.112599455,0.88550013,0.009705462,0.4506848,4.4921112060546875,3.59641432762146,2.606438159942627,15.76180362701416,226.4800262451172, 10.340929985046387
377,1238043872,0.11492377,0.8672922,0.010675974,0.48423418,5.890815258026123,2.9493696689605713,1.374192237854004,-26.680904388427734,257.67034912109375, 11.88669490814209
378,1238060539,0.11854857,0.8452985,0.010119671,0.5208785,7.8374924659729,1.8949097394943237,-0.31111374497413635,-42.74613952636719,287.464111328125, 18.842063903808594
379,1238077206,0.12222185,0.8196827,0.008467861,0.55956274,9.671670913696289,1.9903193712234497,-1.2332828044891357,-50.06331253051758,311.43121337890625, 26.453670501708984
380,1238093873,0.12627997,0.7905269,0.005697458,0.59923965,11.020885467529297,2.2872836589813232,-2.0623555183410645,-59.58658981323242,329.7218933105469, 31.90984535217285
381,1238110540,0.13046925,0.75803316,0.0027545716,0.63902754,12.359647750854492,3.7709619998931885,-2.56345272064209,-63.931705474853516,343.9606628417969, 32.273475646972656
382,1238127207,0.13787861,0.721801,-0.0025426373,0.67822295,14.693129539489746,5.20485258102417,-2.707777738571167,-94.42842102050781,355.1717834472656, 29.7971134185791
383,1238143874,0.14890249,0.6817847,-0.009978837,0.7161691,16.916921615600586,6.271440029144287,-3.112422466278076,-125.98469543457031,364.70477294921875, 22.441003799438477
384,1238160541,0.16214542,0.6392307,-0.018410305,0.7515012,17.022066116333008,6.635162353515625,-4.404214859008789,-144.09268188476562,364.122314453125, 13.677650451660156
385,1238177208,0.17771186,0.5959024,-0.02759765,0.7826603,17.76711654663086,7.7960286140441895,-5.52327823638916,-159.623779296875,349.2719421386719, 0.4378525912761688
386,1238193875,0.1973895,0.5535102,-0.041356176,0.80805546,18.564556121826172,4.546918869018555,-7.8849592208862305,-201.0526123046875,315.853759765625, -10.174156188964844
387,1238210542,0.20448214,0.5189888,-0.04514169,0.82873404,16.006933212280273,-1.043540358543396,-13.062884330749512,-88.36007690429688,264.1299133300781, 13.155092239379883
388,1238227209,0.20391397,0.49595985,-0.035995644,0.8432956,9.262012481689453,7.210757732391357,-18.441326141357422,26.934890747070312,192.68093872070312, -1.526540994644165
389,1238243876,0.20235118,0.48697782,-0.029239656,0.84914756,6.6823883056640625,2.3604774475097656,-25.207616806030273,33.97098922729492,78.0273666381836, -3.275743246078491
390,1238260543,0.19002,0.49541157,-0.005816066,0.84760004,8.751056671142578,4.763916492462158,-25.613088607788086,190.074951171875,-27.279159545898438, -10.012733459472656
391,1238277210,0.18359101,0.5159313,0.008528892,0.8366818,11.399312019348145,8.563546180725098,-21.351205825805664,132.44139099121094,-141.14378356933594, -26.2139835357666
392,1238293877,0.19450247,0.531338,-0.0046057324,0.82451653,22.718786239624023,9.846092224121094,28.601469039916992,-93.58989715576172,-151.75241088867188, -30.337203979492188
393,1238310544,0.21742152,0.5435826,-0.032551724,0.8100532,14.149259567260742,-6.23884391784668,-7.626607418060303,-225.75450134277344,-161.77561950683594, -47.2479133605957
394,1238327211,0.22531667,0.5656675,-0.043022346,0.79208726,21.537513732910156,-2.346524953842163,-6.2603654861450195,-58.29044723510742,-206.85580444335938, -36.344383239746094
395,1238343878,0.22694378,0.59113747,-0.03653883,0.7731223,11.411083221435547,4.707328796386719,-1.6214394569396973,63.385189056396484,-204.7183380126953, -70.72933959960938
396,1238360545,0.23611283,0.6131963,-0.034667,0.7530201,4.558685779571533,14.966200828552246,0.41397637128829956,2.5908806324005127,-196.50221252441406, -92.98579406738281
397,1238377212,0.25406435,0.6271964,-0.04850148,0.73465884,8.037077903747559,6.62320613861084,-3.4843552112579346,-128.45254516601562,-170.86036682128906, -67.41732025146484
398,1238393879,0.25915313,0.6406199,-0.051946517,0.72093517,10.55511474609375,0.35234665870666504,-3.103893518447876,-19.95107650756836,-134.06948852539062, -38.92069625854492
399,1238410546,0.25461593,0.6551912,-0.044259604,0.70988476,11.768387794494629,1.1473376750946045,-2.205925464630127,80.63309478759766,-111.5809326171875, -35.90288543701172
400,1238427213,0.2552133,0.66719985,-0.04420165,0.6983959,13.394688606262207,4.915339946746826,-1.9360809326171875,15.646660804748535,-112.83622741699219, -26.601144790649414
401,1238443880,0.26266903,0.6756382,-0.051665716,0.6869124,10.636514663696289,2.2997546195983887,-2.9089932441711426,-58.19771194458008,-106.78616333007812, -23.92915153503418
402,1238460547,0.27102387,0.6815899,-0.059339996,0.6770968,10.24960708618164,2.535946846008301,-2.0359551906585693,-67.26416778564453,-87.35661315917969, -23.304729461669922
403,1238477214,0.2788417,0.68668276,-0.066501915,0.66805065,11.387093544006348,2.4451136589050293,-0.6480680704116821,-63.646114349365234,-79.02071380615234, -21.420406341552734
404,1238493881,0.28074288,0.69259185,-0.068343304,0.6609307,9.861329078674316,2.152712821960449,-0.25187844038009644,-8.822670936584473,-66.19189453125, -16.049259185791016
405,1238510548,0.2775748,0.69939905,-0.06545723,0.65536904,9.05255126953125,3.7859368324279785,0.35931938886642456,39.26953125,-56.12217330932617, -12.948759078979492
406,1238527215,0.27401984,0.7060814,-0.06296505,0.64992136,8.79203987121582,5.150318622589111,0.8214606642723083,39.17364501953125,-55.950984954833984, -9.04104995727539
407,1238543882,0.27201805,0.7125704,-0.06259659,0.6436858,8.661505699157715,4.348690032958984,0.7401480674743652,21.44564437866211,-62.25637435913086, -7.067407608032227
408,1238560549,0.2701165,0.7195208,-0.06240494,0.6367359,8.88742733001709,1.7248036861419678,0.46797335147857666,20.73448944091797,-68.10179138183594, -8.178051948547363
409,1238577216,0.27046314,0.7266116,-0.06364199,0.6283592,8.968717575073242,4.032535076141357,0.46291840076446533,3.012407064437866,-77.47929382324219, -13.672345161437988
410,1238593883,0.2710268,0.73441374,-0.06483607,0.6188516,9.388891220092773,1.1677289009094238,0.35659825801849365,2.948415517807007,-86.04220581054688, -17.236892700195312
411,1238610550,0.27032766,0.743122,-0.064101465,0.6087559,9.641088485717773,2.376049041748047,0.7030107975006104,18.962135314941406,-89.85186767578125, -23.115232467651367
412,1238627217,0.2694435,0.7522077,-0.06267109,0.59804374,9.549149513244629,3.023289918899536,-0.0883101150393486,23.255325317382812,-93.38631439208984, -27.215721130371094
413,1238643884,0.2680934,0.76139903,-0.06034807,0.587159,9.758594512939453,2.7990405559539795,-1.3464021682739258,29.46213150024414,-93.27490997314453, -30.28668785095215
414,1238660551,0.2656156,0.7705239,-0.05674949,0.5766462,10.156890869140625,1.8182663917541504,-2.466137409210205,40.54958724975586,-89.18328094482422, -31.704416275024414
415,1238677218,0.2613091,0.77992547,-0.051563237,0.56637025,11.21442985534668,1.1071147918701172,-2.061645030975342,57.129520416259766,-86.8446044921875, -32.55335998535156
416,1238693885,0.25617287,0.789984,-0.045247093,0.5552061,12.08179759979248,2.1176583766937256,-0.8045780658721924,66.84345245361328,-92.4411849975586, -37.22793197631836
417,1238710552,0.2508401,0.8008946,-0.03869712,0.5423558,12.471121788024902,2.9020464420318604,-0.21216106414794922,69.78314971923828,-104.52032470703125, -40.997379302978516
418,1238727219,0.24569364,0.81280994,-0.03369234,0.5271049,12.4733304977417,3.1553516387939453,0.06680607795715332,64.09527587890625,-124.12459564208984, -37.602622985839844
419,1238743886,0.24188104,0.8253186,-0.031687383,0.509253,13.677128791809082,2.986710786819458,0.2069500982761383,46.175235748291016,-145.5970916748047, -30.212501525878906
420,1238760553,0.23647979,0.8379937,-0.030174794,0.49084973,15.593586921691895,0.7520536184310913,-0.5532857179641724,53.6304931640625,-150.50442504882812, -22.82088279724121
421,1238777220,0.22459571,0.85134697,-0.025773382,0.47339317,17.0291748046875,0.35999763011932373,0.44799864292144775,102.03632354736328,-144.01976013183594, -16.21141815185547
422,1238793887,0.20886,0.86467326,-0.02048959,0.4563969,20.24064826965332,2.513146162033081,4.834589004516602,127.498046875,-140.60183715820312, -8.148641586303711
423,1238810554,0.1946031,0.87701696,-0.017287131,0.43894476,22.04895782470703,3.4438681602478027,11.013712882995605,110.71109008789062,-143.07669067382812, -0.9497515559196472
424,1238827221,0.17867555,0.88838375,-0.013796591,0.42268103,18.9755916595459,0.4360239505767822,8.491548538208008,120.51522064208984,-132.87387084960938, 4.0472331047058105
425,1238843888,0.15055476,0.9007339,-0.007854126,0.40737018,16.04741096496582,3.6449553966522217,0.4582240581512451,203.4530487060547,-128.1486053466797, 25.575489044189453
426,1238860555,0.12573276,0.91060996,-0.0040727975,0.3936549,13.820103645324707,12.205535888671875,4.837111473083496,174.4881134033203,-113.43103790283203, 31.515230178833008
427,1238877222,0.10784839,0.92091155,-0.0048060548,0.37452292,12.049501419067383,7.590945720672607,-9.116131782531738,119.07780456542969,-152.2565460205078, 36.350120544433594
428,1238893889,0.095364906,0.9299578,-0.0066335616,0.3550212,13.868475914001465,10.532842636108398,-6.974251747131348,81.12291717529297,-151.98675537109375, 29.157852172851562
429,1238910556,0.10959457,0.9344425,-0.016769495,0.3384157,14.058140754699707,7.637474060058594,9.525612831115723,-112.80931091308594,-126.57064819335938, 19.19862937927246
430,1238927223,0.12676656,0.9336237,-0.024443602,0.33418494,5.894382476806641,1.6975191831588745,10.799980163574219,-128.51779174804688,-32.590003967285156, 6.461569786071777
431,1238943890,0.12718844,0.9311667,-0.026228549,0.34068128,2.271641492843628,-0.6410448551177979,2.849552869796753,-7.074819087982178,42.314117431640625, 16.760417938232422
432,1238960557,0.1229872,0.926566,-0.024120774,0.3546375,5.848674774169922,4.779440402984619,3.882493734359741,31.106754302978516,97.67161560058594, 9.578143119812012
433,1238977224,0.13093278,0.9179252,-0.025416225,0.3736631,5.118527889251709,4.354363441467285,2.7873761653900146,-57.138671875,138.9464569091797, 6.610760688781738
434,1238993891,0.1411224,0.90609926,-0.027877416,0.39785886,5.7578582763671875,1.900974988937378,1.7370511293411255,-76.25415802001953,179.10789489746094, 13.421619415283203
435,1239010558,0.15031148,0.8916029,-0.030230848,0.4260718,6.814096927642822,1.607181191444397,1.1024219989776611,-71.55088806152344,211.35890197753906, 19.89816665649414
436,1239027225,0.159689,0.87404245,-0.03345984,0.45763534,8.039626121520996,1.365921139717102,0.0959244966506958,-77.7469253540039,240.0203094482422, 28.812360763549805
437,1239043892,0.16933236,0.85325813,-0.03762008,0.49179453,9.463045120239258,1.956390380859375,-0.7552858591079712,-85.23147583007812,264.81549072265625, 37.164310455322266
438,1239060559,0.17926623,0.8293917,-0.042626247,0.5274051,10.173015594482422,2.0989909172058105,-1.5190879106521606,-93.02190399169922,282.856689453125, 43.63146209716797
439,1239077226,0.1890232,0.80234295,-0.04789138,0.5641123,10.869383811950684,2.25195574760437,-1.858745813369751,-96.5621109008789,300.3005676269531, 48.03163528442383
440,1239093893,0.19959259,0.77166873,-0.053979665,0.6014784,12.27889347076416,2.2519044876098633,-2.201631546020508,-108.75021362304688,317.22320556640625, 51.47041320800781
441,1239110560,0.20978677,0.7371374,-0.059892137,0.6395554,13.660552024841309,2.557082414627075,-1.7317314147949219,-111.07552337646484,337.0861511230469, 54.49361038208008
442,1239127227,0.21942225,0.69877595,-0.06524196,0.6777239,15.728781700134277,2.726081609725952,-2.172153949737549,-111.26956939697266,355.0122985839844, 55.8054084777832
443,1239143894,0.22705065,0.6572222,-0.06845538,0.7154165,18.65467643737793,3.070913076400757,-3.0732903480529785,-96.7043228149414,369.9672546386719, 55.6050910949707
444,1239160561,0.23234026,0.6132301,-0.06684354,0.75199646,19.17551612854004,5.003756523132324,-4.602286338806152,-66.72404479980469,383.415771484375, 44.7098388671875
445,1239177228,0.24056403,0.5690125,-0.06746095,0.7834556,18.58036231994629,4.004698276519775,-8.979745864868164,-93.36315155029297,360.8045959472656, 30.859811782836914
446,1239193895,0.2434364,0.53133947,-0.0674305,0.80862236,17.444398880004883,0.37616977095603943,-12.885735511779785,-61.02699661254883,299.53143310546875, 43.71076965332031
447,1239210562,0.24076068,0.503884,-0.05861104,0.827466,13.055389404296875,4.230591773986816,-16.751176834106445,22.285987854003906,231.8154754638672, 27.11040687561035
448,1239227229,0.23979315,0.48764974,-0.052882627,0.837795,7.647618770599365,4.105084419250488,-23.44243812561035,13.893805503845215,134.12960815429688, 9.48971176147461
449,1239243896,0.23456846,0.4879562,-0.04461118,0.8395752,6.344903469085693,4.193265438079834,-27.62917709350586,66.94819641113281,12.953587532043457, 5.389711380004883
450,1239260563,0.2307806,0.50186574,-0.04015298,0.8326217,10.270381927490234,6.823311805725098,-26.080381393432617,59.3409423828125,-100.444091796875, -8.359542846679688
451,1239277230,0.22914359,0.5219273,-0.039731886,0.8206745,15.071284294128418,12.984326362609863,1.3625777959823608,37.15224075317383,-158.57774353027344, -16.3446102142334
452,1239293897,0.2453038,0.52828896,-0.05565554,0.8109497,20.06822395324707,5.405826568603516,22.99209976196289,-139.9557647705078,-94.1717529296875, -50.81609344482422
453,1239310564,0.24333715,0.544422,-0.05072041,0.80113614,9.95954418182373,0.46901261806488037,-9.125308990478516,58.65953826904297,-120.81008911132812, -29.38636589050293
454,1239327231,0.2459033,0.5618078,-0.05468241,0.7879805,16.864946365356445,2.132286310195923,-1.32417893409729,-6.394758701324463,-153.47901916503906, -27.08794403076172
455,1239343898,0.23681013,0.5843298,-0.03663231,0.7753309,11.265519142150879,5.453521251678467,-2.6516644954681396,166.79440307617188,-146.50697326660156, -50.043025970458984
456,1239360565,0.23917408,0.6049634,-0.029814914,0.7588979,9.365331649780273,13.89031982421875,-0.3509296774864197,56.82643508911133,-167.0215606689453, -71.669677734375
457,1239377232,0.25936884,0.6174489,-0.047185976,0.74111974,10.337438583374023,4.926065444946289,-2.1329774856567383,-157.2766571044922,-166.2396697998047, -64.57705688476562
458,1239393899,0.2769674,0.6270382,-0.06396364,0.7252729,10.947125434875488,1.2436729669570923,-2.1107819080352783,-147.76258850097656,-143.05770874023438, -49.4483757019043
459,1239410566,0.28392512,0.6370789,-0.070403606,0.7131342,11.376911163330078,-2.1251142024993896,-2.56587290763855,-47.82892608642578,-114.30078125, -34.08381271362305
460,1239427233,0.276148,0.650222,-0.0601619,0.7052194,10.477677345275879,2.5425894260406494,-0.5553562045097351,106.6158218383789,-85.5710678100586, -28.19484519958496
461,1239443900,0.2713672,0.6610008,-0.053480633,0.69755125,8.99536418914795,7.008288383483887,1.0487715005874634,71.56771850585938,-78.52716827392578, -25.373451232910156
462,1239460567,0.2755256,0.667717,-0.05746655,0.6891572,8.593220710754395,5.259462356567383,0.8323127031326294,-28.06171417236328,-78.97079467773438, -19.60886573791504
463,1239477234,0.28234547,0.6727452,-0.0639191,0.68088865,9.237713813781738,3.3463048934936523,0.9430792927742004,-55.111873626708984,-74.03557586669922, -19.975793838500977
464,1239493901,0.28785422,0.6779427,-0.06919431,0.672864,9.081583976745605,3.23857045173645,0.6015533208847046,-43.092979431152344,-72.00694274902344, -18.879636764526367
465,1239510568,0.291223,0.6837165,-0.07359712,0.6650598,9.84801197052002,1.2659077644348145,-0.05336330085992813,-27.83056640625,-72.95298767089844, -12.882255554199219
466,1239527235,0.29042172,0.6910582,-0.07309874,0.6578375,10.084379196166992,1.147767424583435,-0.16778835654258728,17.622379302978516,-69.69315338134766, -16.494421005249023
467,1239543902,0.2892649,0.69873965,-0.07124454,0.65039444,9.250225067138672,3.6073873043060303,0.09905760735273361,26.014646530151367,-69.7613754272461, -21.95585060119629
468,1239560569,0.29094413,0.7058922,-0.07228659,0.64174956,9.166139602661133,3.7946815490722656,0.22171258926391602,-2.1971850395202637,-77.55158233642578, -22.85550880432129
469,1239577236,0.29100645,0.71373636,-0.07234314,0.6329788,9.55703353881836,3.177706718444824,0.6830671429634094,11.325247764587402,-80.05940246582031, -21.098649978637695
470,1239593903,0.29371256,0.7216054,-0.074341364,0.6224887,8.855673789978027,2.3889007568359375,0.24636441469192505,-10.898311614990234,-91.19210052490234, -26.531923294067383
471,1239610570,0.29335263,0.7306906,-0.073044874,0.6121275,9.305954933166504,2.6161980628967285,0.6595556735992432,20.941003799438477,-90.68476867675781, -30.12317657470703
472,1239627237,0.29240292,0.7405994,-0.07137124,0.6007657,9.474588394165039,2.739701509475708,0.610150933265686,26.656835556030273,-98.73023986816406, -31.974533081054688
473,1239643904,0.29094842,0.75082904,-0.06909116,0.5889239,10.121673583984375,2.7674992084503174,-0.0031306445598602295,32.14786148071289,-101.54695129394531, -34.10793685913086
474,1239660571,0.28895566,0.7610946,-0.06605789,0.57695425,10.946019172668457,3.0995430946350098,-0.37412190437316895,37.9926643371582,-101.11555480957031, -36.09865188598633
475,1239677238,0.28508934,0.7717931,-0.060643394,0.56513864,11.526389122009277,2.740001678466797,-1.2901678085327148,58.177757263183594,-98.16232299804688, -41.027626037597656
476,1239693905,0.27833834,0.78333974,-0.053539325,0.5532091,13.246988296508789,0.17972446978092194,-1.6161998510360718,81.66913604736328,-99.96526336669922, -39.375980377197266
477,1239710572,0.26723465,0.796247,-0.044284508,0.54093915,13.910050392150879,0.27249807119369507,-1.2559601068496704,115.77172088623047,-104.48006439208984, -35.588314056396484
478,1239727239,0.2565283,0.80970085,-0.03649048,0.5265418,13.511726379394531,2.6855275630950928,-0.2956668734550476,108.51908874511719,-120.74410247802734, -33.175357818603516
479,1239743906,0.24849989,0.8233594,-0.031964157,0.50922066,13.056337356567383,4.624229431152344,1.160017728805542,81.4103012084961,-142.88450622558594, -29.903169631958008
480,1239760573,0.24248694,0.8363983,-0.030774156,0.49060288,14.393380165100098,4.340672016143799,1.1766438484191895,56.98735046386719,-153.34837341308594, -20.15546226501465
481,1239777240,0.23457249,0.84925777,-0.029837525,0.47206682,17.381492614746094,2.8554959297180176,2.971031665802002,66.79978942871094,-153.1407012939453, -12.118720054626465
482,1239793907,0.22256751,0.8620897,-0.027970314,0.45440388,20.708324432373047,0.5712882280349731,6.7186126708984375,93.85636138916016,-147.354248046875, -2.8826608657836914
483,1239810574,0.20823772,0.8742919,-0.02609324,0.43768728,20.886064529418945,-1.5570039749145508,9.524128913879395,106.90167236328125,-140.3023681640625, 5.854622840881348
484,1239827241,0.19013837,0.88560736,-0.024901947,0.4229977,18.221633911132812,-3.3824195861816406,6.708293437957764,126.60550689697266,-127.21965026855469, 24.344799041748047
485,1239843908,0.1557036,0.898106,-0.018014967,0.41089875,14.098833084106445,6.556282997131348,1.4050688743591309,244.66787719726562,-110.34822082519531, 40.334327697753906
486,1239860575,0.13810158,0.9069814,-0.016820345,0.39752948,13.661105155944824,15.500120162963867,3.664370059967041,120.58071899414062,-112.0040283203125, 27.038103103637695
487,1239877242,0.13938548,0.9143915,-0.024916865,0.37926117,14.96630859375,8.967586517333984,-2.280348539352417,-24.492528915405273,-145.24757385253906, 28.925161361694336
488,1239893909,0.14392307,0.920352,-0.031807873,0.36225215,13.093701362609863,7.736408710479736,-6.92188024520874,-42.95109558105469,-131.87538146972656, 14.323634147644043
489,1239910576,0.1579686,0.92258286,-0.043376703,0.34929278,13.869361877441406,1.4254957437515259,5.797898769378662,-117.56310272216797,-99.52281951904297, 25.065784454345703
490,1239927243,0.16568391,0.9207179,-0.049685683,0.34979823,8.752423286437988,0.7434266805648804,15.330893516540527,-65.19236755371094,-0.5176413059234619, 22.715700149536133
491,1239943910,0.15557836,0.91692495,-0.048727755,0.36423883,0.2921157479286194,-1.7131470441818237,3.6935653686523438,67.68775939941406,94.43656158447266, 36.09885025024414
492,1239960577,0.14036348,0.9107464,-0.0449487,0.38577047,5.521420955657959,2.9371440410614014,2.104430913925171,106.78828430175781,146.42822265625, 39.51351547241211
493,1239977244,0.13396746,0.9006201,-0.041239675,0.41138256,5.944218635559082,5.348633289337158,2.9411892890930176,48.83681869506836,185.09349060058594, 21.747024536132812
494,1239993911,0.13582653,0.886697,-0.038778543,0.44024536,5.176097393035889,4.152406215667725,1.2345746755599976,-8.369782447814941,217.14077758789062, 10.225532531738281
495,1240010578,0.14527029,0.86891127,-0.03920076,0.4715433,6.03032922744751,3.965721368789673,0.8255074620246887,-66.2933349609375,243.01524353027344, 8.167765617370605
496,1240027245,0.15810023,0.8471958,-0.04243772,0.50543356,7.887633800506592,2.284626007080078,-0.4672400653362274,-98.8801040649414,269.3580627441406, 17.666698455810547
497,1240043912,0.16940631,0.8219968,-0.04656215,0.5417147,9.174114227294922,1.3591198921203613,-1.291366696357727,-96.182373046875,293.99664306640625, 31.749584197998047
498,1240060579,0.1796674,0.792886,-0.05161223,0.5799894,11.132410049438477,1.88675856590271,-1.9268183708190918,-97.65775299072266,318.44378662109375, 44.44538879394531
499,1240077246,0.1881275,0.7602005,-0.057006262,0.6192363,12.740639686584473,2.228356122970581,-2.599561929702759,-93.2950210571289,336.96002197265625, 55.97114181518555
500,1240093913,0.19316578,0.7244734,-0.06082823,0.6588818,14.165215492248535,2.191000461578369,-3.193357467651367,-72.50189971923828,352.71405029296875, 64.03228759765625
501,1240110580,0.19532868,0.68616265,-0.061102256,0.6980646,16.54450035095215,4.618745803833008,-3.3416528701782227,-45.733333587646484,365.6601257324219, 59.8503532409668
502,1240127247,0.20007707,0.64516455,-0.05978835,0.73495394,16.767745971679688,7.088006973266602,-3.9174270629882812,-54.90117645263672,370.9976501464844, 38.003211975097656
503,1240143914,0.2107614,0.6030432,-0.060613614,0.766971,16.6401309967041,7.356204032897949,-6.477612495422363,-95.62530517578125,354.59423828125, 11.269437789916992
504,1240160581,0.22319421,0.5632692,-0.06057324,0.79324853,17.73082733154297,6.530824661254883,-8.443549156188965,-97.3170166015625,320.44146728515625, -10.820409774780273
505,1240177248,0.23792136,0.52808386,-0.06422829,0.81264734,15.108170509338379,0.9901031255722046,-11.429773330688477,-122.20803833007812,264.118408203125, -21.477252960205078
506,1240193915,0.2384198,0.5040928,-0.056024272,0.8281957,10.689919471740723,3.01120662689209,-14.71414852142334,12.340901374816895,200.78431701660156, 3.717003107070923
507,1240210582,0.24146728,0.49052936,-0.052168366,0.83567536,7.48100471496582,6.754348278045654,-20.075361251831055,-7.30133056640625,107.41059875488281, -12.966031074523926
508,1240227249,0.23724017,0.49205944,-0.0448114,0.8364131,8.151951789855957,-0.13237617909908295,-23.451984405517578,59.94084548950195,1.307512879371643, 0.44761961698532104
509,1240243916,0.22582808,0.5083143,-0.024125207,0.83068424,8.536444664001465,5.640214920043945,-22.153959274291992,182.91978454589844,-85.55379486083984, -18.434391021728516
510,1240260583,0.22122571,0.5298862,-0.0141921565,0.8185832,11.939852714538574,8.14133071899414,-12.016938209533691,104.84353637695312,-153.59759521484375, -30.51300048828125
511,1240277250,0.22909623,0.5440001,-0.020846853,0.80693513,16.60513687133789,8.620976448059082,24.004024505615234,-45.3117561340332,-133.87283325195312, -38.82966232299805
512,1240293917,0.25097686,0.54953355,-0.0437554,0.79568136,12.64362907409668,1.1932960748672485,9.423166275024414,-201.35926818847656,-108.52400207519531, -53.87664031982422
513,1240310584,0.26560017,0.5620265,-0.06313866,0.78076655,16.642669677734375,-5.6592583656311035,-8.636359214782715,-143.7142791748047,-156.5796661376953, -35.89743423461914
514,1240327251,0.26564878,0.5823476,-0.059239447,0.766024,17.497087478637695,4.3215813636779785,-5.195718765258789,51.98208236694336,-161.65118408203125, -50.7636604309082
515,1240343918,0.2658249,0.606349,-0.046341993,0.7480178,9.590194702148438,13.932049751281738,-1.6649612188339233,104.24575805664062,-177.56573486328125, -94.93850708007812
516,1240360585,0.2863835,0.6198723,-0.06268522,0.72788286,11.445399284362793,2.8048441410064697,-4.316175937652588,-151.01358032226562,-179.4949951171875, -78.33181762695312
517,1240377252,0.29000422,0.6349684,-0.06221283,0.7133318,9.82381820678711,1.1566942930221558,-3.5431997776031494,10.854783058166504,-137.70616149902344, -54.89250564575195
518,1240393919,0.28996634,0.64792675,-0.059325464,0.70184827,11.812856674194336,-1.1382527351379395,-3.2888407707214355,35.715518951416016,-110.55591583251953, -40.47426986694336
519,1240410586,0.27627662,0.6630402,-0.043601345,0.69436866,12.333876609802246,1.9846287965774536,-0.6708177328109741,164.41827392578125,-83.08148193359375, -24.72588348388672
520,1240427253,0.26845255,0.67503,-0.03300772,0.6864244,8.928914070129395,7.929627895355225,1.0373746156692505,107.10023498535156,-78.27111053466797, -29.31884765625
521,1240443920,0.26943818,0.6829535,-0.03313031,0.67814475,8.429313659667969,5.767917633056641,0.5261632204055786,8.058027267456055,-78.43257141113281, -20.829967498779297
522,1240460587,0.2752334,0.68860215,-0.03843817,0.6697734,9.69588851928711,5.400675296783447,0.922886073589325,-42.9322395324707,-76.7865219116211, -18.538089752197266
523,1240477254,0.28287476,0.6930273,-0.046218537,0.6614824,9.333066940307617,4.1881208419799805,0.7040422558784485,-65.34578704833984,-74.98538208007812, -14.83922004699707
524,1240493921,0.2868603,0.69813204,-0.050771713,0.6540223,8.705217361450195,3.2534985542297363,0.23593240976333618,-31.653146743774414,-69.02310180664062, -12.180245399475098
525,1240510588,0.28536654,0.70496064,-0.04924587,0.6474344,9.10555362701416,2.616506338119507,0.12165891379117966,25.69465446472168,-62.52656555175781, -15.603340148925781
526,1240527255,0.28201428,0.7126419,-0.04505887,0.6407645,8.04280948638916,5.050296783447266,0.4828793406486511,48.1996955871582,-62.14339828491211, -20.69016456604004
527,1240543922,0.28226075,0.72002137,-0.044654362,0.63237983,7.900890827178955,5.3439621925354,0.367582768201828,12.794857025146484,-75.4526596069336, -21.235279083251953
528,1240560589,0.28569838,0.727286,-0.0474734,0.6222363,8.300203323364258,3.6332836151123047,-0.25109148025512695,-17.771944046020508,-88.95458984375, -22.51740837097168
529,1240577256,0.289685,0.73512083,-0.05100879,0.61080134,9.510189056396484,1.7029615640640259,-0.8324949741363525,-22.875864028930664,-99.09746551513672, -24.004735946655273
530,1240593923,0.29249188,0.74393153,-0.05315215,0.5984893,10.118300437927246,1.2831987142562866,-0.24531230330467224,-9.427382469177246,-105.28302001953125, -28.188720703125
531,1240610590,0.29399917,0.7537014,-0.05381903,0.58532256,10.132121086120605,2.2988948822021484,0.5994151830673218,4.917673110961914,-111.1275405883789, -32.48164367675781
532,1240627257,0.29435837,0.76376593,-0.053088177,0.5720111,10.606332778930664,3.415214776992798,-0.04281896352767944,17.042743682861328,-110.6874771118164, -35.52046585083008
533,1240643924,0.2936124,0.77382743,-0.05107552,0.55890447,10.78130054473877,3.6184029579162598,-1.411793828010559,27.964881896972656,-107.43193817138672, -37.49907684326172
534,1240660591,0.29175827,0.7838033,-0.047939356,0.5461057,11.965051651000977,2.605487585067749,-1.5082244873046875,38.116695404052734,-103.59982299804688, -38.57672119140625
535,1240677258,0.28814015,0.79455054,-0.04392716,0.5326681,13.442283630371094,1.7444125413894653,-1.076623558998108,52.25221252441406,-108.78111267089844, -38.23088455200195
536,1240693925,0.28366932,0.8060556,-0.039668452,0.5179116,13.035283088684082,2.042363405227661,-0.9474925398826599,58.9185905456543,-118.55931091308594, -39.32669448852539
537,1240710592,0.27828455,0.8182679,-0.036071196,0.50169146,13.562420845031738,2.356128215789795,-0.2630704641342163,62.6119270324707,-130.7592010498047, -35.48064041137695
538,1240727259,0.2717826,0.83068275,-0.033009227,0.48477906,14.059632301330566,2.1677017211914062,-0.5116434097290039,67.27351379394531,-136.69223022460938, -30.016294479370117
539,1240743926,0.2632376,0.84284616,-0.02959637,0.46844453,14.690179824829102,2.0751681327819824,-0.29601162672042847,79.77938842773438,-132.40196228027344, -24.100297927856445
540,1240760593,0.25215328,0.8545069,-0.026331658,0.45336914,16.024513244628906,2.069260835647583,1.4922139644622803,93.37015533447266,-124.31623077392578, -12.709739685058594
541,1240777260,0.23884267,0.8652442,-0.024080366,0.4401443,19.94320297241211,0.15081660449504852,5.154204368591309,102.0355453491211,-112.79037475585938, 3.5297884941101074
542,1240793927,0.22211197,0.8758249,-0.022260085,0.42790365,21.3887882232666,-3.6327664852142334,9.95143985748291,120.9994125366211,-107.84185791015625, 18.040348052978516
543,1240810594,0.19537576,0.88765556,-0.01735568,0.41664717,17.8203067779541,-2.6570119857788086,7.555837631225586,192.412353515625,-102.5670394897461, 30.159976959228516
544,1240827261,0.15510051,0.9012184,-0.0067069903,0.40460387,15.27968978881836,11.151039123535156,0.10803860425949097,293.79803466796875,-106.3744125366211, 32.605525970458984
545,1240843928,0.13983832,0.911924,-0.009056092,0.38569143,17.2193546295166,13.715836524963379,-0.8814516067504883,99.24396514892578,-153.7450714111328, 36.4145622253418
546,1240860595,0.14219746,0.919941,-0.019608391,0.36483428,15.856874465942383,7.804538726806641,-1.8009541034698486,-35.658935546875,-165.6626739501953, 39.4567756652832
547,1240877262,0.14267312,0.92692363,-0.025482805,0.34613258,13.706202507019043,9.056745529174805,-1.171372890472412,-12.704147338867188,-145.16598510742188, 16.840648651123047
548,1240893929,0.15203457,0.92968154,-0.031636186,0.3340318,14.160977363586426,6.48613166809082,12.228070259094238,-72.9476318359375,-91.80599975585938, 4.692697525024414
549,1240910596,0.16166264,0.9280192,-0.037856814,0.3334853,6.966311454772949,-1.6091760396957397,8.996230125427246,-76.85803985595703,-7.927049160003662, 17.53282356262207
550,1240927263,0.14270228,0.926888,-0.035138056,0.3453697,4.719420433044434,-0.5401866436004639,4.042402267456055,129.88546752929688,72.60729217529297, 39.71566390991211
551,1240943930,0.1280309,0.9220276,-0.029645082,0.3641355,7.001469612121582,5.928395748138428,6.462944030761719,107.14297485351562,129.04864501953125, 19.529123306274414
552,1240960597,0.12763427,0.9122995,-0.02637262,0.38823146,4.238008499145508,4.37425422668457,4.437476634979248,7.924046516418457,175.93466186523438, 3.591991901397705
553,1240977264,0.1352064,0.8983598,-0.02523619,0.41717172,4.355889320373535,3.505941390991211,3.4485065937042236,-50.55986785888672,217.1277313232422, 0.757660448551178
554,1240993931,0.14836709,0.8799935,-0.02648673,0.45044106,6.083255767822266,2.4026241302490234,2.1790246963500977,-95.28197479248047,255.3253173828125, 4.273708343505859
555,1241010598,0.15902144,0.8577173,-0.027427427,0.48814055,7.8391594886779785,0.8840541243553162,0.357241153717041,-82.33551025390625,294.1091003417969, 15.399506568908691
556,1241027265,0.16638863,0.8317361,-0.02788091,0.5289165,9.822139739990234,1.100187063217163,-0.9462000131607056,-64.78527069091797,324.6160888671875, 27.621915817260742
557,1241043932,0.1725179,0.80161977,-0.028932417,0.57166994,11.830585479736328,1.4743080139160156,-1.6880428791046143,-64.24332427978516,350.0660705566406, 38.602783203125
558,1241060599,0.17853962,0.76711464,-0.031797573,0.61534363,13.733770370483398,1.9665255546569824,-2.3407649993896484,-75.82685852050781,370.2454528808594, 50.99290466308594
559,1241077266,0.18295771,0.728534,-0.034894653,0.6592022,16.20567512512207,2.1135189533233643,-3.1152541637420654,-73.3275375366211,387.8677978515625, 60.12157440185547
560,1241093933,0.18564662,0.686081,-0.035249945,0.7025566,18.978593826293945,4.878303527832031,-3.8229403495788574,-57.245418548583984,405.9797058105469, 54.5162239074707
561,1241110600,0.19249545,0.6401241,-0.03615925,0.7428858,19.245141983032227,7.862425804138184,-4.981025695800781,-84.78256225585938,408.99200439453125, 34.02421569824219
562,1241127267,0.2063522,0.59258574,-0.04043499,0.77757716,19.871387481689453,8.734153747558594,-7.102956295013428,-136.36724853515625,389.5991516113281, 5.984954833984375
563,1241143934,0.2248451,0.5482206,-0.04907142,0.8040467,19.282730102539062,3.4771833419799805,-13.609113693237305,-176.3885955810547,334.2834777832031, -13.570905685424805
564,1241160601,0.22927856,0.516315,-0.049880926,0.8236275,15.68000602722168,1.7568262815475464,-19.586101531982422,-63.15235900878906,246.85604858398438, 19.797496795654297
565,1241177268,0.23518394,0.49743938,-0.050856322,0.83346045,7.148715496063232,8.746296882629395,-22.547760009765625,-52.15143585205078,138.87411499023438, -7.799379348754883
566,1241193935,0.23554556,0.49372044,-0.052288793,0.8354787,7.5474677085876465,-2.473327398300171,-29.13494110107422,-14.094786643981934,22.804134368896484, 7.647083282470703
567,1241210602,0.22186063,0.5070556,-0.029843278,0.8323351,9.2628755569458,4.918004512786865,-27.586143493652344,196.50302124023438,-58.829833984375, -7.243693828582764
568,1241227269,0.21179898,0.53001684,-0.01291485,0.8210095,11.238645553588867,9.378385543823242,-17.476032257080078,165.24371337890625,-149.90061950683594, -23.200538635253906
569,1241243936,0.2221352,0.543005,-0.023607425,0.80947155,21.397878646850586,15.998706817626953,36.532405853271484,-79.64000701904297,-132.61767578125, -37.064537048339844
570,1241260603,0.23979536,0.55487543,-0.042289406,0.79550177,9.241495132446289,-1.6006581783294678,-10.390647888183594,-153.54278564453125,-146.71438598632812, -51.4421501159668
571,1241277270,0.24766378,0.5760965,-0.051731646,0.7772383,21.014150619506836,4.488184452056885,-4.015304088592529,-51.47990417480469,-201.7666015625, -42.94500732421875
572,1241293937,0.25206023,0.6020273,-0.047837224,0.75613517,12.699790000915527,7.806395530700684,-6.229521751403809,40.54767990112305,-216.64173889160156, -83.73077392578125
573,1241310604,0.26490122,0.62329215,-0.052477136,0.73388034,10.164924621582031,4.697481632232666,-2.5698602199554443,-47.28342819213867,-209.10366821289062, -92.72722625732422
574,1241327271,0.2714907,0.64090896,-0.05295245,0.71604794,9.044271469116211,3.9322574138641357,-5.350526332855225,-4.53109884262085,-166.37913513183594, -69.62657928466797
575,1241343938,0.27360478,0.65469295,-0.05128522,0.7027712,11.127625465393066,1.1248475313186646,-3.6309292316436768,20.23031997680664,-125.02053833007812, -47.11968994140625
576,1241360605,0.26531023,0.6684679,-0.039626755,0.69367933,12.896467208862305,1.0497348308563232,-2.108503818511963,116.81925201416016,-90.99174499511719, -33.95243453979492
577,1241377272,0.26004776,0.6792179,-0.031394914,0.68560386,11.822294235229492,5.598407745361328,-1.1639854907989502,81.290771484375,-77.30377197265625, -30.02507209777832
578,1241393939,0.25902772,0.6867062,-0.027964113,0.6786436,10.403875350952148,3.0320541858673096,-1.8920973539352417,33.25358581542969,-64.39086151123047, -24.90150260925293
579,1241410606,0.25852913,0.6922394,-0.025486708,0.67328894,10.817978858947754,4.020034313201904,-0.10397174954414368,23.16827392578125,-49.287620544433594, -19.60736846923828
580,1241427273,0.25702947,0.6968397,-0.021966124,0.6692294,10.958871841430664,2.657071113586426,0.4869076907634735,31.33496856689453,-37.140777587890625, -17.476646423339844
581,1241443940,0.25263882,0.7019655,-0.015637346,0.6657129,9.749712944030762,2.9856748580932617,0.7382036447525024,59.123722076416016,-32.45268630981445, -16.7667293548584
582,1241460607,0.24821174,0.7077734,-0.01055835,0.66131425,8.76186752319336,3.831904172897339,0.624329686164856,54.67692565917969,-42.029815673828125, -12.187846183776855
583,1241477274,0.24355859,0.7140803,-0.0055113793,0.6563066,8.18331527709961,4.271973133087158,0.9579920172691345,56.44779586791992,-47.355587005615234, -12.083721160888672
584,1241493941,0.23860058,0.72100705,-0.00048550192,0.6505524,8.225737571716309,4.5857977867126465,0.8311017751693726,58.869293212890625,-53.890071868896484, -11.877649307250977
585,1241510608,0.23575675,0.7283491,0.0021809046,0.6433676,8.073904991149902,5.151142120361328,1.232454538345337,38.52191162109375,-66.72640991210938, -11.98153305053711
586,1241527275,0.23608749,0.7359583,0.0022055835,0.6345261,7.9965643882751465,4.432448387145996,1.0006954669952393,11.41079044342041,-80.56239318847656, -15.464412689208984
587,1241543942,0.23704669,0.7443258,0.002236836,0.624326,8.227433204650879,4.578044414520264,0.8705260753631592,9.522845268249512,-90.77110290527344, -20.424579620361328
588,1241560609,0.23893023,0.75325286,0.00222752,0.6127949,7.866706371307373,5.255447864532471,1.1100986003875732,5.5641913414001465,-100.09260559082031, -26.3366641998291
589,1241577276,0.24337243,0.76222533,0.00040125073,0.59981877,7.241056442260742,5.234196186065674,-0.3656087815761566,-15.231315612792969,-110.8224105834961, -30.065673828125
590,1241593943,0.25012666,0.7710197,-0.003038408,0.5856248,8.024269104003906,3.932111978530884,-3.102139949798584,-34.284549713134766,-119.19745635986328, -33.1674919128418
591,1241610610,0.25664338,0.77949476,-0.0065095033,0.5713842,10.430447578430176,0.9970995783805847,-4.516237735748291,-33.70059585571289,-118.21925354003906, -32.112144470214844
592,1241627277,0.2573883,0.7890337,-0.0054491027,0.5578061,12.163838386535645,0.005280202254652977,-2.950291156768799,16.9341983795166,-111.10540008544922, -32.62498474121094
593,1241643944,0.25318116,0.80070937,-0.0006182888,0.5429213,13.2269868850708,1.4257583618164062,-0.1423400640487671,61.98600387573242,-119.9187240600586, -36.52044677734375
594,1241660611,0.24760495,0.81379074,0.0037351847,0.52575916,13.403596878051758,3.476367950439453,0.44685453176498413,70.18562316894531,-138.58181762695312, -32.787960052490234
595,1241677278,0.2459089,0.82674384,0.0029767775,0.505979,15.314981460571289,4.493626117706299,1.986410140991211,29.857280731201172,-161.61741638183594, -22.691890716552734
596,1241693945,0.24536005,0.83950865,0.0012884021,0.48479053,17.775726318359375,3.1772022247314453,3.1669275760650635,19.83576202392578,-170.62954711914062, -23.800739288330078
597,1241710612,0.24091657,0.85218763,0.0019367804,0.46446955,17.132375717163086,0.9146245121955872,2.558422327041626,49.97483444213867,-161.44313049316406, -22.88018035888672
598,1241727279,0.23082313,0.8639671,0.004994758,0.44750053,22.209796905517578,-1.2175726890563965,8.366053581237793,89.25385284423828,-134.94248962402344, -13.460417747497559
599,1241743946,0.21328275,0.87644714,0.010209882,0.43156305,24.508800506591797,-4.930591583251953,10.953973770141602,141.2337646484375,-127.4371109008789, -1.7683852910995483
600,1241760613,0.18539663,0.8905991,0.015725376,0.41498688,18.891172409057617,-5.814558982849121,3.2295775413513184,206.99722290039062,-135.26986694335938, 26.225582122802734
601,1241777280,0.14122735,0.9064131,0.022435933,0.3974505,15.821138381958008,4.0196709632873535,-1.6647378206253052,312.39068603515625,-142.75364685058594, 64.30258178710938
602,1241793947,0.11758308,0.917622,0.020005282,0.37913555,14.56423282623291,12.68603229522705,-0.8511093854904175,155.0437469482422,-147.09756469726562, 63.72879409790039
603,1241810614,0.10915258,0.92614096,0.012382632,0.36082613,14.994149208068848,8.739213943481445,-5.043283462524414,43.382572174072266,-146.38784790039062, 56.51166534423828
604,1241827281,0.10610786,0.9325886,0.007197267,0.34491783,15.688164710998535,14.871293067932129,1.8672305345535278,13.400727272033691,-124.6223373413086, 29.279993057250977
605,1241843948,0.13277458,0.9323724,-0.0071294373,0.33615753,12.429082870483398,7.838186740875244,14.892308235168457,-203.94801330566406,-71.20960998535156, 22.344846725463867
606,1241860615,0.1508842,0.92815137,-0.01977422,0.3396734,5.514917373657227,-2.8390910625457764,5.311083793640137,-148.17660522460938,17.74837303161621, 42.71579360961914
607,1241877282,0.13593608,0.9251117,-0.020482272,0.35393533,8.113359451293945,3.28887677192688,2.3257949352264404,93.33875274658203,91.42365264892578, 54.71113586425781
608,1241893949,0.13325876,0.9178188,-0.020853192,0.37338468,8.006314277648926,8.712383270263672,3.5182149410247803,12.87409782409668,136.7808837890625, 28.17564582824707
609,1241910616,0.13779242,0.9068394,-0.022507245,0.3976797,4.871072769165039,3.5457496643066406,0.432813823223114,-38.562705993652344,176.6566162109375, 22.766572952270508
610,1241927283,0.14230348,0.8929043,-0.022410052,0.42657912,5.217945575714111,4.372574806213379,0.7466894388198853,-35.710792541503906,215.119384765625, 16.7451114654541
611,1241943950,0.14630897,0.8757737,-0.020987,0.45953637,5.028823375701904,2.512955904006958,0.05883760750293732,-31.20387077331543,250.6413116455078, 14.576716423034668
612,1241960617,0.14645143,0.8553713,-0.017624537,0.49656948,5.516590118408203,1.491046667098999,-0.4433915615081787,-4.511763095855713,286.9476013183594, 19.701034545898438
613,1241977284,0.1447729,0.8312461,-0.012387578,0.53657943,6.55852746963501,1.2281646728515625,-0.7537899017333984,9.207013130187988,318.8711242675781, 18.36782455444336
614,1241993951,0.14227419,0.8027821,-0.0060004652,0.5790191,8.833818435668945,1.62621009349823,-1.096157193183899,14.017906188964844,349.88555908203125, 17.632017135620117
615,1242010618,0.1419876,0.76993805,-0.0005052898,0.622121,11.787827491760254,1.3650285005569458,-2.1056876182556152,-6.020823001861572,370.2365417480469, 14.59534740447998
616,1242027285,0.14223343,0.7330364,0.004483765,0.66513705,14.426064491271973,2.6976771354675293,-2.5231032371520996,-14.986227989196777,386.6906433105469, 14.938902854919434
617,1242043952,0.14858204,0.6915539,0.004845803,0.70686156,18.07343292236328,5.298186779022217,-3.4975996017456055,-71.39142608642578,396.4697265625, 8.949185371398926
618,1242060619,0.1634181,0.64621234,-0.0017599269,0.7454538,19.064393997192383,7.352591037750244,-5.20402193069458,-149.52381896972656,392.9963684082031, -2.5017683506011963
619,1242077286,0.18640396,0.5998661,-0.015989514,0.77791965,18.476978302001953,7.974021911621094,-7.296408653259277,-226.08309936523438,362.5274658203125, -17.277488708496094
620,1242093953,0.21114981,0.55731523,-0.039655555,0.8020245,17.53536605834961,1.9383273124694824,-12.183116912841797,-279.91827392578125,295.8907165527344, 1.1067125797271729
621,1242110620,0.22429278,0.5231006,-0.056014873,0.82031757,17.79410743713379,2.7385735511779785,-15.769688606262207,-184.58021545410156,235.15357971191406, 26.35322380065918
622,1242127287,0.23160325,0.5005087,-0.065272346,0.83161926,8.823305130004883,-0.32616618275642395,-20.540193557739258,-108.31493377685547,153.29489135742188, 18.430410385131836
623,1242143954,0.22453576,0.4937963,-0.05489134,0.83829355,8.508735656738281,-2.622042655944824,-24.423870086669922,76.64250946044922,71.57171630859375, 18.549001693725586
624,1242160621,0.20660764,0.50108314,-0.026377533,0.8399603,9.99791431427002,6.9083757400512695,-22.936574935913086,237.76968383789062,-2.012765645980835, 6.535532474517822
625,1242177288,0.19893491,0.5164939,-0.012485932,0.83276826,8.891841888427734,11.983403205871582,-19.944063186645508,127.83129119873047,-98.16632843017578, -16.359498977661133
626,1242193955,0.20100127,0.5344109,-0.016033925,0.8208205,13.77735424041748,9.589639663696289,5.147687911987305,-3.6693227291107178,-152.25076293945312, -16.84488296508789
627,1242210622,0.21857893,0.54131466,-0.033676017,0.8112138,18.415660858154297,5.866446018218994,21.402315139770508,-155.20558166503906,-99.26920318603516, -48.08673858642578
628,1242227289,0.22402394,0.55671066,-0.037140023,0.79906654,11.713460922241211,-0.9666600823402405,-10.126402854919434,-18.75846290588379,-137.704833984375, -38.9351921081543
629,1242243956,0.228411,0.5763353,-0.039965764,0.7836254,16.931974411010742,6.787633895874023,-3.3137221336364746,-5.548252105712891,-172.73748779296875, -41.74183654785156
630,1242260623,0.23132181,0.60024405,-0.030760635,0.7650172,11.726106643676758,9.641407012939453,-3.203620195388794,70.96551513671875,-189.830322265625, -87.59593200683594
631,1242277290,0.2457398,0.6190687,-0.03914776,0.7448715,12.199923515319824,1.4768381118774414,-3.267650842666626,-77.51969909667969,-194.94410705566406, -76.82589721679688
632,1242293957,0.2464463,0.6372078,-0.03284904,0.7294872,8.848952293395996,3.5430545806884766,-3.584561824798584,56.18199157714844,-149.99546813964844, -60.881431579589844
633,1242310624,0.25030947,0.6504168,-0.031358045,0.71646345,9.69073486328125,4.2694196701049805,-2.4285526275634766,10.402711868286133,-122.32475280761719, -50.527103424072266
634,1242327291,0.24849854,0.6617896,-0.026988473,0.70679206,11.771797180175781,1.544321894645691,-1.7585557699203491,47.510982513427734,-94.53736114501953, -29.274316787719727
635,1242343958,0.24444078,0.67166096,-0.020803848,0.69906193,10.355063438415527,5.536651134490967,-0.33461177349090576,64.34497833251953,-75.71135711669922, -23.045257568359375
636,1242360625,0.24562229,0.6786284,-0.021099586,0.691873,9.632908821105957,4.502951622009277,-0.20424267649650574,4.200872898101807,-69.39852142333984, -16.963457107543945
637,1242377292,0.25004613,0.6838427,-0.024699183,0.6850008,10.371400833129883,3.1290173530578613,-0.24064499139785767,-29.55647850036621,-64.69934844970703, -16.168357849121094
638,1242393959,0.25491887,0.68838215,-0.028681474,0.6784718,10.064347267150879,3.112837553024292,-0.31678831577301025,-34.56746292114258,-60.50053405761719, -15.773865699768066
639,1242410626,0.25948676,0.6925098,-0.03311687,0.6723097,9.044075965881348,3.5016634464263916,0.8151617646217346,-35.88475036621094,-57.70854187011719, -11.478536605834961
640,1242427293,0.2586491,0.6973795,-0.032021824,0.66763556,9.83240032196045,1.2054576873779297,0.23908956348896027,17.088619232177734,-45.4375, -10.333685874938965
641,1242443960,0.25079328,0.7042894,-0.023976056,0.663705,9.300416946411133,2.110837936401367,0.23839926719665527,86.44248962402344,-40.43468475341797, -10.601683616638184
642,1242460627,0.24363357,0.71179056,-0.01701865,0.65856457,8.577505111694336,4.5392374992370605,0.7463549971580505,78.93002319335938,-50.765098571777344, -10.717164039611816
643,1242477294,0.2420526,0.7185822,-0.015171271,0.65178216,8.534566879272461,4.783475875854492,0.8790052533149719,27.118501663208008,-63.512107849121094, -13.632928848266602
644,1242493961,0.24348854,0.7253964,-0.01575167,0.6436346,8.520990371704102,3.5760974884033203,0.7237120270729065,1.2390586137771606,-74.1069107055664, -17.419448852539062
645,1242510628,0.24565125,0.73312205,-0.016496506,0.6339682,8.3072509765625,3.7989249229431152,0.935604989528656,-1.7427366971969604,-85.93579864501953, -22.451297760009766
646,1242527295,0.24858913,0.74200684,-0.017672068,0.622348,8.518105506896973,3.6689157485961914,1.030133843421936,-5.779231548309326,-101.50338745117188, -27.082401275634766
647,1242543962,0.25044438,0.75221664,-0.017617682,0.6092106,9.288321495056152,2.8740715980529785,0.4282451868057251,7.100307464599609,-112.97407531738281, -31.47419548034668
648,1242560629,0.25042772,0.76334804,-0.015906496,0.5952586,10.446244239807129,2.411322593688965,-0.34813112020492554,25.21875,-118.4462890625, -33.722862243652344
649,1242577296,0.24801572,0.7749786,-0.012035755,0.58116406,11.45824146270752,2.616023540496826,-1.4921159744262695,47.48127746582031,-117.8030776977539, -35.571712493896484
650,1242593963,0.2445124,0.7866973,-0.007404368,0.56680363,11.911966323852539,2.436352252960205,-1.1986544132232666,56.46506881713867,-118.38318634033203, -35.74666976928711
651,1242610630,0.24087813,0.798688,-0.0036375662,0.55141824,13.709238052368164,1.5562511682510376,-0.8065444231033325,54.2143669128418,-126.47066497802734, -32.322994232177734
652,1242627297,0.23793167,0.8111821,-0.0012526611,0.534201,13.78822135925293,2.1854922771453857,-0.470295786857605,45.98612594604492,-140.7492218017578, -30.42565155029297
653,1242643964,0.2354421,0.8237887,-0.00026572455,0.515693,14.78109073638916,2.0031521320343018,-0.5545200705528259,38.48377227783203,-150.69175720214844, -26.451826095581055
654,1242660631,0.23095056,0.83635736,0.0014701358,0.49715838,14.537117004394531,1.3612375259399414,-0.7641803026199341,52.42699432373047,-149.55252075195312, -23.677688598632812
655,1242677298,0.22254458,0.84896636,0.0046631796,0.47927913,15.217443466186523,1.3269519805908203,0.19471150636672974,79.97373962402344,-143.6300048828125, -17.675352096557617
656,1242693965,0.21098186,0.8613128,0.007839464,0.4621317,17.013582229614258,1.4029396772384644,3.379647731781006,97.9284439086914,-138.49281311035156, -6.10854434967041
657,1242710632,0.19775583,0.87284404,0.009538736,0.4460327,19.702404022216797,-0.741454541683197,6.421339511871338,101.86703491210938,-131.86337280273438, 9.351237297058105
658,1242727299,0.18328327,0.8834502,0.0081563,0.43111083,19.09515380859375,-4.075908184051514,7.129881858825684,98.57461547851562,-126.2373046875, 33.1424560546875
659,1242743966,0.15879045,0.8940596,0.006950851,0.41880172,15.200830459594727,-2.6280345916748047,2.772336483001709,159.828125,-109.77332305908203, 64.9867935180664
660,1242760633,0.12440721,0.9043384,0.013498702,0.40805987,13.420797348022461,14.685101509094238,1.8753176927566528,242.5274200439453,-90.38719177246094, 47.470001220703125
661,1242777300,0.120350875,0.9113898,0.008687577,0.393458,15.146223068237305,15.439199447631836,2.065924644470215,19.73578453063965,-117.95403289794922, 29.49448585510254
662,1242793967,0.13371947,0.91676664,-0.0044631404,0.37634876,16.271188735961914,8.091358184814453,0.42730528116226196,-113.14783477783203,-137.201416015625, 32.49928665161133
663,1242810634,0.14128639,0.9222111,-0.0138032595,0.3596864,15.764724731445312,6.117883682250977,-7.36170768737793,-66.5866928100586,-131.34231567382812, 23.892738342285156
664,1242827301,0.14912298,0.92533106,-0.022059072,0.34790528,14.804128646850586,7.802702903747559,6.875866413116455,-67.39085388183594,-93.61368560791016, 21.293195724487305
665,1242843968,0.17037454,0.9221126,-0.03093255,0.34601155,10.879401206970215,4.5401506423950195,15.874811172485352,-159.146240234375,-14.297974586486816, 4.2057600021362305
666,1242860635,0.16156511,0.9188895,-0.03127889,0.35855314,2.411076545715332,-4.403104305267334,2.989147186279297,54.88561248779297,80.63928985595703, 38.549537658691406
667,1242877302,0.14125696,0.9140598,-0.024793701,0.3793767,6.281913757324219,3.409823417663574,2.2845234870910645,144.35362243652344,142.02023315429688, 33.29579162597656
668,1242893969,0.13213901,0.90449524,-0.017985862,0.40509796,5.922067642211914,4.041576385498047,4.598209857940674,71.12785339355469,187.31878662109375, 7.700351238250732
669,1242910636,0.13070795,0.8907438,-0.011553343,0.43515226,4.642184734344482,3.059093713760376,3.424417018890381,19.05158233642578,226.48094177246094, -6.867645740509033
670,1242927303,0.13926357,0.8721119,-0.010426254,0.4689543,6.150688171386719,2.6680850982666016,2.4678473472595215,-62.05720901489258,260.0371398925781, -0.4641805589199066
671,1242943970,0.15017855,0.8491064,-0.013238471,0.5062507,7.911406517028809,-0.3708605468273163,0.3615754246711731,-92.83566284179688,291.4723815917969, 19.221389770507812
672,1242960637,0.15698689,0.82246614,-0.016433686,0.5464746,9.649633407592773,-0.6185301542282104,-0.6728345155715942,-73.69274139404297,320.4378967285156, 39.09305191040039
673,1242977304,0.16270252,0.79146427,-0.021309637,0.58877677,11.837825775146484,0.1761181503534317,-1.2828294038772583,-78.32817840576172,346.6491394042969, 55.42068099975586
674,1242993971,0.16914055,0.755587,-0.029617254,0.63214153,13.716873168945312,0.9353182911872864,-2.122750997543335,-101.49568176269531,368.4560241699219, 73.0574722290039
675,1243010638,0.17374124,0.7151076,-0.03967475,0.67591494,16.361223220825195,1.4048560857772827,-3.156656265258789,-104.86003112792969,388.21209716796875, 91.52994537353516
676,1243027305,0.17318118,0.67103463,-0.04394633,0.71957594,19.96358299255371,4.57271146774292,-5.114134788513184,-56.913455963134766,409.9261474609375, 87.89215850830078
677,1243043972,0.175504,0.6242951,-0.045848694,0.7598369,18.774303436279297,8.095815658569336,-6.410721778869629,-62.7261962890625,411.2059631347656, 59.458824157714844
678,1243060639,0.18497048,0.57749826,-0.049776934,0.7936019,18.788419723510742,8.136767387390137,-9.242313385009766,-106.1466293334961,383.51959228515625, 23.046852111816406
679,1243077306,0.19815722,0.5352708,-0.053409975,0.81936955,19.676671981811523,4.286696434020996,-14.36656379699707,-116.26087188720703,328.6012268066406, -10.124544143676758
680,1243093973,0.1998592,0.50577384,-0.049655084,0.8377254,12.650367736816406,2.708393096923828,-17.88834571838379,-17.758638381958008,235.6396484375, 12.632404327392578
681,1243110640,0.20497017,0.48886773,-0.04899674,0.8465194,7.626996040344238,11.39419174194336,-19.809972763061523,-33.46147537231445,127.03218841552734, -13.664139747619629
682,1243127307,0.2086574,0.4852977,-0.056273688,0.8472199,8.322431564331055,-0.4721079170703888,-26.917593002319336,-58.89934539794922,10.823405265808105, 5.502875804901123
683,1243143974,0.19736114,0.49885124,-0.038783673,0.84302545,9.250997543334961,4.405110836029053,-25.145299911499023,157.9983673095703,-75.16349029541016, -3.530040979385376
684,1243160641,0.18886851,0.52027845,-0.02272735,0.8325399,11.200050354003906,8.025793075561523,-15.138638496398926,149.0109405517578,-143.24208068847656, -25.492835998535156
685,1243177308,0.1921028,0.53714156,-0.027001845,0.8208816,17.13522720336914,8.026344299316406,22.141088485717773,-15.518318176269531,-145.63397216796875, -20.640356063842773
686,1243193975,0.20688559,0.5460243,-0.04074218,0.8107997,12.368346214294434,3.221003770828247,11.853360176086426,-121.83174133300781,-105.3143081665039, -47.22624206542969
687,1243210642,0.2182124,0.56084645,-0.05481055,0.7967626,14.4330415725708,-1.0044796466827393,-7.164854049682617,-103.32731628417969,-154.8135986328125, -33.98820495605469
688,1243227309,0.22599506,0.57866514,-0.06263553,0.7811207,17.235979080200195,1.5444397926330566,-2.238025665283203,-51.5731315612793,-169.24607849121094, -42.20995330810547
689,1243243976,0.22651295,0.60020775,-0.051808447,0.76534873,8.654749870300293,12.070219039916992,-2.6571857929229736,83.23099517822266,-163.8292694091797, -79.23241424560547
690,1243260643,0.2466948,0.61602724,-0.0645164,0.74531204,10.96909236907959,10.281578063964844,-2.7869551181793213,-132.26470947265625,-180.93336486816406, -90.05644226074219
691,1243277310,0.26126677,0.62896144,-0.07662425,0.72820055,11.312350273132324,-0.6429191827774048,-3.4496657848358154,-109.04212188720703,-155.1849822998047, -57.47678756713867
692,1243293977,0.26495296,0.6415721,-0.077354856,0.7156826,9.769865989685059,0.5099986791610718,-2.6671504974365234,-3.152230978012085,-118.94373321533203, -43.77364730834961
693,1243310644,0.2596623,0.6548617,-0.068825014,0.7063957,12.182577133178711,0.21505694091320038,-2.380927324295044,84.97010040283203,-95.9079360961914, -34.96226119995117
