PacketCounter,SampleTimeFine,Quat_W,Quat_X,Quat_Y,Quat_Z,Acc_X,Acc_Y,Acc_Z,Gyr_X,Gyr_Y,Gyr_Z 
1,1220672953,0.48467752,0.49501112,-0.5525057,0.46345365,-0.5449485778808594,0.09786829352378845,-0.00048119411803781986,0.06956048309803009,0.0026658764109015465, 0.04161157086491585
2,1220689620,0.4848232,0.49494362,-0.5526102,0.46324873,9.763258934020996,-0.3101292550563812,-0.9814347624778748,-1.7937211990356445,0.026425901800394058, -0.1704268902540207
3,1220706287,0.48499754,0.4948532,-0.552679,0.4630808,9.762673377990723,-0.28452926874160767,-1.0078754425048828,-1.7798137664794922,-0.06501784175634384, -0.12181401252746582
4,1220722954,0.4852027,0.49481463,-0.55278224,0.4627837,9.770861625671387,-0.27967342734336853,-1.0230278968811035,-1.7514349222183228,0.09670715779066086, -0.04506554827094078
5,1220739621,0.4853274,0.49485803,-0.5528681,0.462504,9.783705711364746,-0.3096184730529785,-0.9832943081855774,-1.795616865158081,0.13657332956790924, 0.08285067975521088
6,1220756288,0.48545605,0.4948087,-0.55295354,0.4623195,9.781518936157227,-0.3249224126338959,-0.9814789295196533,-1.6864171028137207,0.08432341367006302, 0.06654819846153259
7,1220772955,0.48558885,0.49471053,-0.55305,0.4621698,9.783747673034668,-0.3093903064727783,-0.9814688563346863,-1.7939519882202148,0.010379546321928501, -0.13611871004104614
8,1220789622,0.48569384,0.49462044,-0.55311,0.46208388,9.78630256652832,-0.3016950488090515,-0.9700616598129272,-1.846906065940857,0.08657731860876083, -0.02504921704530716
9,1220806289,0.4859106,0.49442288,-0.5532607,0.46188712,9.772478103637695,-0.3213861882686615,-0.9830029010772705,-1.9140111207962036,-0.02054138295352459, -0.16139841079711914
10,1220822956,0.486067,0.49428695,-0.5533785,0.46172673,9.775964736938477,-0.3276623487472534,-0.9619273543357849,-1.9151252508163452,-0.16554765403270721, -0.2526051998138428
11,1220839623,0.4862212,0.49415928,-0.5534851,0.46157333,9.773334503173828,-0.31288522481918335,-0.9563735723495483,-1.8877966403961182,-0.22088390588760376, -0.38436976075172424
12,1220856290,0.4863797,0.4940487,-0.55358523,0.46140468,9.768279075622559,-0.3306884765625,-0.9572708010673523,-1.902306079864502,-0.3487168252468109, -0.5265202522277832
13,1220872957,0.48647967,0.49403447,-0.55361605,0.46127746,9.765689849853516,-0.3293980062007904,-0.985733151435852,-1.934885859489441,-0.4977572560310364, -0.7677919864654541
14,1220889624,0.48657724,0.49401706,-0.55366796,0.46113098,9.775341987609863,-0.3066582977771759,-0.9930238723754883,-1.903907299041748,-0.5562053918838501, -0.7899084687232971
15,1220906291,0.4867799,0.49388936,-0.55381346,0.46087888,9.78792667388916,-0.28598663210868835,-1.011736512184143,-1.9296607971191406,-0.4455585479736328, -0.8397124409675598
16,1220922958,0.48689705,0.49384838,-0.5539158,0.46067613,9.788175582885742,-0.2792726159095764,-0.9834823608398438,-1.8587391376495361,-0.6171251535415649, -0.7194095253944397
17,1220939625,0.4870218,0.49381766,-0.5539991,0.46047702,9.79344654083252,-0.30302050709724426,-1.0001524686813354,-1.8239442110061646,-0.5361249446868896, -0.7663702964782715
18,1220956292,0.48723274,0.49364668,-0.55418205,0.46021685,9.790392875671387,-0.271392285823822,-1.0110970735549927,-1.7129261493682861,-0.31379398703575134, -0.5162239670753479
19,1220972959,0.4874271,0.49347124,-0.5543638,0.4599804,9.78571891784668,-0.27734750509262085,-1.0076371431350708,-1.8199615478515625,-0.22974589467048645, -0.29765796661376953
20,1220989626,0.48754472,0.49337745,-0.55446935,0.45982915,9.751415252685547,-0.31877201795578003,-1.0110514163970947,-1.7541115283966064,-0.17990362644195557, -0.20773181319236755
21,1221006293,0.4876582,0.49329454,-0.5545837,0.45965955,9.747634887695312,-0.2859385311603546,-0.9866195321083069,-1.63045334815979,-0.29993754625320435, -0.32055577635765076
22,1221022960,0.4878838,0.49307936,-0.5548225,0.45936283,9.758237838745117,-0.2996269762516022,-0.9770573973655701,-1.6539145708084106,-0.35757893323898315, -0.33646124601364136
23,1221039627,0.48815635,0.492837,-0.55509174,0.45900807,9.765249252319336,-0.30113518238067627,-0.9982191324234009,-1.8128026723861694,-0.4198433458805084, -0.5220124125480652
24,1221056294,0.48826882,0.49278265,-0.55519307,0.45882413,9.773626327514648,-0.2954903542995453,-1.0086777210235596,-1.6880691051483154,-0.4125309884548187, -0.5085657835006714
25,1221072961,0.4883867,0.4927177,-0.55532515,0.45860854,9.76935863494873,-0.2838277816772461,-1.014363169670105,-1.7696453332901,-0.5623652338981628, -0.5080662965774536
26,1221089628,0.48839945,0.49276984,-0.55534345,0.4585169,9.779071807861328,-0.2750893831253052,-0.9922417998313904,-1.792824625968933,-0.47290000319480896, -0.42003539204597473
27,1221106295,0.4883691,0.49285376,-0.5553308,0.45847422,9.784293174743652,-0.2813328206539154,-1.0130661725997925,-1.7829509973526,-0.4606955647468567, -0.27992117404937744
28,1221122962,0.48857683,0.49265245,-0.5555706,0.45817855,9.776830673217773,-0.2930664122104645,-1.0036991834640503,-1.6651328802108765,-0.45203858613967896, -0.30636635422706604
29,1221139629,0.48874196,0.49249402,-0.55576336,0.457939,9.788619041442871,-0.2823074162006378,-1.0021939277648926,-1.666874647140503,-0.38387036323547363, -0.2432950735092163
30,1221156296,0.4888566,0.49238726,-0.55591947,0.45774198,9.76360034942627,-0.28239503502845764,-1.0224717855453491,-1.7094300985336304,-0.45609816908836365, -0.19169826805591583
31,1221172963,0.4889781,0.49227807,-0.55606085,0.45755798,9.769890785217285,-0.2991700768470764,-1.0173585414886475,-1.7183432579040527,-0.31686756014823914, -0.20045781135559082
32,1221189630,0.48903307,0.49223524,-0.55616033,0.4574242,9.772647857666016,-0.2707350254058838,-1.0034215450286865,-1.6953814029693604,-0.4434966742992401, -0.14764438569545746
33,1221206297,0.48906344,0.4922129,-0.55625486,0.4573009,9.790226936340332,-0.3012997806072235,-1.004817008972168,-1.7160638570785522,-0.5469847917556763, -0.09881380200386047
34,1221222964,0.4892186,0.492052,-0.556469,0.45704758,9.777997016906738,-0.2993426024913788,-1.0072855949401855,-1.6283658742904663,-0.5310280919075012, -0.19304293394088745
35,1221239631,0.4892483,0.49205318,-0.55655223,0.45691293,9.767132759094238,-0.3188222646713257,-1.032806158065796,-1.5528852939605713,-0.6324159502983093, -0.2857096791267395
36,1221256298,0.48925552,0.49208623,-0.5566053,0.45680514,9.75960636138916,-0.2920035123825073,-1.0308055877685547,-1.5636041164398193,-0.6074947714805603, -0.3206581771373749
37,1221272965,0.48927847,0.4921129,-0.55666983,0.45667315,9.775812149047852,-0.3055451810359955,-1.0158599615097046,-1.7475415468215942,-0.642533004283905, -0.3906448781490326
38,1221289632,0.48934317,0.4920724,-0.55678624,0.45650554,9.779814720153809,-0.3034088611602783,-1.007612943649292,-1.6573338508605957,-0.5888872742652893, -0.2947893738746643
39,1221306299,0.48940518,0.49203995,-0.55689836,0.45633724,9.775498390197754,-0.2930585443973541,-1.0209630727767944,-1.6511740684509277,-0.615818977355957, -0.333733469247818
40,1221322966,0.48946795,0.49201807,-0.5569905,0.45618105,9.777090072631836,-0.3031485676765442,-1.0312974452972412,-1.7066253423690796,-0.5333971977233887, -0.3836013972759247
41,1221339633,0.48956499,0.49193728,-0.5571508,0.45596817,9.768988609313965,-0.2816260755062103,-1.0273184776306152,-1.6199393272399902,-0.6579902768135071, -0.3179304599761963
42,1221356300,0.48967916,0.49182817,-0.5573205,0.45575598,9.749892234802246,-0.2816261053085327,-1.0368201732635498,-1.5613118410110474,-0.5385966300964355, -0.251516729593277
43,1221372967,0.48978943,0.49172282,-0.55747336,0.45556402,9.777586936950684,-0.27059364318847656,-1.0329231023788452,-1.6280328035354614,-0.4312666654586792, -0.21647855639457703
44,1221389634,0.48981833,0.49171382,-0.5575504,0.4554486,9.772563934326172,-0.28831785917282104,-1.029867172241211,-1.6327584981918335,-0.4997806251049042, -0.2053242325782776
45,1221406301,0.48984396,0.49170658,-0.5576189,0.45534477,9.780285835266113,-0.29315853118896484,-1.0352047681808472,-1.5752577781677246,-0.4501175880432129, -0.18843261897563934
46,1221422968,0.48992348,0.49162757,-0.5577608,0.45517063,9.769529342651367,-0.3003910779953003,-1.0338598489761353,-1.673201084136963,-0.5244969725608826, -0.1602458655834198
47,1221439635,0.4899848,0.49157545,-0.5578687,0.45502865,9.764744758605957,-0.29462775588035583,-1.0333527326583862,-1.5797017812728882,-0.44803017377853394, -0.1853463053703308
48,1221456302,0.49005866,0.49151498,-0.5580027,0.45485017,9.767373085021973,-0.2939096689224243,-1.0247066020965576,-1.5701864957809448,-0.5932541489601135, -0.26136475801467896
49,1221472969,0.49015117,0.4914599,-0.5581224,0.4546631,9.76391887664795,-0.30249083042144775,-1.034546971321106,-1.574899435043335,-0.5227424502372742, -0.4217771589756012
50,1221489636,0.49026728,0.49138078,-0.55826855,0.454444,9.782120704650879,-0.30582094192504883,-1.0445972681045532,-1.6881073713302612,-0.561814546585083, -0.4528581500053406
51,1221506303,0.49035963,0.49132544,-0.5583817,0.45426503,9.771053314208984,-0.2829526960849762,-1.0459142923355103,-1.7375398874282837,-0.46726518869400024, -0.40026241540908813
52,1221522970,0.49035034,0.49136695,-0.558413,0.45419174,9.765268325805664,-0.27660316228866577,-1.0356345176696777,-1.7411128282546997,-0.49218642711639404, -0.2304118424654007
53,1221539637,0.49044603,0.4912888,-0.5585397,0.4540173,9.77126693725586,-0.30718523263931274,-1.0419672727584839,-1.7346842288970947,-0.4167954921722412, -0.2716483175754547
54,1221556304,0.49054006,0.4912027,-0.5586761,0.45384073,9.796673774719238,-0.284064382314682,-1.065294861793518,-1.5850162506103516,-0.44436755776405334, -0.23728883266448975
55,1221572971,0.49066204,0.49106786,-0.5588288,0.45366687,9.78712272644043,-0.2831060290336609,-1.0213375091552734,-1.7833226919174194,-0.22966909408569336, -0.0832412838935852
56,1221589638,0.49073803,0.49098086,-0.5589376,0.45354486,9.744624137878418,-0.30013787746429443,-1.0483083724975586,-1.8579577207565308,-0.2189629226922989, -0.018607623875141144
57,1221606305,0.49091482,0.49079418,-0.55912715,0.45332196,9.749872207641602,-0.30883410573005676,-1.048404574394226,-1.6882100105285645,-0.17068304121494293, -0.1807360202074051
58,1221622972,0.49099973,0.4907327,-0.5592047,0.45320064,9.760485649108887,-0.29406145215034485,-1.0293867588043213,-1.8073341846466064,-0.15249799191951752, -0.24302606284618378
59,1221639639,0.49111,0.4906315,-0.5593336,0.45303172,9.75775146484375,-0.28399696946144104,-1.0564231872558594,-1.9579753875732422,-0.27807703614234924, -0.2030702531337738
60,1221656306,0.4912371,0.49052188,-0.5594556,0.45286205,9.780379295349121,-0.2997112274169922,-1.0450584888458252,-1.975110411643982,-0.1658550351858139, -0.25461581349372864
61,1221672973,0.49136558,0.49040163,-0.55958045,0.4526986,9.773127555847168,-0.2966485321521759,-1.047829270362854,-1.904188632965088,-0.1199442595243454, -0.19983026385307312
62,1221689640,0.4914974,0.49029446,-0.5596931,0.4525324,9.76229476928711,-0.30558961629867554,-1.0670576095581055,-1.8796006441116333,-0.11473207920789719, -0.30938857793807983
63,1221706307,0.49166483,0.49013528,-0.559842,0.45233846,9.7691650390625,-0.30703461170196533,-1.0434106588363647,-1.8152868747711182,-0.04387454688549042, -0.25735634565353394
64,1221722974,0.49176437,0.49006575,-0.559932,0.45219427,9.779356956481934,-0.2915671765804291,-1.0537198781967163,-1.7464147806167603,-0.19725622236728668, -0.3354111313819885
65,1221739641,0.49192822,0.48990467,-0.5600895,0.45199546,9.787646293640137,-0.2763501703739166,-1.0557037591934204,-1.7108001708984375,-0.10156715661287308, -0.24676553905010223
66,1221756308,0.49202576,0.4898115,-0.56017166,0.4518885,9.788349151611328,-0.2853662371635437,-1.0303295850753784,-1.681166410446167,0.021713167428970337, -0.13561925292015076
67,1221772975,0.4920492,0.48982462,-0.5601651,0.45185697,9.775362014770508,-0.3105551302433014,-1.0639005899429321,-1.7703756093978882,-0.012191644869744778, -0.22158828377723694
68,1221789642,0.4921351,0.48976457,-0.5602291,0.451749,9.761804580688477,-0.2956208884716034,-1.01687753200531,-1.5552797317504883,-0.06757909804582596, -0.2878226935863495
69,1221806309,0.49219656,0.4897358,-0.5602913,0.4516361,9.75102710723877,-0.30710887908935547,-1.0218878984451294,-1.6111668348312378,-0.2682289481163025, -0.3319021463394165
70,1221822976,0.4922957,0.48969495,-0.56035876,0.45148867,9.773388862609863,-0.30021342635154724,-1.0605651140213013,-1.7436869144439697,-0.2273639291524887, -0.5252140164375305
71,1221839643,0.49238575,0.48962966,-0.5604417,0.45135847,9.761702537536621,-0.2858582139015198,-1.0368717908859253,-1.7195855379104614,-0.18140195310115814, -0.3011029064655304
72,1221856310,0.49254614,0.489489,-0.56059414,0.4511464,9.764280319213867,-0.28829890489578247,-1.0447285175323486,-1.8179893493652344,-0.21149684488773346, -0.3737020790576935
73,1221872977,0.49268308,0.48938397,-0.5607306,0.45094132,9.763531684875488,-0.306282103061676,-1.091941475868225,-1.786831259727478,-0.32855963706970215, -0.4427794814109802
74,1221889644,0.49284726,0.48925343,-0.56087965,0.45071822,9.763213157653809,-0.27661651372909546,-1.0437637567520142,-1.7688895463943481,-0.25094038248062134, -0.4844769537448883
75,1221906311,0.49294046,0.48919985,-0.56097394,0.45055702,9.77463150024414,-0.27400875091552734,-1.051586627960205,-1.769261121749878,-0.3491395115852356, -0.43711912631988525
76,1221922978,0.49299243,0.48918828,-0.5610137,0.45046312,9.7786283493042,-0.28378233313560486,-1.0557219982147217,-1.6502134799957275,-0.21386605501174927, -0.3633289933204651
77,1221939645,0.49308822,0.48911324,-0.56111985,0.45030755,9.780191421508789,-0.2976418435573578,-1.0639857053756714,-1.6524674892425537,-0.2996174097061157, -0.3288542628288269
78,1221956312,0.49317324,0.48905137,-0.561224,0.4501519,9.78207778930664,-0.3011283874511719,-1.0441352128982544,-1.6046998500823975,-0.37399667501449585, -0.35226428508758545
79,1221972979,0.4932896,0.48898578,-0.56132734,0.44996673,9.768610954284668,-0.3101957142353058,-1.0466187000274658,-1.6288524866104126,-0.3445932865142822, -0.5629927515983582
80,1221989646,0.49338776,0.488955,-0.5613979,0.44980454,9.77896499633789,-0.28531762957572937,-1.0677281618118286,-1.6711775064468384,-0.32594725489616394, -0.6327873468399048
81,1222006313,0.49350715,0.4888867,-0.5615078,0.44961062,9.766495704650879,-0.27663466334342957,-1.0488797426223755,-1.8490831851959229,-0.3738941252231598, -0.5600728392601013
82,1222022980,0.4936389,0.48879853,-0.5616294,0.4494098,9.772910118103027,-0.29930344223976135,-1.0383845567703247,-1.9752384424209595,-0.32890546321868896, -0.512612521648407
83,1222039647,0.49375448,0.4887397,-0.5617414,0.44920698,9.767402648925781,-0.3033950626850128,-1.069451928138733,-1.961356520652771,-0.455278605222702, -0.6002079844474792
84,1222056314,0.49387184,0.48870125,-0.56183285,0.44900525,9.788904190063477,-0.2692735195159912,-1.052551031112671,-1.7465680837631226,-0.4392705261707306, -0.7632070779800415
85,1222072981,0.4940017,0.48864,-0.5619276,0.4488103,9.762020111083984,-0.30952879786491394,-1.0491596460342407,-1.8522847890853882,-0.3098752498626709, -0.6802092790603638
86,1222089648,0.49415112,0.48855168,-0.56205684,0.44858024,9.768182754516602,-0.30254822969436646,-1.0705829858779907,-1.9163421392440796,-0.3946148455142975, -0.6815283298492432
87,1222106315,0.49437025,0.48836792,-0.5622557,0.4482895,9.774106979370117,-0.2609594166278839,-1.0814179182052612,-2.022571086883545,-0.2899101674556732, -0.6029102206230164
88,1222122982,0.49453264,0.48824796,-0.5623816,0.44808322,9.763469696044922,-0.26315441727638245,-1.0587811470031738,-2.0937230587005615,-0.15139667689800262, -0.5205525159835815
89,1222139649,0.4946874,0.48812625,-0.5625115,0.44788158,9.770137786865234,-0.286349892616272,-1.0619841814041138,-2.109039545059204,-0.17316748201847076, -0.4579935371875763
90,1222156316,0.49479592,0.48806852,-0.5625798,0.4477389,9.773693084716797,-0.2902461290359497,-1.0790890455245972,-1.9091448783874512,-0.13020214438438416, -0.5069777965545654
91,1222172983,0.49494144,0.48795405,-0.5626793,0.44757786,9.805708885192871,-0.25336945056915283,-1.0425505638122559,-1.8253016471862793,0.009355038404464722, -0.4261696934700012
92,1222189650,0.4949934,0.48794076,-0.5626913,0.4475201,9.770197868347168,-0.2829747200012207,-1.0755492448806763,-2.0668039321899414,0.009764840826392174, -0.2995917499065399
93,1222206317,0.49511045,0.48785737,-0.5627665,0.4473868,9.724709510803223,-0.2830062210559845,-1.0834338665008545,-1.9655952453613281,-0.012601446360349655, -0.3918358385562897
94,1222222984,0.49527544,0.48772085,-0.5628762,0.44721466,9.750447273254395,-0.28567609190940857,-1.0780657529830933,-1.9200174808502197,0.07702378183603287, -0.4244920611381531
95,1222239651,0.4954055,0.4876211,-0.5629624,0.44707093,9.757974624633789,-0.2888510823249817,-1.0736830234527588,-2.1001391410827637,0.017397426068782806, -0.3793112635612488
96,1222256318,0.49556828,0.48748064,-0.5630857,0.44688854,9.766839027404785,-0.2876065671443939,-1.046820878982544,-2.059670925140381,0.00284941284917295, -0.3942562937736511
97,1222272985,0.49571753,0.4873674,-0.56320477,0.44669628,9.775959968566895,-0.28725486993789673,-1.0435937643051147,-2.166475534439087,-0.15010321140289307, -0.48505330085754395
98,1222289652,0.49593,0.48718077,-0.56339014,0.44643041,9.778684616088867,-0.2908603250980377,-1.0501735210418701,-1.9637510776519775,-0.1777777224779129, -0.5554625391960144
99,1222306319,0.49593866,0.48724553,-0.56335574,0.44639343,9.768014907836914,-0.26775646209716797,-1.0654675960540771,-1.8271586894989014,-0.16598308086395264, -0.537239134311676
100,1222322986,0.49597612,0.48727906,-0.56335294,0.4463187,9.767394065856934,-0.2712096571922302,-1.092942714691162,-1.7356573343276978,-0.20372340083122253, -0.5892201662063599
101,1222339653,0.49606532,0.4872311,-0.5634108,0.4461989,9.771384239196777,-0.2695515751838684,-1.074640154838562,-1.7429827451705933,-0.12513086199760437, -0.47415515780448914
102,1222356320,0.4961587,0.4871589,-0.5634882,0.44607627,9.777276992797852,-0.2569921612739563,-1.0928802490234375,-1.8525022268295288,-0.11150486767292023, -0.34733375906944275
103,1222372987,0.49623322,0.48711246,-0.56352973,0.4459916,9.751368522644043,-0.2705219089984894,-1.0712467432022095,-1.9300447702407837,-0.003995581064373255, -0.3278040885925293
104,1222389654,0.49635166,0.48701605,-0.5636222,0.44584826,9.762853622436523,-0.28720489144325256,-1.0590814352035522,-1.8235599994659424,-0.06610636413097382, -0.3908241391181946
105,1222406321,0.4964373,0.48695642,-0.56368405,0.4457396,9.776222229003906,-0.25862014293670654,-1.0840532779693604,-1.633001685142517,-0.08107700943946838, -0.392104834318161
106,1222422988,0.4964943,0.48692563,-0.5637126,0.4456737,9.774787902832031,-0.26357731223106384,-1.0719658136367798,-1.7870107889175415,-0.011640972457826138, -0.3155100643634796
107,1222439655,0.49661243,0.48681405,-0.5637982,0.44555566,9.770103454589844,-0.2687719166278839,-1.0736721754074097,-1.8187448978424072,0.08793479949235916, -0.2705981731414795
108,1222456322,0.49673077,0.48670086,-0.5638967,0.4454228,9.770515441894531,-0.2751065790653229,-1.0655509233474731,-1.8209476470947266,-0.0018441141583025455, -0.28738728165626526
109,1222472989,0.4968075,0.48663357,-0.5639665,0.44532242,9.75483226776123,-0.27979379892349243,-1.0879708528518677,-1.8542569875717163,-0.0876082330942154, -0.26646173000335693
110,1222489656,0.4969103,0.48655388,-0.5640465,0.4451935,9.763994216918945,-0.2798765003681183,-1.0828269720077515,-1.8394527435302734,-0.08340775221586227, -0.39704805612564087
111,1222506323,0.49700192,0.48649216,-0.5641041,0.4450854,9.774856567382812,-0.25896546244621277,-1.0735238790512085,-1.7918130159378052,-0.031234685331583023, -0.41874200105667114
112,1222522990,0.49712893,0.48638165,-0.56420237,0.4449399,9.769851684570312,-0.2821822166442871,-1.059241533279419,-1.762422800064087,-0.01988826133310795, -0.3964974284172058
113,1222539657,0.49718714,0.48635224,-0.5642364,0.44486392,9.786444664001465,-0.2550218403339386,-1.0609514713287354,-1.791608214378357,-0.06522274017333984, -0.3716530501842499
114,1222556324,0.497227,0.4863415,-0.56425834,0.44480306,9.75528335571289,-0.2627488970756531,-1.069982886314392,-1.8384664058685303,-0.0977124348282814, -0.3501127362251282
115,1222572991,0.49727073,0.48632276,-0.56429297,0.44473088,9.764362335205078,-0.27188384532928467,-1.06521475315094,-1.677452802658081,-0.1456466168165207, -0.36094701290130615
116,1222589658,0.49730825,0.48631886,-0.5643235,0.4446545,9.756522178649902,-0.28748661279678345,-1.0701020956039429,-1.66971755027771,-0.21558210253715515, -0.42437684535980225
117,1222606325,0.49735,0.48630625,-0.56435806,0.44457766,9.76246166229248,-0.27406537532806396,-1.0675514936447144,-1.6928843259811401,-0.18807406723499298, -0.40122297406196594
118,1222622992,0.49741083,0.4862757,-0.56439906,0.44449097,9.75763988494873,-0.2655145525932312,-1.0681170225143433,-1.6862633228302002,-0.11760071665048599, -0.4280010461807251
119,1222639659,0.49752158,0.48616827,-0.5645039,0.44435135,9.766862869262695,-0.27034199237823486,-1.1094635725021362,-1.7163196802139282,-0.09990233182907104, -0.34140443801879883
120,1222656326,0.49761277,0.486083,-0.5645893,0.44423398,9.773246765136719,-0.2564941346645355,-1.068302869796753,-1.7993049621582031,-0.0933326706290245, -0.3194287419319153
121,1222672993,0.4976872,0.48601666,-0.5646547,0.44414005,9.766791343688965,-0.26777493953704834,-1.076613426208496,-1.7424321174621582,-0.06679792702198029, -0.3070962727069855
122,1222689660,0.4977983,0.48591733,-0.5647666,0.44398198,9.769246101379395,-0.2622232139110565,-1.0898090600967407,-1.6732522249221802,-0.2091020941734314, -0.4354671537876129
123,1222706327,0.49786994,0.48587233,-0.5648251,0.4438764,9.779498100280762,-0.27917587757110596,-1.0620388984680176,-1.5291935205459595,-0.16022025048732758, -0.4684562683105469
124,1222722994,0.49795005,0.4858099,-0.56489795,0.44376224,9.767452239990234,-0.25869137048721313,-1.0689867734909058,-1.6125116348266602,-0.15348412096500397, -0.4224174916744232
125,1222739661,0.497996,0.4857844,-0.5649431,0.44368112,9.764187812805176,-0.2578134834766388,-1.0648517608642578,-1.7022457122802734,-0.18640924990177155, -0.38319161534309387
126,1222756328,0.4980559,0.48572916,-0.5650012,0.44360042,9.737091064453125,-0.2498924732208252,-1.0933330059051514,-1.6825110912322998,-0.08835100382566452, -0.2922409176826477
127,1222772995,0.49808505,0.4857082,-0.5650313,0.44355223,9.765677452087402,-0.2798006534576416,-1.0789244174957275,-1.676287293434143,-0.09962060302495956, -0.2683570683002472
128,1222789662,0.49810275,0.48570263,-0.56504786,0.4435174,9.772006034851074,-0.25449997186660767,-1.0811494588851929,-1.487457513809204,-0.10031213611364365, -0.29831111431121826
129,1222806329,0.49817768,0.4856114,-0.56513095,0.44342718,9.761398315429688,-0.27290821075439453,-1.0644078254699707,-1.5976817607879639,-0.04322143271565437, -0.19872894883155823
130,1222822996,0.49823737,0.48554462,-0.5651805,0.4433702,9.748516082763672,-0.2706303000450134,-1.0985047817230225,-1.7986135482788086,0.057833481580019, -0.1863452047109604
131,1222839663,0.49833766,0.4854137,-0.5652614,0.44329754,9.742023468017578,-0.2478458136320114,-1.0850316286087036,-1.7975378036499023,0.24377529323101044, -0.07121611386537552
132,1222856330,0.49845427,0.4852482,-0.5653649,0.44321582,9.73934555053711,-0.27522337436676025,-1.0624772310256958,-1.8790371417999268,0.3018648326396942, 0.033123619854450226
133,1222872997,0.49854612,0.48513505,-0.56544787,0.44313028,9.727029800415039,-0.2954035997390747,-1.0625869035720825,-1.6767610311508179,0.10517215728759766, -0.16857001185417175
134,1222889664,0.498606,0.48509997,-0.5654679,0.4430758,9.752077102661133,-0.3136945068836212,-1.0653742551803589,-1.4824247360229492,0.06886614859104156, -0.42946094274520874
135,1222906331,0.4986296,0.48511496,-0.5654665,0.44303468,9.749194145202637,-0.2784617245197296,-1.0761940479278564,-1.4043828248977661,-0.10154155641794205, -0.5090012550354004
136,1222922998,0.4987453,0.48500028,-0.5655662,0.4429028,9.751082420349121,-0.23248903453350067,-1.069175362586975,-1.472627878189087,-0.021373799070715904, -0.41222360730171204
137,1222939665,0.49872103,0.48502266,-0.56555074,0.44292527,9.782903671264648,-0.23604100942611694,-1.0761030912399292,-1.580892562866211,-0.03884165361523628, -0.15454703569412231
138,1222956332,0.49874085,0.48497972,-0.5655887,0.44290155,9.839681625366211,-0.25373852252960205,-1.0437524318695068,-1.475035309791565,-0.020426128059625626, -0.10770139843225479
139,1222972999,0.49877152,0.4849244,-0.5656417,0.44286,9.84145736694336,-0.2571025788784027,-1.0746114253997803,-1.4683120250701904,-0.05837134271860123, -0.12806349992752075
140,1222989666,0.49877784,0.48486948,-0.56566215,0.44288665,9.787164688110352,-0.2398875206708908,-1.0834723711013794,-1.3770923614501953,0.19020628929138184, 0.10658085346221924
141,1223006333,0.49874723,0.48483804,-0.56569105,0.44291875,9.749754905700684,-0.25124818086624146,-1.0464421510696411,-1.1686434745788574,-0.035512007772922516, 0.1716243028640747
142,1223023000,0.49870214,0.48484504,-0.56568795,0.44296592,9.75806999206543,-0.2838212549686432,-1.0689276456832886,-1.0008418560028076,-0.04780610278248787, 0.028308436274528503
143,1223039667,0.49874333,0.48476547,-0.56576574,0.44290715,9.75808334350586,-0.2940270006656647,-1.072373390197754,-1.2269378900527954,-0.0977124497294426, -0.10948147624731064
144,1223056334,0.4987935,0.48471266,-0.5657906,0.44287673,9.716805458068848,-0.28746142983436584,-1.1264652013778687,-1.4788131713867188,0.1422465294599533, -0.26036587357521057
145,1223073001,0.49883702,0.484695,-0.5657636,0.44288176,9.719195365905762,-0.2836124897003174,-1.1160948276519775,-1.4275109767913818,0.3150938153266907, -0.39029914140701294
146,1223089668,0.49893528,0.48464447,-0.56573397,0.44286397,9.736559867858887,-0.2759633958339691,-1.0947688817977905,-1.6281479597091675,0.5607964396476746, -0.5392625331878662
147,1223106335,0.49907446,0.48456344,-0.5657191,0.44281483,9.762210845947266,-0.2974708378314972,-1.0826129913330078,-1.5942881107330322,0.6512860655784607, -0.656722366809845
148,1223123002,0.49919733,0.4845167,-0.5656719,0.4427879,9.789262771606445,-0.2773940861225128,-1.0588672161102295,-1.506411075592041,0.6731850504875183, -0.747980535030365
149,1223139669,0.49932125,0.48445866,-0.56562877,0.44276652,9.811745643615723,-0.2639847695827484,-1.0617746114730835,-1.5561505556106567,0.7154585719108582, -0.676059901714325
150,1223156336,0.49946702,0.48438537,-0.5655715,0.44275558,9.791295051574707,-0.250294953584671,-1.0965944528579712,-1.6683601140975952,0.929965078830719, -0.6901981830596924
151,1223173003,0.4996004,0.48428446,-0.5655094,0.44279495,9.789616584777832,-0.21304653584957123,-1.0609822273254395,-1.7160125970840454,1.1553568840026855, -0.3692839443683624
152,1223189670,0.49970368,0.48420766,-0.56540614,0.4428941,9.765299797058105,-0.25326424837112427,-1.0492925643920898,-1.9724467992782593,1.318381667137146, -0.2157229781150818
153,1223206337,0.49987972,0.4840458,-0.5653662,0.44292322,9.754325866699219,-0.2820466458797455,-1.068131446838379,-1.8135968446731567,1.388880729675293, -0.2659494876861572
154,1223223004,0.50009763,0.48384595,-0.56535107,0.4429149,9.788321495056152,-0.26416391134262085,-1.071682095527649,-1.658089518547058,1.4471367597579956, -0.3661079704761505
155,1223239671,0.5002549,0.48371875,-0.5652688,0.44298103,9.80443000793457,-0.26605066657066345,-1.0512831211090088,-1.580867052078247,1.4845951795578003, -0.340175062417984
156,1223256338,0.5004372,0.483538,-0.5652118,0.4430456,9.778694152832031,-0.2380622923374176,-1.0504733324050903,-1.4679021835327148,1.6456480026245117, -0.18438583612442017
157,1223273005,0.5005856,0.48341882,-0.5650871,0.4431667,9.798388481140137,-0.2731478214263916,-1.0045851469039917,-1.8907551765441895,1.7663990259170532, -0.2262497842311859
158,1223289672,0.5007777,0.4832449,-0.5650075,0.443241,9.724376678466797,-0.23271675407886505,-1.04490327835083,-2.117926836013794,1.7823686599731445, -0.20724517107009888
159,1223306339,0.5009325,0.48310918,-0.5648976,0.44335407,9.745365142822266,-0.2694122791290283,-1.021690845489502,-2.0918657779693604,1.7629027366638184, -0.16066846251487732
160,1223323006,0.50112754,0.48294616,-0.56483614,0.44338942,9.805421829223633,-0.3190765082836151,-1.0002862215042114,-1.805234432220459,1.5602681636810303, -0.38990211486816406
161,1223339673,0.5012406,0.48290023,-0.56471914,0.44346097,9.781678199768066,-0.2639642655849457,-0.9954023361206055,-1.401078701019287,1.2054169178009033, -0.5999518632888794
162,1223356340,0.5013269,0.48290646,-0.56462234,0.44348,9.733500480651855,-0.3030412793159485,-0.9945313930511475,-1.3426049947738647,0.6961084008216858, -0.8438104391098022
163,1223373007,0.5014671,0.4829202,-0.5645827,0.44335696,9.715971946716309,-0.3884084224700928,-0.9665269255638123,-1.0150057077407837,0.1915125697851181, -1.469323754310608
164,1223389674,0.5015354,0.48312598,-0.5644321,0.44324696,9.763809204101562,-0.31590768694877625,-1.020513892173767,-0.9179207682609558,-0.23036064207553864, -2.205676317214966
165,1223406341,0.50169283,0.4832362,-0.56436735,0.443031,9.793147087097168,-0.2140129953622818,-1.031774640083313,-1.3438087701797485,-0.2553201913833618, -2.2825140953063965
166,1223423008,0.5018707,0.48331845,-0.5643394,0.44277567,9.803845405578613,-0.2496580332517624,-0.9529728293418884,-1.9821923971176147,-0.3448621928691864, -2.2293293476104736
167,1223439675,0.50203574,0.48344162,-0.56428605,0.44252172,9.801339149475098,-0.22137470543384552,-0.9678963422775269,-2.7281877994537354,-0.4164752662181854, -2.325876235961914
168,1223456342,0.50223064,0.4835223,-0.5642795,0.44222078,9.774951934814453,-0.2050190418958664,-1.005212664604187,-3.0706043243408203,-0.496322900056839, -2.283090353012085
169,1223473009,0.5023698,0.48350596,-0.5643238,0.44202414,9.740131378173828,-0.33395180106163025,-1.083150863647461,-2.491731643676758,-0.25433412194252014, -1.2589154243469238
170,1223489676,0.50241464,0.48372722,-0.5641707,0.44192654,9.744558334350586,-0.07171007990837097,-1.041624665260315,-1.6328481435775757,-0.3116553723812103, -2.08555269241333
171,1223506343,0.50265867,0.48367018,-0.56421965,0.44164875,9.774201393127441,-0.2650413513183594,-1.0237966775894165,-2.599317789077759,-0.014381532557308674, -1.761398196220398
172,1223523010,0.50278705,0.4838019,-0.5640947,0.44151798,9.801514625549316,-0.17768451571464539,-1.0057421922683716,-2.5084307193756104,0.07844529300928116, -2.0028109550476074
173,1223539677,0.5030914,0.48369396,-0.5641618,0.44120383,9.801905632019043,-0.1821134239435196,-1.0695033073425293,-3.04832124710083,0.18836219608783722, -1.8305269479751587
174,1223556344,0.503367,0.4836053,-0.56417286,0.4409723,9.777412414550781,-0.17417632043361664,-1.062390685081482,-3.3346712589263916,0.5000175833702087, -1.6209638118743896
175,1223573011,0.50366366,0.48346075,-0.56420124,0.4407557,9.741385459899902,-0.15244010090827942,-1.0573992729187012,-3.264979124069214,0.7398804426193237, -1.3934333324432373
176,1223589678,0.5039334,0.48331615,-0.56419647,0.44061226,9.724059104919434,-0.18394973874092102,-1.067188024520874,-3.5016276836395264,1.003243088722229, -1.0953015089035034
177,1223606345,0.5042248,0.48311934,-0.5642164,0.44046938,9.7389554977417,-0.18751737475395203,-1.035247802734375,-3.2472803592681885,1.1581742763519287, -0.9359393119812012
178,1223623012,0.50443447,0.4830481,-0.5641449,0.44039866,9.774927139282227,-0.24251432716846466,-0.9551432132720947,-2.67301869392395,1.0263971090316772, -1.1593462228775024
179,1223639679,0.50458485,0.4830454,-0.56403935,0.4403647,9.817319869995117,-0.2168482393026352,-0.9721611738204956,-1.653107762336731,0.8223533630371094, -1.2719266414642334
180,1223656346,0.5048108,0.4829888,-0.5639949,0.4402246,9.82229232788086,-0.17094402015209198,-0.9747549891471863,-2.2780063152313232,0.7069424390792847, -1.502927541732788
181,1223673013,0.5050148,0.48293462,-0.5639615,0.44009277,9.794609069824219,-0.17304155230522156,-1.0203802585601807,-2.245094060897827,0.6025835871696472, -1.375939965248108
182,1223689680,0.5052468,0.48284352,-0.5639474,0.43994454,9.777975082397461,-0.17816972732543945,-0.990792989730835,-2.4264702796936035,0.7003728747367859, -1.3296319246292114
183,1223706347,0.5054686,0.48273683,-0.56395215,0.43980074,9.76654052734375,-0.17440855503082275,-1.0043660402297974,-2.4354989528656006,0.6550384163856506, -1.1681952476501465
184,1223723014,0.5056472,0.48264927,-0.5639435,0.43970257,9.780043601989746,-0.18366962671279907,-0.9964025616645813,-2.066624641418457,0.6292208433151245, -0.993055522441864
185,1223739681,0.5057842,0.48265287,-0.56386065,0.4396475,9.747103691101074,-0.1749884933233261,-1.0143320560455322,-1.9572842121124268,0.599420428276062, -1.2441753149032593
186,1223756348,0.5059213,0.48264876,-0.56379986,0.4395722,9.75794506072998,-0.17267179489135742,-1.0020099878311157,-1.6959450244903564,0.47767046093940735, -1.257737398147583
187,1223773015,0.5059853,0.48271275,-0.56368273,0.4395784,9.770818710327148,-0.14654183387756348,-0.9975166916847229,-1.6103087663650513,0.4603562355041504, -1.1172515153884888
188,1223789682,0.50611085,0.48268995,-0.5636548,0.4394948,9.76561164855957,-0.1475137174129486,-0.9726853370666504,-1.836456298828125,0.3466743230819702, -1.0754899978637695
189,1223806349,0.5061875,0.4827411,-0.56356525,0.43946534,9.765743255615234,-0.17648804187774658,-0.9861173629760742,-1.892547845840454,0.33171647787094116, -1.142800211906433
190,1223823016,0.50628316,0.4827656,-0.563503,0.43940789,9.762923240661621,-0.156074658036232,-0.9882798790931702,-1.7836685180664062,0.29548731446266174, -1.1512396335601807
191,1223839683,0.50632256,0.48281473,-0.56341845,0.43941683,9.758760452270508,-0.17570912837982178,-0.9849755167961121,-1.378475546836853,0.30221065878868103, -0.9027836918830872
192,1223856350,0.5063646,0.48292017,-0.5632995,0.4394052,9.777871131896973,-0.12160193175077438,-0.9552137851715088,-1.6396608352661133,0.19499588012695312, -1.2704282999038696
193,1223873017,0.5064563,0.48295206,-0.56324714,0.43933147,9.795852661132812,-0.15575483441352844,-0.9803152084350586,-1.8399012088775635,0.1664121299982071, -1.196996808052063
194,1223889684,0.5065558,0.48296493,-0.5632123,0.43924746,9.777349472045898,-0.12513433396816254,-0.9975813031196594,-2.0602471828460693,0.15872831642627716, -1.1233218908309937
195,1223906351,0.50662005,0.4830001,-0.5631526,0.43921092,9.778566360473633,-0.13736921548843384,-1.0015610456466675,-2.2455806732177734,0.2019113302230835, -0.9552769064903259
196,1223923018,0.5067418,0.48294657,-0.56314766,0.43913573,9.778722763061523,-0.11628168821334839,-0.9754127860069275,-2.215268135070801,0.3696745038032532, -0.8255741596221924
197,1223939685,0.50680304,0.4829385,-0.5630893,0.43914875,9.782854080200195,-0.1158541589975357,-0.9971281886100769,-2.3862969875335693,0.4819990396499634, -0.5847379565238953
198,1223956352,0.506941,0.48279372,-0.56314206,0.43908107,9.779777526855469,-0.11373171210289001,-0.962900698184967,-2.5176901817321777,0.5314443111419678, -0.32502520084381104
199,1223973019,0.5069906,0.4827385,-0.5631321,0.4390972,9.779112815856934,-0.14482073485851288,-0.9680216908454895,-2.552638530731201,0.4205029308795929, -0.20487599074840546
200,1223989686,0.5070462,0.4826784,-0.56311727,0.43911812,9.757235527038574,-0.14734914898872375,-0.9807842969894409,-2.3419740200042725,0.48838937282562256, -0.22770972549915314
201,1224006353,0.50709957,0.482617,-0.5631101,0.4391333,9.785140037536621,-0.16676118969917297,-1.0053489208221436,-2.081813097000122,0.4374713599681854, -0.2418479323387146
202,1224023020,0.50718564,0.4825085,-0.56310266,0.43916255,9.816865921020508,-0.11331727355718613,-0.9770374894142151,-2.213244676589966,0.7543901205062866, -0.12205732613801956
203,1224039687,0.50724185,0.48242268,-0.56305206,0.43925673,9.784058570861816,-0.12277191877365112,-0.990454375743866,-2.5545976161956787,0.9401974081993103, 0.05315275117754936
204,1224056354,0.5073707,0.48223117,-0.5630964,0.4392615,9.767926216125488,-0.1435345560312271,-1.0001052618026733,-2.348658800125122,0.907669186592102, 0.10195775330066681
205,1224073021,0.50741804,0.48213765,-0.5630636,0.43935162,9.754487991333008,-0.14671087265014648,-0.9918723106384277,-2.04811954498291,0.8534984588623047, 0.09606683999300003
206,1224089688,0.5074877,0.4820287,-0.5630521,0.43940535,9.7648286819458,-0.1695348620414734,-0.9574054479598999,-1.9827815294265747,0.7911955118179321, -0.008157645352184772
207,1224106355,0.50756735,0.48193523,-0.56301874,0.43945873,9.791605949401855,-0.14977653324604034,-0.975036084651947,-2.0372984409332275,0.8560213446617126, -0.16334500908851624
208,1224123022,0.507626,0.48185042,-0.56298333,0.43952915,9.790691375732422,-0.12325730174779892,-0.9567268490791321,-2.1013810634613037,0.81621915102005, -0.05753893405199051
209,1224139689,0.5076905,0.48176572,-0.5629494,0.43959114,9.80825424194336,-0.13707254827022552,-0.9708125591278076,-2.113790512084961,0.8043988347053528, -0.105063296854496
210,1224156356,0.50777733,0.48164853,-0.562932,0.43964133,9.798526763916016,-0.14016523957252502,-0.9582961797714233,-2.1164286136627197,0.892237663269043, -0.061227165162563324
211,1224173023,0.50780904,0.48160213,-0.56287646,0.4397269,9.791624069213867,-0.1653221696615219,-0.9352182745933533,-2.079930543899536,0.7180200219154358, -0.10868749767541885
212,1224189690,0.50781024,0.48160318,-0.5627679,0.43986318,9.779027938842773,-0.15276727080345154,-0.9501945376396179,-2.0086374282836914,0.8114039301872253, -0.14750352501869202
213,1224206357,0.5079533,0.48143905,-0.5627952,0.43984258,9.773323059082031,-0.12957297265529633,-0.9435743093490601,-2.018716335296631,0.8553169369697571, -0.2365332990884781
214,1224223024,0.50805855,0.4813228,-0.56277347,0.4398763,9.768617630004883,-0.1386031210422516,-0.9478747248649597,-2.289250373840332,0.9209750294685364, -0.19096827507019043
215,1224239691,0.50812924,0.4812447,-0.56274056,0.43992195,9.74532413482666,-0.1506330519914627,-0.9583683013916016,-2.327925443649292,0.7518928647041321, -0.19447724521160126
216,1224256358,0.50820446,0.48115304,-0.5627299,0.43994915,9.77087116241455,-0.14533933997154236,-0.9764991998672485,-2.212373971939087,0.6706494092941284, -0.17813631892204285
217,1224273025,0.50821143,0.48113844,-0.5626512,0.4400573,9.791430473327637,-0.13332834839820862,-0.9233303070068359,-1.9181863069534302,0.6851332783699036, -0.1432133913040161
218,1224289692,0.50828654,0.48103806,-0.5626501,0.44008195,9.790217399597168,-0.14842036366462708,-0.9304447770118713,-1.861377239227295,0.6537448763847351, -0.16239731013774872
219,1224306359,0.5083193,0.48098597,-0.56261426,0.44014698,9.782266616821289,-0.14630962908267975,-0.9507173895835876,-1.7906861305236816,0.6007009148597717, -0.1484127640724182
220,1224323026,0.5082929,0.48099157,-0.56254196,0.44026354,9.778279304504395,-0.13316981494426727,-0.9289371967315674,-1.783117651939392,0.4998190104961395, -0.0674254298210144
221,1224339693,0.50833786,0.48089945,-0.5625491,0.44030315,9.772567749023438,-0.13021866977214813,-0.9440556168556213,-1.8417961597442627,0.5339030623435974, -0.011436068452894688
222,1224356360,0.50834453,0.48084283,-0.5625368,0.44037318,9.77479076385498,-0.13641683757305145,-0.9491649270057678,-1.8921892642974854,0.4499703049659729, 0.05465109646320343
223,1224373027,0.50833637,0.48080152,-0.56250453,0.440469,9.781723976135254,-0.15135952830314636,-0.9324588179588318,-1.8379160165786743,0.5032191276550293, 0.0844002440571785
224,1224389694,0.50832653,0.4807562,-0.56249696,0.44053933,9.79197883605957,-0.15217795968055725,-0.8995788097381592,-1.7037054300308228,0.33750492334365845, 0.06738060712814331
225,1224406361,0.5082867,0.48076874,-0.5624547,0.44062552,9.788843154907227,-0.15533362329006195,-0.9289644360542297,-1.701515793800354,0.22040370106697083, -0.08237044513225555
226,1224423028,0.5082869,0.48072675,-0.5624804,0.4406383,9.778877258300781,-0.170325368642807,-0.9045819640159607,-1.5976691246032715,0.054279718548059464, -0.1126062348484993
227,1224439695,0.50824267,0.4807457,-0.5624704,0.44068146,9.794368743896484,-0.15458883345127106,-0.912100076675415,-1.6723302602767944,-0.07382861524820328, -0.1643182933330536
228,1224456362,0.50823075,0.48072425,-0.5624939,0.44068867,9.80001163482666,-0.1327192485332489,-0.9167447090148926,-1.7819397449493408,-0.06573499739170074, -0.1564808040857315
229,1224473029,0.5082258,0.4806739,-0.5625402,0.44069007,9.78220272064209,-0.14365878701210022,-0.9112033843994141,-1.9416345357894897,-0.049944762140512466, -0.015034654177725315
230,1224489696,0.50823516,0.48060468,-0.56258833,0.44069338,9.781864166259766,-0.154686838388443,-0.9280079007148743,-2.014848470687866,0.06091339513659477, 0.023032214492559433
231,1224506363,0.5081228,0.48070368,-0.56250054,0.440827,9.773515701293945,-0.15942880511283875,-0.9138258099555969,-1.9472694396972656,-0.0028045903891324997, -0.08155082911252975
232,1224523030,0.50804204,0.4807526,-0.5624608,0.44091767,9.789191246032715,-0.1520286202430725,-0.9213883280754089,-1.7227485179901123,-0.04480941593647003, -0.052134644240140915
233,1224539697,0.5080873,0.48065612,-0.5625404,0.44086894,9.783453941345215,-0.1500745266675949,-0.9153088331222534,-1.680436611175537,-0.007222781889140606, -0.14026795327663422
234,1224556364,0.5080331,0.4806627,-0.56252867,0.44093922,9.780618667602539,-0.14428849518299103,-0.9494892954826355,-1.6150726079940796,0.019792210310697556, 0.007331634406000376
235,1224573031,0.5079811,0.4806658,-0.56251884,0.4410084,9.770384788513184,-0.1382930874824524,-0.9242047667503357,-1.6587810516357422,0.02948662079870701, 0.017551103606820107
236,1224589698,0.50792015,0.48066437,-0.56250495,0.44109774,9.787115097045898,-0.14790472388267517,-0.9302647113800049,-1.7399988174438477,0.08870318531990051, 0.1354207545518875
237,1224606365,0.50786316,0.48065248,-0.56250316,0.44117832,9.779903411865234,-0.14416436851024628,-0.9265977740287781,-1.5905101299285889,0.06292399764060974, 0.14861127734184265
238,1224623032,0.5078527,0.48059002,-0.5625475,0.44120193,9.775016784667969,-0.1882380098104477,-0.9207677841186523,-1.5086904764175415,0.04236980900168419, 0.0854247584939003
239,1224639699,0.5078196,0.48054507,-0.5625792,0.44124848,9.788887977600098,-0.16397470235824585,-0.928307831287384,-1.260913372039795,0.021495461463928223, 0.12406151741743088
240,1224656366,0.5077215,0.480584,-0.56254214,0.44136664,9.775373458862305,-0.1372355818748474,-0.9000034332275391,-1.5026971101760864,0.0023627716582268476, 0.13553600013256073
241,1224673033,0.50768876,0.48055404,-0.5625681,0.4414037,9.765893936157227,-0.1568494588136673,-0.9431769847869873,-1.5903819799423218,-0.03251532092690468, 0.0475819893181324
242,1224689700,0.5076103,0.48056772,-0.5625507,0.44150105,9.760231971740723,-0.1911945939064026,-0.9243364334106445,-1.6774909496307373,0.016680270433425903, 0.1562054455280304
243,1224706367,0.5085441,0.4795531,-0.56315434,0.4407594,10.020776748657227,-0.20806248486042023,-0.3489115536212921,-14.521142959594727,2.119779109954834, 0.25472491979599
244,1224723034,0.5138474,0.47309336,-0.5664024,0.437415,10.79794692993164,-0.5222736597061157,0.34686610102653503,-64.56343841552734,17.67640495300293, 7.572572708129883
245,1224739701,0.5197286,0.46502256,-0.56997746,0.43446755,9.496743202209473,0.28357404470443726,-1.280922770500183,-73.10706329345703,24.86995506286621, 14.680245399475098
246,1224756368,0.52426535,0.45835486,-0.57287365,0.43228775,9.561589241027832,0.00431958120316267,-0.965075671672821,-58.22149658203125,20.314617156982422, 13.731678009033203
247,1224773035,0.52757275,0.45301545,-0.57503283,0.43102357,9.611361503601074,0.28051987290382385,-1.1198225021362305,-43.468994140625,17.07961654663086, 13.108745574951172
248,1224789702,0.53075105,0.44843054,-0.5757983,0.43089426,9.989335060119629,-0.011878839693963528,-0.7550657987594604,-34.95249557495117,23.008453369140625, 10.513294219970703
249,1224806369,0.53357816,0.44487736,-0.57590705,0.43094048,9.071905136108398,-0.09439389407634735,-1.2478086948394775,-26.973539352416992,21.5037784576416, 6.037317276000977
250,1224823036,0.53559047,0.44238666,-0.57599366,0.43089268,9.374641418457031,-0.23173880577087402,-1.0643329620361328,-19.326847076416016,14.924546241760254, 3.7256505489349365
251,1224839703,0.53690654,0.44083524,-0.5758838,0.4309918,9.841146469116211,-0.5759727954864502,-0.709734320640564,-15.871261596679688,10.655939102172852, 2.1779463291168213
252,1224856370,0.53750986,0.4403619,-0.5755631,0.43115163,9.948907852172852,-0.5309735536575317,-0.6634376645088196,-8.018045425415039,5.592041492462158, -0.45932552218437195
253,1224873037,0.53824586,0.44011793,-0.5751255,0.43106663,9.844218254089355,-0.47073715925216675,-0.4904308021068573,-5.236132621765137,5.065277099609375, -3.1820709705352783
254,1224889704,0.5389918,0.44018716,-0.57462543,0.43073076,9.792861938476562,-0.5794945359230042,-0.3546842932701111,-4.454599857330322,3.6371641159057617, -5.596670150756836
255,1224906371,0.53957343,0.44083187,-0.5739112,0.43029514,9.821969032287598,-0.5394920110702515,-0.26223650574684143,-4.722393989562988,1.8285744190216064, -8.267372131347656
256,1224923038,0.54035735,0.44161493,-0.573337,0.42927265,9.785141944885254,-0.5272437334060669,-0.20592506229877472,-5.236647129058838,-0.1411004215478897, -11.279709815979004
257,1224939705,0.5412227,0.44272366,-0.57279015,0.42776784,9.74502182006836,-0.4416997730731964,-0.19466891884803772,-6.4776105880737305,-2.36377215385437, -14.511809349060059
258,1224956372,0.54206425,0.44418454,-0.57222027,0.42594647,9.735061645507812,-0.44872942566871643,-0.05832313746213913,-6.864569664001465,-4.388421058654785, -17.049917221069336
259,1224973039,0.54313654,0.4457488,-0.57171524,0.4236185,9.820076942443848,-0.4251525104045868,-0.017526693642139435,-6.866724491119385,-5.613685131072998, -19.952632904052734
260,1224989706,0.5440085,0.44789702,-0.57105184,0.42112082,9.822404861450195,-0.6799368262290955,-0.14766773581504822,-6.602967739105225,-8.059834480285645, -22.674367904663086
261,1225006373,0.544582,0.45066968,-0.5703249,0.4183979,9.867791175842285,-0.7682729959487915,-0.3862393796443939,-2.2815728187561035,-11.513336181640625, -25.410249710083008
262,1225023040,0.544499,0.4548151,-0.5690178,0.4157919,9.993971824645996,-0.6594535112380981,-0.4109966456890106,6.3796186447143555,-15.52919864654541, -30.253490447998047
263,1225039707,0.5437771,0.4605935,-0.5670672,0.41303158,10.16787338256836,-0.5416872501373291,-0.31967976689338684,16.3746337890625,-20.7772274017334, -37.46389389038086
264,1225056374,0.54284114,0.4675836,-0.5648202,0.4094721,10.614338874816895,-0.1466054618358612,0.013543915003538132,21.024402618408203,-26.435869216918945, -45.64252471923828
265,1225073041,0.5422755,0.4752617,-0.56259805,0.4044099,11.382000923156738,-0.361895889043808,0.3887037932872772,16.474279403686523,-31.88275909423828, -54.90449523925781
266,1225089708,0.5422464,0.4835655,-0.5603454,0.3976765,12.0969877243042,-0.5078321695327759,1.0659537315368652,8.717475891113281,-37.07144546508789, -65.00765991210938
267,1225106375,0.5430276,0.49195677,-0.55875975,0.38844213,13.91450023651123,-0.6130856871604919,2.4200496673583984,-3.890738010406494,-44.99256896972656, -74.8237533569336
268,1225123042,0.5439389,0.5010742,-0.5580117,0.37640202,14.479798316955566,-0.8705558180809021,2.6457746028900146,-14.243111610412598,-59.157081604003906, -85.7154312133789
269,1225139709,0.54428035,0.5110768,-0.55759335,0.36283472,14.134587287902832,-0.9483546614646912,1.4249871969223022,-15.896163940429688,-70.32159423828125, -92.28316497802734
270,1225156376,0.5434103,0.5214389,-0.5576385,0.3490649,13.366628646850586,-3.1304423809051514,-0.6348145604133606,-12.036030769348145,-78.39949798583984, -89.9049301147461
271,1225173043,0.53945035,0.53278816,-0.5578154,0.3375981,12.657636642456055,-4.504513740539551,-1.7324669361114502,11.450559616088867,-84.85028839111328, -77.44058227539062
272,1225189710,0.5335815,0.544449,-0.5576844,0.32841182,12.125298500061035,-2.6708569526672363,-2.653024673461914,28.493513107299805,-83.52506256103516, -67.02332305908203
273,1225206377,0.5264683,0.5555117,-0.55769086,0.32127687,11.118364334106445,-2.743455171585083,-0.13621588051319122,38.451927185058594,-79.77764892578125, -54.0504035949707
274,1225223044,0.51889426,0.56445336,-0.5581833,0.3171321,8.636320114135742,-5.481844902038574,2.4539451599121094,42.88203430175781,-67.30404663085938, -32.381595611572266
275,1225239711,0.5089916,0.57166,-0.55872667,0.3193072,7.794468879699707,-7.615099906921387,3.121520519256592,69.81916809082031,-48.30767822265625, 1.8684874773025513
276,1225256378,0.49736166,0.57659763,-0.55923516,0.32775423,7.05032205581665,-7.283041954040527,4.210045337677002,92.76324462890625,-25.41876792907715, 35.90700149536133
277,1225273045,0.4865043,0.57780135,-0.5598074,0.34069768,7.582459449768066,-5.375650882720947,4.380898475646973,94.00890350341797,3.3020434379577637, 63.907752990722656
278,1225289712,0.4792688,0.5747949,-0.55979824,0.35572228,8.667144775390625,-1.8018759489059448,5.138075828552246,75.9227066040039,37.23444366455078, 75.78018951416016
279,1225306379,0.47808018,0.5651144,-0.5612331,0.37027395,9.257062911987305,-2.6112987995147705,4.23423433303833,24.737079620361328,69.8985824584961, 90.76830291748047
280,1225323046,0.47851658,0.55246496,-0.5620658,0.38715172,9.84111213684082,-1.8091256618499756,3.704049587249756,19.27813148498535,94.498779296875, 103.29338073730469
281,1225339713,0.4801243,0.5376166,-0.5618869,0.40587223,10.295105934143066,-0.46999606490135193,3.2661314010620117,17.29804039001465,114.95984649658203, 110.89335632324219
282,1225356380,0.48252222,0.52089536,-0.5606085,0.4260971,10.65722942352295,-0.20827285945415497,2.6421890258789062,17.01186180114746,132.2198944091797, 116.8724594116211
283,1225373047,0.48433045,0.503705,-0.55745924,0.44826865,11.049993515014648,-0.3293534219264984,1.9318737983703613,29.547565460205078,144.3149871826172, 120.38021087646484
284,1225389714,0.48531532,0.4866326,-0.5521749,0.47197533,11.32923698425293,-0.06038004904985428,1.4316775798797607,45.270118713378906,153.11575317382812, 120.21910095214844
285,1225406381,0.48573112,0.4695463,-0.5452486,0.49628195,11.445684432983398,0.043482791632413864,0.8360867500305176,54.74673843383789,158.4067840576172, 118.69532775878906
286,1225423048,0.4856786,0.45232958,-0.5372431,0.5204655,11.627965927124023,0.040858205407857895,0.3313078284263611,59.05482864379883,160.26092529296875, 116.97982788085938
287,1225439715,0.4849744,0.43530592,-0.52835983,0.5441917,11.827630043029785,0.15419045090675354,-0.25705111026763916,63.18653869628906,158.66571044921875, 114.45043182373047
288,1225456382,0.48371255,0.41893378,-0.51897264,0.56673104,12.064804077148438,0.5464073419570923,-0.6831820011138916,64.60713958740234,152.36476135253906, 108.83036041259766
289,1225473049,0.48210248,0.40335923,-0.5101422,0.587055,11.768162727355957,0.832483172416687,-1.4501398801803589,58.19095230102539,139.8538360595703, 101.72654724121094
290,1225489716,0.4801884,0.38910633,-0.5018325,0.6051279,11.583088874816895,1.4345875978469849,-2.066349744796753,53.41933822631836,125.60404205322266, 92.46135711669922
291,1225506383,0.47866124,0.376344,-0.49435067,0.620376,11.04397964477539,2.4157378673553467,-2.545435905456543,44.11769485473633,110.6082992553711, 78.77906799316406
292,1225523050,0.47777995,0.3653736,-0.4879584,0.63255453,10.188714981079102,2.749779224395752,-2.9914653301239014,33.26506042480469,93.82178497314453, 62.85693359375
293,1225539717,0.47707397,0.35709515,-0.48217314,0.64217806,9.61569881439209,2.565995454788208,-3.5532608032226562,30.460670471191406,74.49979400634766, 46.40397262573242
294,1225556384,0.4759763,0.352358,-0.47667578,0.64966965,9.433087348937988,2.499619722366333,-4.91370964050293,34.71242904663086,51.613765716552734, 30.305410385131836
295,1225573051,0.47466135,0.35081264,-0.47229636,0.6546474,9.27627944946289,2.0279321670532227,-5.977715015411377,32.48013687133789,27.167743682861328, 15.491023063659668
296,1225589718,0.47493374,0.35057342,-0.47285733,0.654173,9.138976097106934,1.7897002696990967,-9.16190242767334,-6.9819207191467285,-2.5246572494506836, -1.6048665046691895
297,1225606385,0.4770164,0.35378134,-0.478924,0.6464719,10.989100456237793,5.0766282081604,-14.944866180419922,-48.26813507080078,-47.13736343383789, -31.13619613647461
298,1225623052,0.480464,0.35835028,-0.49187684,0.63150334,14.762139320373535,3.279895305633545,-7.266755104064941,-101.5666732788086,-88.36387634277344, -48.507022857666016
299,1225639719,0.48102415,0.36278933,-0.50388706,0.6189489,13.085071563720703,-8.423604965209961,6.279289245605469,-82.57730102539062,-88.13336181640625, -29.628253936767578
300,1225656386,0.47964093,0.37316412,-0.5100714,0.608704,11.74357795715332,-2.577427387237549,-1.643802285194397,-25.294679641723633,-95.18736267089844, -48.96147918701172
301,1225673053,0.47829834,0.38213527,-0.5170673,0.59820133,10.380232810974121,0.6287246942520142,-2.289588689804077,-34.29733657836914,-92.3695068359375, -42.950775146484375
302,1225689720,0.47936136,0.3870835,-0.52646,0.58584917,12.400918960571289,-0.5152537226676941,-1.6957130432128906,-70.26439666748047,-79.87638092041016, -38.21482849121094
303,1225706387,0.47839075,0.39229313,-0.53426105,0.57603264,12.327197074890137,-1.2085996866226196,-1.6946837902069092,-48.382320404052734,-76.18016815185547, -26.756526947021484
304,1225723054,0.476132,0.39805746,-0.54032266,0.56824297,10.679535865783691,-2.038604736328125,-0.615725040435791,-28.727806091308594,-71.81807708740234, -21.654264450073242
305,1225739721,0.47310305,0.40409327,-0.5441702,0.56281525,9.48752212524414,-1.8937910795211792,-0.059348128736019135,-8.293835639953613,-61.975257873535156, -17.96402931213379
306,1225756388,0.4701676,0.40974686,-0.54701316,0.5584144,10.256850242614746,-1.426573634147644,0.5969270467758179,-2.0610897541046143,-54.00183868408203, -16.338918685913086
307,1225773055,0.46745148,0.4146132,-0.55015165,0.55400217,10.289756774902344,-1.4642808437347412,0.5611880421638489,-6.40090799331665,-51.14249038696289, -13.397432327270508
308,1225789722,0.4651766,0.4180605,-0.55426216,0.5492083,10.244854927062988,-1.3239744901657104,0.04325100779533386,-17.365127563476562,-48.286739349365234, -8.141304969787598
309,1225806389,0.46344432,0.42013073,-0.55930763,0.54395276,10.088228225708008,-1.5343811511993408,-0.06643377989530563,-28.614824295043945,-45.3320198059082, -3.7007527351379395
310,1225823056,0.4618669,0.42169932,-0.5645351,0.5386548,10.047473907470703,-2.2732808589935303,-0.20843738317489624,-31.499530792236328,-43.56156921386719, -1.9383246898651123
311,1225839723,0.46059805,0.42335483,-0.5690901,0.5336261,9.595542907714844,-2.4609768390655518,-0.494430810213089,-28.578712463378906,-39.768768310546875, -4.5153398513793945
312,1225856390,0.46013403,0.42467418,-0.5733632,0.528378,9.36398983001709,-2.7849111557006836,-0.3574449121952057,-31.805200576782227,-35.12568283081055, -7.679018497467041
313,1225873057,0.46033734,0.42633477,-0.5769384,0.52294385,9.40312671661377,-3.2146975994110107,-0.24300794303417206,-30.872528076171875,-32.07222366333008, -14.097848892211914
314,1225889724,0.4601868,0.4291757,-0.57964677,0.5177318,9.21059799194336,-3.3715853691101074,-0.6991840600967407,-22.10541343688965,-34.333106994628906, -19.38231658935547
315,1225906391,0.45976514,0.43303555,-0.5815274,0.5127597,9.091670989990234,-2.9909560680389404,-0.7722389101982117,-14.182061195373535,-35.709285736083984, -24.207393646240234
316,1225923058,0.45908707,0.43776166,-0.58267415,0.50803024,9.160165786743164,-2.4714720249176025,-0.6429599523544312,-7.127364158630371,-36.74177551269531, -28.221965789794922
317,1225939725,0.4583891,0.44290814,-0.58370537,0.5029912,9.308724403381348,-1.9765228033065796,-0.6089074015617371,-6.582201957702637,-38.85944747924805, -31.18455696105957
318,1225956392,0.4580289,0.44805694,-0.5850931,0.4971122,9.363712310791016,-2.054021120071411,-0.6810089945793152,-12.21284008026123,-41.20026779174805, -33.932010650634766
319,1225973059,0.45767865,0.45332015,-0.58676326,0.49065256,9.28819751739502,-2.1849210262298584,-0.858328104019165,-15.191574096679688,-44.238731384277344, -35.397891998291016
320,1225989726,0.45637134,0.45977136,-0.5877337,0.4846697,8.974879264831543,-2.2871875762939453,-1.1520073413848877,-4.193470001220703,-48.42582321166992, -37.66295623779297
321,1226006393,0.45485657,0.46686652,-0.58839667,0.478467,9.078916549682617,-2.2719151973724365,-1.4233461618423462,-1.38869047164917,-51.13968276977539, -41.26457977294922
322,1226023060,0.45286867,0.47497818,-0.5885234,0.47217175,9.301448822021484,-1.501744031906128,-1.287574052810669,4.688930988311768,-55.01435852050781, -45.862056732177734
323,1226039727,0.4504838,0.4838968,-0.58831525,0.46561113,9.646504402160645,-0.9768163561820984,-1.2979334592819214,8.5031099319458,-59.069725036621094, -49.76969528198242
324,1226056394,0.44900706,0.49347728,-0.5878219,0.45753524,11.207582473754883,-0.5222277045249939,-1.1494249105453491,2.3085782527923584,-61.6843147277832, -60.99378204345703
325,1226073061,0.4491514,0.5031395,-0.58778864,0.44678658,10.307181358337402,-0.863285481929779,-0.9103126525878906,-15.195856094360352,-65.90766143798828, -73.09657287597656
326,1226089728,0.44958624,0.5121022,-0.58891106,0.43451995,10.493772506713867,-0.8541313409805298,-1.23114013671875,-28.055631637573242,-71.4418716430664, -71.85144805908203
327,1226106395,0.44994357,0.5210403,-0.59085786,0.4206601,11.472515106201172,0.10733753442764282,-0.969632625579834,-36.782691955566406,-79.8755111694336, -73.54627990722656
328,1226123062,0.44969594,0.5310704,-0.5930823,0.40495846,12.649125099182129,0.9888911843299866,-0.17345920205116272,-39.525856018066406,-93.00518035888672, -80.91937255859375
329,1226139729,0.44651708,0.54341006,-0.5955885,0.38807556,12.576854705810547,0.43765488266944885,-0.7619091272354126,-27.275266647338867,-116.6705322265625, -84.76847839355469
330,1226156396,0.4390263,0.5592002,-0.59759617,0.37071535,13.422990798950195,-0.27779334783554077,-0.5098167657852173,-1.1894341707229614,-143.87857055664062, -90.71818542480469
331,1226173063,0.4299049,0.57614964,-0.5991447,0.35250416,15.242751121520996,-0.024920346215367317,0.08483755588531494,6.255504608154297,-155.53469848632812, -95.6881103515625
332,1226189730,0.42306802,0.59233165,-0.60076594,0.33051038,17.962772369384766,0.959087610244751,1.3375184535980225,-20.816186904907227,-159.62753295898438, -108.99134826660156
333,1226206397,0.41757625,0.60814434,-0.6018861,0.30581683,21.51368522644043,-0.24894295632839203,5.224152565002441,-37.352516174316406,-163.01431274414062, -120.45169830322266
334,1226223064,0.4123771,0.62432957,-0.6014532,0.28002146,23.32509994506836,-3.6573662757873535,9.15884017944336,-38.75851821899414,-163.13723754882812, -132.3701629638672
335,1226239731,0.40754908,0.6392242,-0.60004914,0.25541633,19.906272888183594,-5.505016803741455,6.377176761627197,-37.189918518066406,-151.7848358154297, -128.76141357421875
336,1226256398,0.40149242,0.6534453,-0.59722257,0.23481621,18.382020950317383,-4.782720565795898,-1.8132480382919312,-14.661197662353516,-134.50088500976562, -119.11084747314453
337,1226273065,0.39793712,0.66453487,-0.59342563,0.21882786,17.675357818603516,-7.634039402008057,2.57236385345459,-14.093246459960938,-95.9903564453125, -102.1484603881836
338,1226289732,0.39659223,0.6728627,-0.5916109,0.19991733,11.611945152282715,-8.482406616210938,-9.49973201751709,-46.730709075927734,-101.90663146972656, -93.45347595214844
339,1226306399,0.3812047,0.6874542,-0.58791685,0.19090146,17.680133819580078,-5.291354179382324,-4.846596717834473,77.94677734375,-116.71929931640625, -81.58605194091797
340,1226323066,0.3641339,0.6990828,-0.5847647,0.19167733,15.520289421081543,-4.423691749572754,12.70136833190918,116.8772964477539,-75.000732421875, -39.336448669433594
341,1226339733,0.3640024,0.6995413,-0.5841319,0.19218285,5.479589462280273,-10.982542991638184,9.266731262207031,3.108185052871704,-0.3096063733100891, -5.464560031890869
342,1226356400,0.36418518,0.6978389,-0.58282465,0.2017561,6.988492965698242,-5.996365547180176,3.3114216327667236,33.37920379638672,48.85500717163086, 22.022974014282227
343,1226373067,0.37161693,0.68944615,-0.58335036,0.215099,8.028084754943848,-2.8766109943389893,4.380194664001465,-5.663439750671387,100.52921295166016, 56.8643798828125
344,1226389734,0.38389885,0.676424,-0.58362687,0.23334934,5.845392227172852,-3.805699348449707,3.002655267715454,-20.439388275146484,150.56707763671875, 79.49373626708984
345,1226406401,0.3980875,0.6598039,-0.58317846,0.25707623,7.052801609039307,-3.3843822479248047,0.7658708691596985,-15.687033653259277,191.29751586914062, 101.82353210449219
346,1226423068,0.4107239,0.64113957,-0.58122635,0.2870921,7.842782020568848,-2.443373918533325,0.031128257513046265,13.619099617004395,221.28533935546875, 123.03984832763672
347,1226439735,0.42199126,0.6208956,-0.5766029,0.32239935,8.653303146362305,-0.8291680216789246,-1.0313252210617065,41.621212005615234,249.75587463378906, 135.15185546875
348,1226456402,0.4336818,0.5974267,-0.57004887,0.36061886,9.780092239379883,-0.4471965432167053,-1.8173757791519165,46.311153411865234,276.5899353027344, 147.19627380371094
349,1226473069,0.44658902,0.5699742,-0.561841,0.40002814,10.85326099395752,0.0070951227098703384,-2.5205726623535156,38.232826232910156,301.05523681640625, 156.5469207763672
350,1226489736,0.46035242,0.5382001,-0.5529805,0.4388951,12.23180866241455,0.31152796745300293,-3.0117099285125732,21.343544006347656,316.160400390625, 166.67111206054688
351,1226506403,0.47381607,0.50276935,-0.54388714,0.47634906,13.516681671142578,0.19032037258148193,-4.362165927886963,6.2466654777526855,321.628173828125, 176.15516662597656
352,1226523070,0.48332664,0.4664891,-0.5335458,0.51391846,14.484728813171387,0.034797534346580505,-5.4732489585876465,21.708572387695312,314.20367431640625, 188.36756896972656
353,1226539737,0.4874019,0.432019,-0.5205221,0.5521375,15.255762100219727,0.8975445628166199,-6.345765113830566,57.065608978271484,299.01153564453125, 194.5565948486328
354,1226556404,0.48846877,0.3992851,-0.5064185,0.5878011,16.111103057861328,2.9843087196350098,-7.998544692993164,66.8038101196289,277.85693359375, 188.11569213867188
355,1226573071,0.48831564,0.36738938,-0.49427572,0.6182756,16.57070541381836,3.6699142456054688,-9.126490592956543,46.9891471862793,249.636962890625, 178.27337646484375
356,1226589738,0.48743582,0.33691263,-0.48467138,0.6434205,15.88209056854248,4.786848545074463,-10.910093307495117,24.701126098632812,219.46676635742188, 165.26869201660156
357,1226606405,0.48587582,0.3090292,-0.4778231,0.66340876,15.211429595947266,6.539953231811523,-12.470196723937988,5.6181416511535645,184.94049072265625, 148.97830200195312
358,1226623072,0.48477364,0.28599212,-0.47307843,0.67779046,13.899921417236328,10.367236137390137,-15.524136543273926,-7.144583702087402,145.852783203125, 116.9951171875
359,1226639739,0.48436484,0.2733017,-0.47191486,0.6841004,13.402153015136719,10.5194091796875,-21.660615921020508,-16.93025016784668,72.59526824951172, 60.61436462402344
360,1226656406,0.4832349,0.27426764,-0.47450984,0.6827164,12.267226219177246,8.380480766296387,-22.86587905883789,-12.645859718322754,-20.327173233032227, 1.5071500539779663
361,1226673073,0.48268092,0.28361347,-0.4803024,0.675198,10.965719223022461,9.665732383728027,-18.605422973632812,-20.79454231262207,-79.37738800048828, -42.58687973022461
362,1226689740,0.48479852,0.28871432,-0.49475017,0.66093636,12.201351165771484,0.3992081582546234,-1.2967523336410522,-102.48316955566406,-92.27107238769531, -46.17448425292969
363,1226706407,0.48312572,0.293235,-0.5027856,0.6540716,12.540854454040527,-21.892152786254883,19.811805725097656,-42.58887481689453,-66.38256072998047, -14.938190460205078
364,1226723074,0.47726914,0.3177608,-0.4937172,0.65382385,19.97987937927246,4.697048187255859,-7.6412129402160645,132.08560180664062,-100.99073791503906, -78.13249969482422
365,1226739741,0.4776548,0.33183783,-0.50322783,0.6391333,17.346921920776367,7.999298572540283,-0.2542062997817993,-48.39506149291992,-125.09187316894531, -77.29652404785156
366,1226756408,0.4792317,0.3403411,-0.5182175,0.6212533,7.907260417938232,-5.530455112457275,-1.23307204246521,-104.5886001586914,-121.6948471069336, -60.96194076538086
367,1226773075,0.47551143,0.35091397,-0.52679396,0.610931,9.556971549987793,-6.174111843109131,-6.92816162109375,-31.014192581176758,-110.5802001953125, -35.88497543334961
368,1226789742,0.47029635,0.3659697,-0.5279433,0.6051144,13.41520881652832,-0.926254391670227,-1.9828307628631592,34.81852340698242,-99.56149291992188, -49.11564254760742
369,1226806409,0.46568692,0.3798899,-0.528999,0.5991491,11.69282054901123,-0.014906037598848343,-1.0254237651824951,29.46930503845215,-92.68700408935547, -48.208251953125
370,1226823076,0.46227154,0.391087,-0.5311021,0.59269434,11.067427635192871,0.5716776847839355,-0.3268508017063141,11.524635314941406,-81.76837921142578, -42.031429290771484
371,1226839743,0.4594112,0.3995824,-0.53444076,0.5862154,10.593466758728027,-0.2707533836364746,0.33597248792648315,-3.691537618637085,-72.75513458251953, -31.155961990356445
372,1226856410,0.4571051,0.40598983,-0.53872603,0.5796565,10.659951210021973,-0.5515586733818054,0.33653223514556885,-15.930116653442383,-65.56066131591797, -23.361391067504883
373,1226873077,0.45509884,0.41067114,-0.54385275,0.5731131,10.242447853088379,-1.3008861541748047,-0.09444112330675125,-25.496978759765625,-60.22115707397461, -15.762496948242188
374,1226889744,0.45313907,0.41512433,-0.5483218,0.5671684,9.731244087219238,-2.734010934829712,0.10102637112140656,-21.51776885986328,-55.4432258605957, -15.087935447692871
375,1226906411,0.45142362,0.42010087,-0.5517027,0.5615659,9.189973831176758,-3.0567781925201416,0.2856591045856476,-15.057717323303223,-52.24139404296875, -20.086816787719727
376,1226923078,0.4506784,0.42474118,-0.5553691,0.5550219,8.982197761535645,-3.554891586303711,0.0474134236574173,-23.58588218688965,-50.91456604003906, -24.692312240600586
377,1226939745,0.45062023,0.42943347,-0.5590094,0.5477564,8.712878227233887,-3.640202045440674,0.06128424406051636,-28.09418296813965,-50.55645751953125, -29.864059448242188
378,1226956412,0.4503813,0.434907,-0.5621381,0.5403826,8.704282760620117,-3.805067300796509,-0.001423381268978119,-23.6382999420166,-52.966548919677734, -34.070899963378906
379,1226973079,0.44909328,0.44233724,-0.56417304,0.533256,8.846840858459473,-3.4360086917877197,0.04597540199756622,-9.43291187286377,-60.20145034790039, -40.279842376708984
380,1226989746,0.44700402,0.45157054,-0.5651506,0.52619034,9.007402420043945,-2.422337532043457,-0.33101293444633484,2.6739325523376465,-66.50357818603516, -47.397308349609375
381,1227006413,0.44439632,0.46236503,-0.56512874,0.51899916,9.545392036437988,-1.1760880947113037,-0.5762990117073059,12.201458930969238,-71.5123291015625, -55.097293853759766
382,1227023080,0.4416486,0.47365737,-0.5649278,0.51132375,9.808115005493164,-0.5943403840065002,-0.9124704599380493,12.91866397857666,-74.84956359863281, -58.586544036865234
383,1227039747,0.4406282,0.4845271,-0.56488705,0.50197935,10.801591873168945,-0.6333020329475403,-1.1577554941177368,-1.0420759916305542,-72.5972900390625, -67.56385040283203
384,1227056414,0.44063392,0.49530768,-0.5647361,0.4915133,9.744855880737305,-1.3454742431640625,-1.3050360679626465,-8.71158218383789,-71.72697448730469, -74.52496337890625
385,1227073081,0.43986738,0.506226,-0.5647413,0.48095682,9.898406028747559,-1.0634870529174805,-1.4044318199157715,-6.549855709075928,-75.98985290527344, -72.20138549804688
386,1227089748,0.43835095,0.51686996,-0.5661042,0.46927622,10.483091354370117,-0.27914702892303467,-1.3219197988510132,-13.629178047180176,-86.03092956542969, -67.33918762207031
387,1227106415,0.4368225,0.52692574,-0.5689186,0.45592418,11.153425216674805,-0.28880372643470764,-1.0215567350387573,-26.551036834716797,-94.51566314697266, -64.8919448852539
388,1227123082,0.43496755,0.5369351,-0.5730842,0.44054347,12.102535247802734,-0.23310033977031708,-1.0421204566955566,-37.68156433105469,-107.08197021484375, -64.88785552978516
389,1227139749,0.43217477,0.54902554,-0.5766239,0.4234394,13.624946594238281,1.0994362831115723,0.10542210936546326,-32.892696380615234,-121.60089111328125, -77.71742248535156
390,1227156416,0.4276184,0.5627226,-0.5810152,0.40361762,13.72224235534668,-0.2011333405971527,-0.17829692363739014,-34.71402359008789,-146.10525512695312, -83.81312561035156
391,1227173083,0.4201039,0.5774363,-0.5869655,0.3815123,14.24232006072998,-0.39101433753967285,-0.06957915425300598,-33.730228424072266,-174.20758056640625, -80.35877227783203
392,1227189750,0.41125524,0.59213895,-0.59356797,0.3576562,16.871051788330078,-0.20108568668365479,1.6987760066986084,-37.24308776855469,-188.44309997558594, -79.29780578613281
393,1227206417,0.40767595,0.60520446,-0.59892935,0.3298659,22.057998657226562,-0.011934321373701096,3.4975075721740723,-76.33329010009766,-175.48187255859375, -101.77226257324219
394,1227223084,0.40318874,0.62046164,-0.6011383,0.30182618,23.489389419555664,-3.424098253250122,7.676808834075928,-60.28266143798828,-176.48208618164062, -122.58235931396484
395,1227239751,0.39524922,0.63812256,-0.5996844,0.27740985,20.26421356201172,-4.409806728363037,7.387640476226807,-16.307968139648438,-170.2372283935547, -130.98297119140625
396,1227256418,0.3873425,0.6543325,-0.59685695,0.2560796,17.324411392211914,-3.487685203552246,-0.76619553565979,-5.050520896911621,-150.14669799804688, -122.74762725830078
397,1227273085,0.38069984,0.66660166,-0.5942352,0.2399893,18.542701721191406,-6.818694114685059,5.773543357849121,-0.10003818571567535,-115.01730346679688, -93.94898986816406
398,1227289752,0.377639,0.6760052,-0.59137785,0.22511807,11.975072860717773,-4.79664421081543,-7.514228820800781,-18.66175651550293,-89.51646423339844, -86.09111022949219
399,1227306419,0.36954692,0.6883031,-0.5882792,0.20881015,17.625450134277344,-3.4934821128845215,-11.889215469360352,6.745851039886475,-120.48622131347656, -94.95402526855469
400,1227323086,0.3520473,0.6979519,-0.58868355,0.20585795,22.241687774658203,-10.080097198486328,13.346693992614746,93.50060272216797,-100.4136962890625, -20.236852645874023
401,1227339753,0.34675542,0.6997711,-0.5897213,0.20569415,4.6260151863098145,-8.162487030029297,12.438088417053223,26.331920623779297,-28.186553955078125, 3.910855770111084
402,1227356420,0.35315037,0.6955484,-0.59029424,0.20748487,8.296859741210938,-3.846186876296997,3.5936520099639893,-35.7288932800293,38.22415542602539, 14.281526565551758
403,1227373087,0.36991936,0.6812628,-0.595709,0.21017027,9.79355239868164,-6.022615432739258,4.800675868988037,-113.06253051757812,87.21148681640625, 65.63446044921875
404,1227389754,0.38590837,0.6642513,-0.6004653,0.22200558,6.156559944152832,-4.598952770233154,3.4882352352142334,-77.92610168457031,132.4898223876953, 98.08357238769531
405,1227406421,0.40272647,0.644249,-0.604204,0.24019232,7.618740558624268,-2.5045697689056396,1.946462869644165,-61.8798942565918,172.21112060546875, 121.35945892333984
406,1227423088,0.41772166,0.6223118,-0.6066749,0.26491958,7.922311782836914,-2.140622854232788,0.6975029706954956,-29.895492553710938,200.34144592285156, 144.90489196777344
407,1227439755,0.42938027,0.60035515,-0.6058437,0.29691744,8.796777725219727,-0.15822766721248627,-0.15737301111221313,20.681055068969727,227.08209228515625, 157.8252716064453
408,1227456422,0.4406677,0.576455,-0.6022346,0.33290392,9.487646102905273,0.46087056398391724,-0.7727243900299072,38.773441314697266,254.20223999023438, 167.0135498046875
409,1227473089,0.4524372,0.54987097,-0.5957948,0.37144464,10.462935447692871,1.2825356721878052,-0.9860943555831909,45.79987335205078,281.080322265625, 173.57260131835938
410,1227489756,0.46650913,0.51875067,-0.5878471,0.4095153,11.045007705688477,1.925709843635559,-1.2703266143798828,24.912973403930664,305.0507507324219, 179.14285278320312
411,1227506423,0.47991338,0.48479083,-0.5779548,0.44791657,12.434380531311035,1.8118897676467896,-2.1433815956115723,25.00812339782715,317.80084228515625, 186.6576385498047
412,1227523090,0.49051642,0.4505732,-0.5653748,0.48654762,13.94719409942627,2.558131694793701,-3.0308003425598145,42.700862884521484,317.1236572265625, 188.13644409179688
413,1227539757,0.4982269,0.41743124,-0.54958636,0.52485824,14.3927640914917,3.7979538440704346,-4.120948314666748,64.79084777832031,312.1347351074219, 182.64056396484375
414,1227556424,0.5039695,0.3847165,-0.53228813,0.5609611,15.438285827636719,4.490094184875488,-5.997707843780518,69.01195526123047,302.0184020996094, 176.2667236328125
415,1227573091,0.5078181,0.35138506,-0.51631796,0.59335077,16.32107925415039,3.885291814804077,-7.566863059997559,53.16627502441406,283.0732727050781, 176.51284790039062
416,1227589758,0.50992334,0.31812277,-0.5027531,0.6213015,16.914155960083008,4.637630939483643,-9.60792350769043,32.04174041748047,257.5185241699219, 173.72312927246094
417,1227606425,0.5122311,0.28600758,-0.4928183,0.6426112,18.067895889282227,7.911568641662598,-13.141963958740234,-2.848729133605957,226.11300659179688, 153.57640075683594
418,1227623092,0.5135034,0.26167846,-0.48377866,0.6586326,17.51470375061035,8.3698091506958,-18.517946243286133,4.743518829345703,174.71022033691406, 114.9445571899414
419,1227639759,0.5106235,0.2551645,-0.4725193,0.67147624,13.389591217041016,5.4863128662109375,-27.265727996826172,74.61029052734375,82.43132019042969, 59.32435989379883
420,1227656426,0.50606996,0.26696697,-0.46494582,0.67560893,12.75149917602539,11.110426902770996,-30.616764068603516,96.5699234008789,-35.66609573364258, -16.536548614501953
421,1227673093,0.5055107,0.27837822,-0.47594467,0.6636576,12.303895950317383,9.921052932739258,-24.125810623168945,-49.788368225097656,-115.0982666015625, -55.66169357299805
422,1227689760,0.5096151,0.2765286,-0.4985114,0.6444461,16.742156982421875,-11.240839004516602,24.32806396484375,-181.3495635986328,-93.3463363647461, -36.582275390625
423,1227706427,0.5076442,0.29346618,-0.5027407,0.6351591,13.775721549987793,-3.7476344108581543,-9.089418411254883,11.299165725708008,-114.37813568115234, -74.16975402832031
424,1227723094,0.50818,0.30770928,-0.51693547,0.6163165,21.679534912109375,2.606193780899048,-4.962920188903809,-79.70633697509766,-147.98179626464844, -89.05587768554688
425,1227739761,0.50452507,0.3189216,-0.5340162,0.5988074,8.417459487915039,-7.758129596710205,-4.510611057281494,-88.9161376953125,-157.27252197265625, -49.7191047668457
426,1227756428,0.5002126,0.33525762,-0.5411375,0.5869922,10.465407371520996,2.1364452838897705,-3.9984097480773926,-7.77120304107666,-133.7357940673828, -67.93902587890625
427,1227773095,0.4958292,0.3509997,-0.5458495,0.5770623,13.486254692077637,-1.670203685760498,-1.887111783027649,7.0886383056640625,-118.96139526367188, -64.50360870361328
428,1227789762,0.4909112,0.3669496,-0.5479875,0.5692661,11.342628479003906,1.1612462997436523,-0.41607728600502014,27.30762481689453,-107.86688995361328, -62.10569381713867
429,1227806429,0.48802772,0.37745166,-0.5518772,0.56106246,10.497859954833984,1.2820910215377808,0.010002568364143372,-4.608558177947998,-85.82562255859375, -46.49391555786133
430,1227823096,0.4864188,0.3838035,-0.5571609,0.55286855,11.251462936401367,-0.0746375247836113,0.03416917473077774,-27.187040328979492,-69.64498138427734, -32.007347106933594
431,1227839763,0.48427147,0.38921744,-0.5620022,0.5460261,11.433284759521484,-0.6115369200706482,-0.4662357568740845,-22.045557022094727,-63.11081314086914, -23.014169692993164
432,1227856430,0.48222136,0.39312148,-0.56732255,0.53950304,10.530467987060547,-0.9482483267784119,-0.5124126076698303,-27.898740768432617,-57.81987380981445, -15.200461387634277
433,1227873097,0.48035133,0.39656082,-0.5716681,0.53403944,9.884689331054688,-1.8942710161209106,-0.5951928496360779,-22.17746925354004,-49.3101806640625, -13.181666374206543
434,1227889764,0.4787951,0.399466,-0.5757737,0.5288354,9.412232398986816,-3.1816725730895996,-0.2020321488380432,-22.897083282470703,-44.62808609008789, -12.038542747497559
435,1227906431,0.47742423,0.40203172,-0.5797425,0.52377045,8.95311450958252,-3.907045841217041,-0.8266416788101196,-23.476964950561523,-41.841732025146484, -11.2992525100708
436,1227923098,0.4759397,0.40545347,-0.5827521,0.51912344,8.870580673217773,-3.3705482482910156,-0.9405399560928345,-15.233854293823242,-41.08408737182617, -15.596701622009277
437,1227939765,0.4739531,0.41042477,-0.5847413,0.5147792,8.873842239379883,-3.641465425491333,-0.5090409517288208,-3.910388708114624,-44.452125549316406, -21.8807373046875
438,1227956432,0.47107792,0.41775176,-0.58520836,0.5109799,8.764864921569824,-3.593526601791382,-0.263185054063797,13.848531723022461,-49.87472915649414, -30.74150276184082
439,1227973099,0.46737817,0.42678696,-0.5847869,0.5073805,8.34451675415039,-4.564098358154297,-0.1523171067237854,25.672836303710938,-55.75214767456055, -36.63773727416992
440,1227989766,0.4626863,0.43760616,-0.58336234,0.504094,8.217206001281738,-4.063891887664795,-0.741919219493866,39.07062911987305,-61.833717346191406, -42.30805969238281
441,1228006433,0.4579064,0.4496139,-0.5814156,0.5001251,8.366198539733887,-2.782125473022461,-0.9846585988998413,42.186031341552734,-66.70564270019531, -50.530517578125
442,1228023100,0.45342886,0.46206275,-0.5794202,0.4951491,8.976545333862305,-0.7197974324226379,-1.3549232482910156,38.77733612060547,-69.98055267333984, -56.666786193847656
443,1228039767,0.45086682,0.4748198,-0.5771286,0.48804492,11.132445335388184,1.4629961252212524,-1.5860857963562012,26.179231643676758,-69.2416000366211, -71.99520111083984
444,1228056434,0.45008773,0.4874038,-0.57485694,0.47895524,10.179683685302734,0.23764346539974213,-1.1206207275390625,11.873788833618164,-68.13568115234375, -83.37329864501953
445,1228073101,0.44898078,0.49963433,-0.57281774,0.46974638,10.726019859313965,0.11691072583198547,-1.1972969770431519,10.640026092529297,-69.3943099975586, -80.48515319824219
446,1228089768,0.44738147,0.5109282,-0.5730122,0.45875847,10.8317289352417,-0.5856184959411621,-0.7658069729804993,-4.784743785858154,-81.32329559326172, -73.02484893798828
447,1228106435,0.44508237,0.5215719,-0.5760217,0.44504336,11.523067474365234,-0.008743347600102425,-1.0044796466827393,-23.95533561706543,-100.28216552734375, -66.75835418701172
448,1228123102,0.44235975,0.53246605,-0.58032995,0.42896986,13.404350280761719,1.0168334245681763,-0.412461519241333,-34.98533630371094,-115.17240142822266, -69.01496887207031
449,1228139769,0.43757328,0.5450309,-0.58566993,0.41044095,14.018767356872559,0.35514187812805176,-0.2352222502231598,-35.189300537109375,-140.48370361328125, -73.2839584350586
450,1228156436,0.43004116,0.5591843,-0.592042,0.38969746,14.61839485168457,-0.7444441914558411,0.11187359690666199,-31.951440811157227,-167.45465087890625, -74.73157501220703
451,1228173103,0.42027265,0.5740249,-0.5996661,0.36642456,16.606164932250977,-1.5406732559204102,1.2846421003341675,-34.974246978759766,-191.8585968017578, -74.21180725097656
452,1228189770,0.41438425,0.5871198,-0.6070146,0.33927795,20.829315185546875,-0.8551160097122192,3.2753140926361084,-70.61601257324219,-185.99114990234375, -89.08613586425781
453,1228206437,0.41114408,0.5996212,-0.61363846,0.30799824,23.71792984008789,-2.069267988204956,7.47067928314209,-98.56354522705078,-188.23043823242188, -107.5064926147461
454,1228223104,0.40694988,0.6128974,-0.6174348,0.27842948,22.560123443603516,-4.890810966491699,9.737873077392578,-79.2283935546875,-178.91773986816406, -115.59811401367188
455,1228239771,0.4029525,0.62505305,-0.6184659,0.25384694,17.403942108154297,-4.033451080322266,2.4518842697143555,-56.7278938293457,-147.25320434570312, -108.94935607910156
456,1228256438,0.39900544,0.63621324,-0.6176291,0.2335847,15.892281532287598,-2.4533233642578125,-1.8666452169418335,-38.07227325439453,-121.5928726196289, -100.88664245605469
457,1228273105,0.39579508,0.6454964,-0.61356413,0.22409779,14.630699157714844,-4.8953399658203125,5.720741271972656,4.496304035186768,-59.47423553466797, -78.67477416992188
458,1228289772,0.40161178,0.6497241,-0.6125145,0.203452,10.740304946899414,-4.818296909332275,-13.383134841918945,-101.05333709716797,-71.38054656982422, -88.27644348144531
459,1228306439,0.39242247,0.658949,-0.6122669,0.19214728,17.062068939208984,-8.005844116210938,-11.299123764038086,17.978866577148438,-102.0240478515625, -58.97406768798828
460,1228323106,0.36719596,0.6707891,-0.6111985,0.20407248,17.29106903076172,-10.853120803833008,17.267789840698242,196.55958557128906,-65.5404052734375, 10.13304328918457
461,1228339773,0.35226208,0.6751774,-0.6099314,0.21915919,2.53661847114563,-7.7436723709106445,11.941892623901367,143.8114776611328,3.1611897945404053, 34.043006896972656
462,1228356440,0.34990373,0.67468536,-0.6061743,0.23434962,5.005396366119385,-0.19376449286937714,1.2372413873672485,77.7844467163086,69.73018646240234, 24.24343490600586
463,1228373107,0.36637175,0.6607206,-0.60856235,0.24263579,9.642731666564941,-1.0145115852355957,4.629376411437988,-80.63842010498047,123.09674072265625, 61.95967102050781
464,1228389774,0.38656425,0.6408946,-0.612092,0.25527576,6.521238327026367,-3.703789472579956,2.5314807891845703,-96.01663970947266,165.3567352294922, 96.41926574707031
465,1228406441,0.40476957,0.6199832,-0.61306715,0.2755559,7.107784271240234,-2.973660707473755,1.8726431131362915,-53.51142501831055,199.36294555664062, 113.51248168945312
466,1228423108,0.42031193,0.59737605,-0.6125209,0.30215606,7.919329643249512,-2.1126315593719482,-0.173292338848114,-17.349750518798828,222.53782653808594, 136.80223083496094
467,1228439775,0.43277088,0.5741223,-0.60880774,0.3353301,8.553359985351562,-0.33554375171661377,-0.4436001479625702,27.716825485229492,247.0693359375, 151.92823791503906
468,1228456442,0.44586462,0.54787105,-0.60285413,0.37095726,9.957304000854492,1.370101809501648,-0.893635630607605,31.728557586669922,273.0127868652344, 161.48300170898438
469,1228473109,0.46178702,0.5167495,-0.5962022,0.40529737,11.011698722839355,1.62533438205719,-1.680777907371521,2.590986728668213,294.4776306152344, 167.89593505859375
470,1228489776,0.4762363,0.48464036,-0.5865962,0.4407126,13.03041934967041,2.6272127628326416,-1.7127856016159058,17.336498260498047,304.41131591796875, 168.98289489746094
471,1228506443,0.4940615,0.44689736,-0.5778129,0.47150642,13.676738739013672,3.100228786468506,-2.3913819789886475,-33.50769805908203,317.0329895019531, 169.10400390625
472,1228523110,0.5077692,0.4076363,-0.56854117,0.5027566,13.96629810333252,-2.8764896392822266,-4.603250026702881,-22.607667922973633,308.6761474609375, 188.5601043701172
473,1228539777,0.5142253,0.37450314,-0.5522588,0.53882295,15.676931381225586,3.0879459381103516,-4.7956156730651855,62.21464157104492,297.1416015625, 186.8367462158203
474,1228556444,0.5197423,0.34176013,-0.5355239,0.5712112,16.439443588256836,4.901435375213623,-7.169305324554443,53.71992111206055,284.2764587402344, 174.68435668945312
475,1228573111,0.5221271,0.31048712,-0.5205946,0.5999687,16.515668869018555,2.6047186851501465,-11.766940116882324,45.871944427490234,252.0073699951172, 172.8723602294922
476,1228589778,0.5187183,0.28644618,-0.5045513,0.62793946,16.629871368408203,3.6111650466918945,-13.953043937683105,85.99954223632812,203.7991485595703, 165.70556640625
477,1228606445,0.51368266,0.26921618,-0.48904285,0.65152884,15.292013168334961,9.061843872070312,-15.372143745422363,95.99386596679688,158.26988220214844, 134.5514678955078
478,1228623112,0.5118084,0.2565663,-0.4805447,0.66430616,12.44739818572998,11.580446243286133,-22.246915817260742,38.55741882324219,103.67403411865234, 79.82044982910156
479,1228639779,0.5119378,0.25364867,-0.4808181,0.6651286,12.679234504699707,10.912947654724121,-26.485376358032227,-10.277341842651367,13.985292434692383, 11.976421356201172
480,1228656446,0.51372147,0.25872242,-0.4903681,0.654746,12.258838653564453,9.922591209411621,-25.984949111938477,-64.47761535644531,-69.17080688476562, -45.20884704589844
481,1228673113,0.5184258,0.25978377,-0.51123315,0.63434064,14.88070297241211,-2.246595621109009,-0.861109733581543,-168.57102966308594,-98.96487426757812, -60.045799255371094
482,1228689780,0.5156028,0.26588774,-0.5198257,0.6270875,10.232091903686523,-24.821298599243164,17.943395614624023,-37.371212005615234,-80.16130828857422, -19.957019805908203
483,1228706447,0.50882083,0.29346254,-0.51055354,0.62794614,18.420183181762695,6.636534214019775,-9.304464340209961,152.0177764892578,-108.80287170410156, -83.63245391845703
484,1228723114,0.5081036,0.3103976,-0.5170544,0.6149299,17.46460723876953,11.288976669311523,1.7947633266448975,-14.264748573303223,-124.69094848632812, -89.13646697998047
485,1228739781,0.51019055,0.31429237,-0.53767884,0.59315044,9.642478942871094,-6.802948951721191,-6.060775279998779,-156.7078094482422,-127.64155578613281, -55.04060363769531
486,1228756448,0.5048259,0.32619548,-0.54645175,0.5832137,12.210522651672363,-2.8005547523498535,-3.9865355491638184,-20.365032196044922,-120.65657806396484, -38.33504867553711
487,1228773115,0.5009159,0.33817926,-0.553189,0.57332385,11.908269882202148,-0.5366987586021423,-2.105456590652466,-15.000309944152832,-108.32997131347656, -48.8779182434082
488,1228789782,0.49672905,0.3501889,-0.55725724,0.5657672,10.819948196411133,-0.8979974985122681,-1.3635966777801514,5.1292924880981445,-94.8623046875, -46.05259704589844
489,1228806449,0.49343106,0.36070824,-0.5605955,0.5587022,11.174080848693848,0.19140012562274933,-0.4464714527130127,2.6224169731140137,-81.9828109741211, -43.880271911621094
490,1228823116,0.4911028,0.3684064,-0.56496364,0.5512811,10.554824829101562,-0.7535315752029419,0.08797343820333481,-14.68420696258545,-71.79100799560547, -35.38108825683594
491,1228839783,0.48960426,0.37404206,-0.56946313,0.54414326,10.185678482055664,-1.400100827217102,-0.07686427235603333,-23.14869499206543,-60.48725509643555, -29.224685668945312
492,1228856450,0.4885947,0.3782209,-0.57405967,0.5372892,10.479869842529297,-1.3405200242996216,-0.29223331809043884,-28.563636779785156,-52.729957580566406, -24.1481990814209
493,1228873117,0.48739412,0.3820687,-0.5785199,0.5308346,9.879646301269531,-2.4184980392456055,-0.20035812258720398,-27.10023307800293,-50.77527618408203, -21.1500186920166
494,1228889784,0.4857185,0.38729826,-0.58111686,0.5257194,9.438056945800781,-3.1354591846466064,-0.10180068761110306,-9.094320297241211,-47.95503234863281, -25.326269149780273
495,1228906451,0.48397413,0.3931811,-0.5828352,0.5210383,9.07432746887207,-3.178103446960449,-0.4264812469482422,-1.8214150667190552,-46.51130676269531, -28.59061622619629
496,1228923118,0.48286745,0.3985375,-0.58491933,0.51563215,8.978113174438477,-2.7391231060028076,-0.45057910680770874,-9.515783309936523,-45.25730895996094, -30.201847076416016
497,1228939785,0.48219582,0.40344438,-0.587706,0.5092363,8.914962768554688,-2.804999589920044,-0.2894611954689026,-18.67290496826172,-46.96784973144531, -31.30748748779297
498,1228956452,0.48136154,0.40917408,-0.5902194,0.5025025,9.186513900756836,-2.383430242538452,-0.23607587814331055,-15.905115127563477,-50.547481536865234, -35.9509162902832
499,1228973119,0.4797314,0.41663906,-0.59206355,0.49571222,9.287858009338379,-2.491523027420044,-0.11984294652938843,-5.844296455383301,-57.72655487060547, -42.321720123291016
500,1228989786,0.47745696,0.42569846,-0.59308887,0.48893902,9.338829040527344,-2.3871734142303467,-0.16076594591140747,4.119401931762695,-63.044456481933594, -48.9157600402832
501,1229006453,0.47534725,0.43531764,-0.59378666,0.48162338,9.714435577392578,-1.3425854444503784,-0.7068674564361572,4.359410762786865,-64.77700805664062, -54.501163482666016
502,1229023120,0.47403288,0.44468686,-0.59508884,0.47266886,10.744375228881836,-0.7432248592376709,-0.8613054156303406,-7.533451080322266,-67.59127044677734, -59.66616439819336
503,1229039787,0.47430497,0.45340407,-0.5973304,0.46114656,9.635710716247559,-1.0313663482666016,-0.7592246532440186,-28.0712947845459,-69.90251159667969, -67.65254974365234
504,1229056454,0.47427255,0.46213394,-0.6000614,0.44880316,9.882970809936523,-1.4032845497131348,-1.0329161882400513,-32.00795364379883,-75.3592300415039, -67.89392852783203
505,1229073121,0.47409016,0.47101176,-0.6033128,0.43520153,10.20801067352295,-1.7928270101547241,-1.4808664321899414,-37.84880828857422,-82.13911437988281, -70.49659729003906
506,1229089788,0.47288364,0.48088172,-0.60681504,0.42060617,11.319575309753418,-1.2058771848678589,-1.4925017356872559,-36.17498016357422,-93.40155029296875, -73.98184967041016
507,1229106455,0.46935073,0.49488118,-0.6083131,0.40590385,12.632633209228516,1.250031590461731,-0.6692987680435181,-9.709497451782227,-108.89863586425781, -91.46549224853516
508,1229123122,0.46217602,0.5128417,-0.6093736,0.38993657,13.037784576416016,0.7550576329231262,-0.47704529762268066,11.395910263061523,-138.09828186035156, -103.44160461425781
509,1229139789,0.45173594,0.5313987,-0.61239946,0.37217885,13.901956558227539,0.10863526910543442,-0.021610289812088013,12.035737991333008,-165.96090698242188, -95.9500503540039
510,1229156456,0.4401376,0.5492134,-0.6169062,0.35223642,15.810240745544434,0.32075434923171997,1.0088047981262207,0.9720218181610107,-181.54791259765625, -91.24241638183594
511,1229173123,0.4330081,0.5640247,-0.62206805,0.32773724,19.310319900512695,0.10551072657108307,2.4672253131866455,-45.90993118286133,-174.5433349609375, -100.65103149414062
512,1229189790,0.42699167,0.57820225,-0.6272585,0.29984507,20.94564437866211,-1.703096866607666,6.0390777587890625,-66.69100189208984,-181.6530303955078, -110.45494079589844
513,1229206457,0.4207354,0.5927088,-0.63110906,0.27088627,22.90030288696289,-4.406125545501709,9.517082214355469,-66.60869598388672,-183.74497985839844, -119.8646011352539
514,1229223124,0.41441435,0.60670865,-0.63248646,0.24520709,19.56528091430664,-5.08147668838501,5.5191650390625,-48.97047424316406,-162.6438751220703, -118.17314910888672
515,1229239791,0.40810937,0.6206619,-0.63082665,0.22423983,18.602577209472656,-3.8292648792266846,-1.3630725145339966,-23.558120727539062,-134.2425537109375, -117.27915954589844
516,1229256458,0.4039904,0.6322276,-0.62584823,0.21305913,17.58129119873047,-6.086928367614746,4.5883660316467285,7.970904350280762,-70.03186798095703, -97.0208969116211
517,1229273125,0.40468448,0.6402884,-0.62361974,0.19328688,10.35323715209961,-6.477100372314453,-12.007360458374023,-63.693817138671875,-89.2315673828125, -100.94795989990234
518,1229289792,0.39307684,0.65303814,-0.62086904,0.18317601,15.727925300598145,-6.300045490264893,-8.749979019165039,45.60326385498047,-104.19986724853516, -80.15045928955078
519,1229306459,0.3709348,0.6663677,-0.6173931,0.19284005,17.116125106811523,-8.52483081817627,14.89675521850586,179.78497314453125,-59.165809631347656, -19.19611930847168
520,1229323126,0.36389133,0.66973495,-0.6148724,0.2024108,3.6777753829956055,-10.131401062011719,10.86502456665039,83.5137710571289,15.174790382385254, 7.181413650512695
521,1229339793,0.36025447,0.6711189,-0.60971624,0.21923125,6.289581775665283,-3.128758430480957,2.5533761978149414,97.17058563232422,72.27420043945312, 16.8042049407959
522,1229356460,0.37140203,0.6621689,-0.6079156,0.23244712,9.814597129821777,-0.6853101849555969,4.34615421295166,-16.822965621948242,124.8714599609375, 44.3922119140625
523,1229373127,0.38908064,0.6465673,-0.607406,0.24824442,6.962581634521484,-3.97292160987854,2.4347407817840576,-54.81660842895508,171.24330139160156, 74.22053527832031
524,1229389794,0.4070699,0.62928414,-0.6044421,0.27008456,8.067996978759766,-2.321013927459717,1.5060443878173828,-31.272066116333008,208.84559631347656, 85.95024108886719
525,1229406461,0.42498392,0.6089813,-0.600625,0.29627696,8.856042861938477,-1.8578100204467773,-0.1684807538986206,-19.72571563720703,235.36859130859375, 107.12439727783203
526,1229423128,0.4398944,0.58781743,-0.59414756,0.328561,9.441826820373535,-0.7596056461334229,-0.8253956437110901,20.923137664794922,258.01507568359375, 123.4592514038086
527,1229439795,0.4531753,0.564678,-0.58550584,0.36462846,10.480637550354004,0.10717684030532837,-1.6498332023620605,41.889442443847656,277.67767333984375, 137.9183807373047
528,1229456462,0.4672731,0.537736,-0.5758727,0.4010818,10.927702903747559,0.6832121014595032,-2.2653980255126953,30.912330627441406,295.1094665527344, 148.54588317871094
529,1229473129,0.4820219,0.5063006,-0.566629,0.43617246,11.743721961975098,0.15752558410167694,-2.9609155654907227,7.59581995010376,303.8133544921875, 161.6206817626953
530,1229489796,0.49634752,0.4709725,-0.55788493,0.46966857,12.551651000976562,0.16275177896022797,-3.3248672485351562,-11.546819686889648,306.65997314453125, 174.52415466308594
531,1229506463,0.50855786,0.4330093,-0.54902214,0.50244075,13.080876350402832,0.05551644787192345,-4.125659942626953,-16.082122802734375,305.1471862792969, 188.6227264404297
532,1229523130,0.51694304,0.39398944,-0.5391428,0.5355999,14.027623176574707,0.6845611929893494,-4.581298828125,-3.4081673622131348,299.0993347167969, 204.17120361328125
533,1229539797,0.52196324,0.35423207,-0.5285359,0.5680879,14.85654354095459,2.0800392627716064,-6.348623275756836,3.2828481197357178,290.1453552246094, 214.96315002441406
534,1229556464,0.52516824,0.31434724,-0.51847863,0.59713,16.62839126586914,3.780794143676758,-9.393900871276855,-7.42083740234375,273.7185974121094, 211.50909423828125
535,1229573131,0.5257546,0.27769178,-0.50940233,0.6220763,18.649375915527344,5.852810859680176,-12.376736640930176,-8.721473693847656,238.7703094482422, 198.1016845703125
536,1229589798,0.52412975,0.24899104,-0.5001264,0.64277935,18.113662719726562,9.993821144104004,-15.287178993225098,10.2642822265625,189.67568969726562, 164.01014709472656
537,1229606465,0.5222875,0.232784,-0.49285012,0.6558401,14.352315902709961,13.050512313842773,-25.29161834716797,20.553564071655273,113.495361328125, 97.94510650634766
538,1229623132,0.5199357,0.23529783,-0.49046403,0.6585946,13.370532989501953,12.047268867492676,-30.264036178588867,31.64491844177246,-6.573858261108398, 7.7023396492004395
539,1229639799,0.5168056,0.24832258,-0.49478796,0.6530183,10.567557334899902,10.382491111755371,-25.597673416137695,12.03879165649414,-94.10784912109375, -43.06892013549805
540,1229656466,0.5177977,0.25449383,-0.51169145,0.6366243,13.774389266967773,0.7772159576416016,-0.9489836096763611,-112.61214447021484,-112.36772918701172, -55.16067886352539
541,1229673133,0.51527786,0.25789014,-0.52200216,0.62888414,10.849024772644043,-23.3540096282959,22.115764617919922,-57.03548812866211,-73.94244384765625, -10.716097831726074
542,1229689800,0.5100457,0.28676668,-0.51104087,0.6296472,21.583341598510742,9.76097297668457,-9.425406455993652,160.55616760253906,-103.51405334472656, -98.14154815673828
543,1229706467,0.5113887,0.3001772,-0.5238675,0.61150485,19.816707611083984,10.516671180725098,0.1944989562034607,-76.08480072021484,-134.07290649414062, -91.5809555053711
544,1229723134,0.51357347,0.30448458,-0.5460943,0.587633,8.268967628479004,-8.311269760131836,-7.186873912811279,-170.02293395996094,-137.643310546875, -62.989898681640625
545,1229739801,0.50733197,0.31908116,-0.55332613,0.57847375,10.88096809387207,-5.682070255279541,-4.949880599975586,-0.17520220577716827,-127.06023406982422, -47.03461837768555
546,1229756468,0.501465,0.33717862,-0.554479,0.5721857,12.417323112487793,0.818734347820282,-2.067534923553467,46.331459045410156,-112.02867889404297, -65.18712615966797
547,1229773135,0.49580124,0.3539721,-0.55474967,0.5666903,11.168190956115723,0.29667794704437256,-0.6467140913009644,47.856998443603516,-101.22753143310547, -60.319969177246094
548,1229789802,0.4921485,0.36720863,-0.55673146,0.55946213,11.039775848388672,0.25723329186439514,-0.2366870641708374,17.557456970214844,-89.74230194091797, -56.32685470581055
549,1229806469,0.48972246,0.37668228,-0.5598859,0.55209607,10.600630760192871,-0.48212099075317383,-0.46527987718582153,-3.3143203258514404,-74.8881607055664, -44.14077377319336
550,1229823136,0.48795438,0.38383648,-0.56340843,0.5451066,10.885444641113281,-0.8910254836082458,-0.5790250301361084,-12.77620792388916,-63.816978454589844, -35.483787536621094
551,1229839803,0.48576686,0.39054492,-0.56662947,0.53892154,10.495657920837402,-1.430979609489441,-0.411030650138855,-8.919193267822266,-60.64082336425781, -30.279882431030273
552,1229856470,0.48282155,0.39830258,-0.56844676,0.53395396,9.53493881225586,-2.937385320663452,-0.26121044158935547,6.563174724578857,-59.52780532836914, -31.265003204345703
553,1229873137,0.479031,0.40777034,-0.56819993,0.530473,9.18749713897705,-2.699113607406616,-0.32091715931892395,27.94212532043457,-58.1910285949707, -35.578372955322266
554,1229889804,0.47584563,0.4169822,-0.5681283,0.52623874,9.152486801147461,-2.580188751220703,0.16081607341766357,21.818668365478516,-57.5874137878418, -38.790531158447266
555,1229906471,0.47384724,0.4250217,-0.5694593,0.52013624,8.697466850280762,-2.796785831451416,0.09882965683937073,2.2030327320098877,-58.663089752197266, -40.60892105102539
556,1229923138,0.4715487,0.43399453,-0.57048655,0.51364934,8.9414701461792,-2.421398878097534,-0.35028454661369324,5.699235916137695,-63.3193244934082, -45.3437385559082
557,1229939805,0.46784738,0.4459087,-0.56979084,0.50756556,9.471698760986328,-2.184156894683838,-0.3904643952846527,27.083444595336914,-72.42752838134766, -55.774497985839844
558,1229956472,0.46263102,0.46025172,-0.5676421,0.5019199,9.199223518371582,-1.4403386116027832,-0.825354278087616,46.32406234741211,-80.82809448242188, -63.063026428222656
559,1229973139,0.45755708,0.47474968,-0.56620073,0.49464208,10.463332176208496,-0.5085078477859497,-1.306680679321289,37.55129623413086,-88.22616577148438, -67.12443542480469
560,1229989806,0.45616424,0.48681456,-0.56656045,0.4836684,9.822385787963867,-0.5483105778694153,-1.2716267108917236,-2.6379318237304688,-83.35431671142578, -75.92214965820312
561,1230006473,0.45485172,0.4973504,-0.5687735,0.4714334,9.873064994812012,-1.1013579368591309,-1.0976370573043823,-18.783916473388672,-87.9968490600586, -67.98645782470703
562,1230023140,0.45379663,0.50663865,-0.5720239,0.45844802,10.612320899963379,-1.103956699371338,-1.2057980298995972,-29.86855697631836,-88.7668228149414, -62.744441986083984
563,1230039807,0.45250294,0.5153977,-0.576339,0.44434184,11.038710594177246,0.10398712009191513,-1.307352066040039,-38.455589294433594,-95.2750473022461, -59.7027473449707
564,1230056474,0.45153975,0.52382123,-0.58185196,0.4279855,11.826966285705566,1.3000766038894653,-1.075963020324707,-53.250911712646484,-104.65484619140625, -62.135494232177734
565,1230073141,0.4499018,0.5338725,-0.5870283,0.4098372,13.458085060119629,1.5593485832214355,-0.10508378595113754,-51.94599914550781,-117.57284545898438, -73.42926025390625
566,1230089808,0.4463997,0.54638594,-0.5923374,0.3890066,13.962723731994629,0.03196849301457405,-0.35338377952575684,-48.6868782043457,-142.32310485839844, -85.91905975341797
567,1230106475,0.4382181,0.5600606,-0.5989425,0.3681915,14.630351066589355,-0.6972601413726807,0.1508491337299347,-30.944875717163086,-168.44102478027344, -73.22039794921875
568,1230123142,0.4330536,0.57161444,-0.605982,0.3442493,17.68522834777832,1.1655371189117432,1.3815454244613647,-62.9342041015625,-164.03640747070312, -79.88664245605469
569,1230139809,0.4313808,0.5817762,-0.6132563,0.31522048,18.835697174072266,0.00597178190946579,3.9866130352020264,-102.55388641357422,-166.9471435546875, -96.58274841308594
570,1230156476,0.4296879,0.5925279,-0.6193584,0.2840322,21.935489654541016,-2.6394853591918945,7.921540260314941,-107.28773498535156,-173.5553741455078, -110.14080047607422
571,1230173143,0.42700204,0.60439134,-0.6222446,0.2553271,21.9523868560791,-6.512486457824707,8.922956466674805,-83.09608459472656,-160.4411163330078, -118.74260711669922
572,1230189810,0.4241497,0.615777,-0.6222461,0.23178808,16.579181671142578,-5.837521076202393,0.14108538627624512,-56.64222717285156,-130.4832763671875, -113.28883361816406
573,1230206477,0.4186425,0.62920976,-0.6178855,0.21691298,18.33219337463379,-4.382686138153076,-0.31604379415512085,4.575960636138916,-95.7463150024414, -111.07028198242188
574,1230223144,0.41744635,0.6391171,-0.6131663,0.20321186,14.010899543762207,-5.828425407409668,-4.638768196105957,-18.712732315063477,-66.11748504638672, -100.7435302734375
575,1230239811,0.41170076,0.65135723,-0.6095858,0.18612249,13.722031593322754,-4.523571014404297,-15.077568054199219,-7.9252214431762695,-106.73947143554688, -108.99549102783203
576,1230256478,0.3898112,0.6689335,-0.60482883,0.18643314,21.5872802734375,-7.55485725402832,5.757680416107178,153.88818359375,-99.95905303955078, -66.75460052490234
577,1230273145,0.37098688,0.67977864,-0.60139596,0.19645071,10.303299903869629,-11.189048767089844,15.343080520629883,160.39576721191406,-37.59335708618164, -10.63663101196289
578,1230289812,0.3589268,0.6866612,-0.59596276,0.21094191,4.903105735778809,-6.602147102355957,4.488186836242676,139.8529052734375,21.63031768798828, -1.3697229623794556
579,1230306479,0.36044407,0.68571585,-0.5914103,0.22384784,8.14123821258545,-1.3447132110595703,4.14634370803833,48.640377044677734,78.92465209960938, 11.242330551147461
580,1230323146,0.37562406,0.67314154,-0.5919812,0.23525633,7.825107097625732,-3.568821907043457,3.7102291584014893,-58.565574645996094,132.59413146972656, 57.935428619384766
581,1230339813,0.39396217,0.65611225,-0.59252274,0.25145078,6.18794059753418,-3.9605209827423096,2.403959274291992,-65.16888427734375,174.86895751953125, 83.15930938720703
582,1230356480,0.4137727,0.6351182,-0.59271884,0.27221593,7.904268741607666,-2.7137153148651123,1.7325102090835571,-63.34062576293945,209.28501892089844, 107.56483459472656
583,1230373147,0.43210596,0.61111313,-0.5922548,0.29842854,8.863224029541016,-2.8967621326446533,0.04001957178115845,-42.01861572265625,234.5738067626953, 135.2015838623047
584,1230389814,0.44578746,0.5869247,-0.5887052,0.33199307,9.738858222961426,-2.055703639984131,-0.0854756236076355,13.26286506652832,256.08050537109375, 154.3614959716797
585,1230406481,0.457976,0.56101686,-0.5823116,0.36936623,10.622269630432129,0.24447216093540192,-0.5313920974731445,35.937374114990234,278.0646667480469, 164.92724609375
586,1230423148,0.47138715,0.53088987,-0.574915,0.40672222,11.286406517028809,-0.22185839712619781,-1.1797188520431519,20.41781234741211,296.7862854003906, 174.80844116210938
587,1230439815,0.4846869,0.49660808,-0.5671404,0.44363374,12.151324272155762,-0.6588180661201477,-1.7395799160003662,6.659139156341553,307.5925598144531, 188.7398223876953
588,1230456482,0.49696684,0.45861286,-0.5587709,0.48007664,13.009160041809082,-0.012221177108585835,-2.21724271774292,-2.2449259757995605,315.3580017089844, 202.7537384033203
589,1230473149,0.50742924,0.41721255,-0.54958856,0.5161414,14.443798065185547,0.09274747967720032,-2.8537962436676025,-6.913045883178711,321.2413330078125, 218.00564575195312
590,1230489816,0.51467276,0.37426332,-0.5385656,0.55225545,15.878613471984863,1.3830015659332275,-4.133929252624512,3.6459579467773438,321.18115234375, 230.20217895507812
591,1230506483,0.51925313,0.3308283,-0.52780735,0.5851053,17.92767906188965,3.24596905708313,-7.416448593139648,-4.307568073272705,303.8594055175781, 231.26998901367188
592,1230523150,0.51930106,0.2902198,-0.5193299,0.61351085,19.846813201904297,4.592419624328613,-10.237833023071289,-9.2045259475708,257.8223876953125, 228.5975799560547
593,1230539817,0.51679343,0.2591821,-0.50900495,0.6377014,19.571548461914062,11.374180793762207,-11.06957721710205,22.831138610839844,206.56436157226562, 186.49530029296875
594,1230556484,0.51513344,0.23729824,-0.4999101,0.6545359,16.611549377441406,11.458930015563965,-18.961193084716797,22.709701538085938,151.98939514160156, 126.87722778320312
595,1230573151,0.5116356,0.23279183,-0.49000952,0.66627896,13.94655990600586,8.551515579223633,-28.40958595275879,73.40384674072266,62.142120361328125, 56.16286087036133
596,1230589818,0.5050057,0.24600469,-0.48106885,0.67307043,11.8679780960083,11.370478630065918,-30.10185432434082,119.72205352783203,-40.70392608642578, -4.994040489196777
597,1230606485,0.5013307,0.26239428,-0.48406824,0.6674542,13.030311584472656,15.663433074951172,-25.121137619018555,29.502094268798828,-107.89483642578125, -51.98601531982422
598,1230623152,0.50522923,0.26425272,-0.5023346,0.65005696,21.285995483398438,-3.4930319786071777,25.630552291870117,-143.51231384277344,-89.73558807373047, -51.332035064697266
599,1230639819,0.50304717,0.2844412,-0.50284165,0.64279646,15.99439525604248,-0.9575788378715515,-8.639250755310059,45.554359436035156,-112.65647888183594, -84.49462890625
600,1230656486,0.5050863,0.29844123,-0.51894367,0.6217059,23.48654556274414,5.685792922973633,-3.2060940265655518,-100.83712768554688,-151.6430206298828, -99.072998046875
601,1230673153,0.50281996,0.30670166,-0.5400767,0.60118514,7.082923412322998,-10.967429161071777,-7.315258979797363,-131.41026306152344,-158.7353973388672, -47.79463577270508
602,1230689820,0.49621177,0.3234045,-0.5471333,0.5914632,8.951475143432617,-3.367216110229492,-5.0089640617370605,5.2694993019104,-138.27464294433594, -53.59300231933594
603,1230706487,0.4897837,0.34127018,-0.54899716,0.5850203,12.197344779968262,-2.5579771995544434,-2.7789809703826904,42.304931640625,-117.28616333007812, -59.07869338989258
604,1230723154,0.48340747,0.35992458,-0.5477791,0.58026695,11.36460018157959,0.6595229506492615,-1.4009652137756348,63.619659423828125,-105.89794158935547, -63.820640563964844
605,1230739821,0.48019618,0.3732569,-0.5490653,0.57325244,10.503690719604492,1.134381890296936,-0.44880539178848267,19.585237503051758,-86.64996337890625, -57.714805603027344
606,1230756488,0.47928223,0.38199887,-0.5517185,0.56566083,11.569503784179688,-0.11138912290334702,-0.45937472581863403,-9.03748893737793,-65.8790283203125, -47.82548141479492
607,1230773155,0.47843435,0.3887688,-0.55499685,0.5585142,11.176933288574219,-1.045236587524414,-0.672410249710083,-16.457033157348633,-58.8544921875, -37.48446273803711
608,1230789822,0.4765111,0.3953937,-0.5576488,0.5528373,9.97982120513916,-2.2801706790924072,-0.3805727958679199,-6.046566486358643,-56.4161376953125, -29.638660430908203
609,1230806489,0.4732044,0.403812,-0.55737764,0.5498578,9.36577320098877,-3.3046798706054688,-0.07906345278024673,25.040861129760742,-51.63432312011719, -30.376876831054688
610,1230823156,0.469289,0.41375202,-0.5548439,0.5483844,9.608116149902344,-2.104238510131836,-0.13032160699367523,46.005035400390625,-48.18292999267578, -35.312217712402344
611,1230839823,0.46633142,0.42325282,-0.5528478,0.545666,9.928196907043457,-1.160402536392212,0.26463669538497925,35.08171844482422,-48.15561294555664, -39.752437591552734
612,1230856490,0.46473047,0.43081605,-0.55312896,0.5408064,9.44870376586914,-1.9001749753952026,0.6665936708450317,8.233987808227539,-49.271366119384766, -37.721466064453125
613,1230873157,0.463056,0.43847752,-0.5540728,0.53508884,9.492147445678711,-2.3284361362457275,0.3439192473888397,3.0333659648895264,-54.589900970458984, -38.60951232910156
614,1230889824,0.4603006,0.447938,-0.55438757,0.52927256,9.331640243530273,-1.8913182020187378,-0.06841867417097092,13.95267105102539,-63.63494873046875, -43.71049880981445
615,1230906491,0.4567189,0.4586698,-0.55435133,0.523187,9.063633918762207,-2.0165903568267822,-0.35339269042015076,20.76845359802246,-71.13957977294922, -47.49567413330078
616,1230923158,0.45243037,0.47021717,-0.55435455,0.5166178,8.953182220458984,-2.7795872688293457,-0.7197162508964539,23.569381713867188,-78.42433166503906, -49.4713249206543
617,1230939825,0.44973305,0.48115885,-0.55514365,0.50797826,10.318841934204102,-1.116127610206604,-1.1523913145065308,5.853140354156494,-79.35405731201172, -56.732364654541016
618,1230956492,0.44853407,0.49061492,-0.5574712,0.49733323,9.362099647521973,-1.2194504737854004,-1.1653380393981934,-16.730327606201172,-79.84529113769531, -57.41120529174805
619,1230973159,0.4478498,0.49939972,-0.56061566,0.4855314,9.5931978225708,-1.6806055307388306,-0.6986465454101562,-27.769474029541016,-82.00776672363281, -57.41400909423828
620,1230989826,0.44719595,0.50819206,-0.56471914,0.47206897,10.041208267211914,-1.6641831398010254,-1.2367584705352783,-37.45806121826172,-90.58565521240234, -59.37213897705078
621,1231006493,0.44653895,0.5171583,-0.569883,0.45649093,10.879570960998535,-0.12502031028270721,-1.6883904933929443,-48.575096130371094,-101.82954406738281, -62.84280776977539
622,1231023160,0.44626462,0.52636296,-0.5754484,0.43891802,12.567971229553223,1.3337713479995728,-0.8342695236206055,-58.28458786010742,-109.41828155517578, -69.67105102539062
623,1231039827,0.44423184,0.537652,-0.5813032,0.4191362,13.187688827514648,1.3770852088928223,-0.2954612970352173,-55.140560150146484,-131.5751495361328, -78.33084106445312
624,1231056494,0.44040307,0.55072576,-0.5873942,0.3971327,13.532115936279297,1.1031079292297363,-0.14670203626155853,-52.61000442504883,-152.86622619628906, -86.1932373046875
625,1231073161,0.43277326,0.564792,-0.59472686,0.37418902,14.652412414550781,-0.4385698139667511,0.0635809600353241,-42.39603042602539,-178.28842163085938, -77.96543884277344
626,1231089828,0.4258888,0.5781199,-0.6017026,0.34978613,17.947620391845703,0.22895404696464539,1.5089668035507202,-52.53667068481445,-177.9902801513672, -82.6043701171875
627,1231106495,0.42257464,0.5904965,-0.6081526,0.3207727,22.299715042114258,-1.5235143899917603,4.974794387817383,-87.3260726928711,-177.79229736328125, -102.86136627197266
628,1231123162,0.41880444,0.60361195,-0.6131844,0.2902766,24.959712982177734,-4.870350360870361,10.146952629089355,-86.40042877197266,-183.34121704101562, -115.04632568359375
629,1231139829,0.41477206,0.6162956,-0.6155514,0.26313576,21.80411720275879,-7.255729675292969,9.333889961242676,-67.08937072753906,-162.13494873046875, -114.16214752197266
630,1231156496,0.41257772,0.627327,-0.6152152,0.24031392,16.69200897216797,-3.5111618041992188,-1.910575270652771,-56.428829193115234,-125.49008178710938, -109.7110366821289
631,1231173163,0.40898693,0.63965076,-0.6094177,0.2284444,16.991073608398438,-2.428494453430176,1.2463468313217163,8.603200912475586,-70.84617614746094, -105.4030532836914
632,1231189830,0.41166404,0.6473327,-0.60588884,0.2106938,10.10488224029541,-4.564235687255859,-9.295812606811523,-60.2252082824707,-69.61372375488281, -102.40990447998047
633,1231206497,0.40751916,0.6562596,-0.6049095,0.19322553,12.093172073364258,-5.847942352294922,-14.347536087036133,-28.889493942260742,-105.78266906738281, -85.61408996582031
634,1231223164,0.38700503,0.66960275,-0.6018466,0.19909824,18.1228084564209,-9.49604606628418,14.12804889678955,157.147705078125,-68.54850769042969, -26.287744522094727
635,1231239831,0.37703288,0.67450225,-0.5992419,0.2092898,4.523203372955322,-11.07927131652832,13.040560722351074,103.36494445800781,5.123534679412842, 7.742558479309082
636,1231256498,0.3702921,0.67689085,-0.5943571,0.22680847,5.7199835777282715,-5.043079376220703,2.921637773513794,115.31709289550781,61.83861541748047, 21.80217170715332
637,1231273165,0.37698442,0.6691108,-0.5929602,0.24201642,9.399331092834473,-1.326456904411316,4.158636569976807,12.00800609588623,112.91173553466797, 52.730648040771484
638,1231289832,0.3920042,0.65314436,-0.59410715,0.2584027,7.45880651473999,-3.466381788253784,2.196153163909912,-46.95263671875,159.2613525390625, 86.98440551757812
639,1231306499,0.4088146,0.6340455,-0.59391755,0.27949786,7.86176872253418,-2.9966206550598145,1.1986229419708252,-41.83767318725586,196.8699493408203, 103.25065612792969
640,1231323166,0.426485,0.6107325,-0.594214,0.30335835,9.195127487182617,-2.506256580352783,-0.8575376272201538,-47.083988189697266,219.1581268310547, 128.66592407226562
641,1231339833,0.44078383,0.58652633,-0.5924955,0.33263478,9.905118942260742,-1.1021479368209839,-1.025705337524414,-9.213899612426758,235.89523315429688, 146.73733520507812
642,1231356500,0.45359424,0.56092364,-0.5883038,0.36539808,10.72767448425293,0.8589885830879211,-1.648400068283081,12.424558639526367,254.58352661132812, 156.4105682373047
643,1231373167,0.4664396,0.5323586,-0.58299875,0.398925,11.273436546325684,0.9812192916870117,-2.0668411254882812,8.942205429077148,268.5910949707031, 166.39993286132812
644,1231389834,0.47939152,0.50058204,-0.576984,0.4320775,11.493728637695312,1.163006067276001,-2.0276451110839844,-1.297407627105713,278.7469787597656, 175.19024658203125
645,1231406501,0.49146408,0.4661523,-0.57015413,0.4648543,12.331866264343262,1.0637322664260864,-2.1618595123291016,-6.0809736251831055,284.55316162109375, 184.29864501953125
646,1231423168,0.5019577,0.4298942,-0.56151485,0.49792632,13.165003776550293,1.735737919807434,-2.4698305130004883,-0.248088538646698,291.29595947265625, 191.72946166992188
647,1231439835,0.51050115,0.39226612,-0.55159855,0.530335,14.146757125854492,1.6071921586990356,-3.0860581398010254,2.6058006286621094,290.93408203125, 197.65975952148438
648,1231456502,0.51611465,0.3547409,-0.5400128,0.5622907,14.801862716674805,2.2451486587524414,-4.458436965942383,15.247654914855957,284.1249694824219, 201.8957061767578
649,1231473169,0.519101,0.31850746,-0.52707154,0.59269124,16.08638572692871,3.4563090801239014,-6.6150360107421875,25.7150936126709,270.4445495605469, 198.4738311767578
650,1231489836,0.51936495,0.28643268,-0.51311237,0.6204289,18.103137969970703,5.487441539764404,-9.64444637298584,41.02977752685547,241.49940490722656, 182.81983947753906
651,1231506503,0.5171449,0.2608866,-0.49908558,0.6445254,17.73638343811035,7.33519172668457,-12.3132963180542,56.69084930419922,198.0579071044922, 157.32908630371094
652,1231523170,0.51391774,0.24345954,-0.48584005,0.6637586,14.769391059875488,8.298433303833008,-18.53104019165039,67.22715759277344,147.25811767578125, 118.14351654052734
653,1231539837,0.5099396,0.23970097,-0.4753959,0.67565084,11.9887056350708,9.36469554901123,-27.137866973876953,79.50715637207031,60.371524810791016, 54.77330017089844
654,1231556504,0.50602585,0.24827911,-0.47141662,0.67827857,12.356719017028809,12.128662109375,-25.34940528869629,62.402687072753906,-34.400413513183594, -7.56358003616333
655,1231573171,0.5070012,0.2531672,-0.48588422,0.6654117,9.900057792663574,9.679766654968262,-20.90272331237793,-94.9863510131836,-91.73204803466797, -40.68007278442383
656,1231589838,0.5111973,0.2513947,-0.50925756,0.6450851,13.56466007232666,-3.9713082313537598,4.083738803863525,-189.4580078125,-94.35059356689453, -43.5283317565918
657,1231606505,0.5093887,0.25458282,-0.5196994,0.63688576,9.779500007629395,-26.61665916442871,18.549726486206055,-61.7961311340332,-70.95779418945312, -13.945969581604004
658,1231623172,0.50227296,0.28724942,-0.50495666,0.64049095,22.902433395385742,7.973025798797607,-9.445056915283203,203.24668884277344,-110.28348541259766, -99.0036849975586
659,1231639839,0.5018369,0.3056284,-0.5141129,0.6248511,18.048948287963867,11.902737617492676,2.2392404079437256,-31.385019302368164,-144.5350341796875, -97.93614959716797
660,1231656506,0.5036274,0.3131129,-0.5341609,0.6024881,6.080266952514648,-9.666874885559082,-5.770392894744873,-144.26510620117188,-141.55311584472656, -69.12773132324219
661,1231673173,0.49634963,0.3288863,-0.5394051,0.5954099,9.796544075012207,-6.053228855133057,-5.50711727142334,21.484695434570312,-124.95755767822266, -40.999019622802734
662,1231689840,0.4905492,0.34688607,-0.5394874,0.5899026,12.416948318481445,1.1966981887817383,-1.8937486410140991,52.73289489746094,-107.34991455078125, -61.658897399902344
663,1231706507,0.48547548,0.3645113,-0.5383074,0.5845257,12.152437210083008,1.1314884424209595,-1.1456692218780518,55.340667724609375,-98.5160140991211, -65.7626953125
664,1231723174,0.48271516,0.37795392,-0.5396454,0.57699215,12.120600700378418,2.0800552368164062,-0.49381130933761597,17.475069046020508,-86.9139633178711, -60.440582275390625
665,1231739841,0.48099944,0.38732505,-0.54304004,0.5689697,11.044751167297363,0.42516791820526123,-0.19982820749282837,-8.730525970458984,-74.95922088623047, -45.71158218383789
666,1231756508,0.47972462,0.39445552,-0.54688144,0.5614181,10.710225105285645,-0.6624349355697632,-0.06753602623939514,-17.305639266967773,-64.75920867919922, -36.294307708740234
667,1231773175,0.4776471,0.4010485,-0.550195,0.55524695,10.300324440002441,-1.571742296218872,-0.029931124299764633,-9.672086715698242,-60.212181091308594, -28.035903930664062
668,1231789842,0.4742753,0.40887842,-0.5513765,0.55123997,9.927660942077637,-2.7496252059936523,-0.07166597992181778,14.287696838378906,-56.855655670166016, -26.5447998046875
669,1231806509,0.47072613,0.41733503,-0.55127037,0.5480417,9.622506141662598,-1.9452755451202393,-0.1834563910961151,24.77846336364746,-53.42381286621094, -29.248687744140625
670,1231823176,0.4680302,0.42497835,-0.5520348,0.5436901,9.52482795715332,-1.928208589553833,0.13268765807151794,12.044544219970703,-53.24570846557617, -30.626909255981445
671,1231839843,0.46682546,0.43104944,-0.5544869,0.53741497,8.865370750427246,-2.4652791023254395,0.2562825083732605,-10.981595039367676,-52.761131286621094, -31.497852325439453
672,1231856510,0.46596703,0.43723083,-0.5571649,0.53035027,8.801226615905762,-3.468120813369751,0.1501554548740387,-15.501486778259277,-54.920284271240234, -35.07213592529297
673,1231873177,0.4639133,0.4457814,-0.5584212,0.52366894,9.075998306274414,-3.175713062286377,-0.00008552521467208862,2.331526279449463,-62.43736267089844, -42.85943603515625
674,1231889844,0.46094954,0.45632908,-0.55849934,0.5170762,9.088228225708008,-2.494191884994507,-0.28838902711868286,16.065528869628906,-69.09638214111328, -50.60572052001953
675,1231906511,0.45783582,0.46801642,-0.5577558,0.51015234,10.068201065063477,-0.9970254898071289,-1.1827712059020996,21.789960861206055,-72.1578140258789, -58.098915100097656
676,1231923178,0.4574212,0.47895283,-0.5576879,0.5003544,9.796659469604492,-0.29802319407463074,-1.4178849458694458,-2.657949924468994,-70.5403060913086, -71.56446838378906
677,1231939845,0.45701426,0.48902297,-0.5586864,0.48975933,9.817222595214844,-0.12365414202213287,-1.2581173181533813,-12.1426420211792,-73.50382232666016, -67.25631713867188
678,1231956512,0.4562162,0.49885812,-0.560686,0.47816163,10.100021362304688,-0.8065087795257568,-0.7990310788154602,-18.796842575073242,-80.73103332519531, -64.81130981445312
679,1231973179,0.45440608,0.5087679,-0.5642484,0.46507463,10.37249755859375,-0.4371899962425232,-1.3090708255767822,-25.97867774963379,-94.89830780029297, -61.08147430419922
680,1231989846,0.45153463,0.51910317,-0.5690055,0.45042324,11.21792221069336,0.4065035581588745,-1.4555623531341553,-30.828527450561523,-109.59038543701172, -60.04286193847656
681,1232006513,0.44794008,0.5305585,-0.57424283,0.43370786,12.941282272338867,0.6301145553588867,-0.9588960409164429,-34.33293151855469,-124.76046752929688, -66.86615753173828
682,1232023180,0.44337517,0.5439616,-0.5788523,0.4152764,13.668353080749512,0.8000699281692505,-0.035133302211761475,-29.697837829589844,-138.75572204589844, -79.22716522216797
683,1232039847,0.43755522,0.55760473,-0.58447117,0.3949886,13.425952911376953,-1.062033772468567,-0.7847003936767578,-34.54085159301758,-154.5059814453125, -78.47441101074219
684,1232056514,0.4299202,0.570572,-0.5916635,0.3735645,14.198110580444336,-0.32472506165504456,-0.532284140586853,-38.45439910888672,-169.1029052734375, -68.2313003540039
685,1232073181,0.42584336,0.58076996,-0.5988509,0.3503447,17.614093780517578,1.007383942604065,0.858161985874176,-67.88958740234375,-154.60488891601562, -71.4395751953125
686,1232089848,0.4240767,0.590903,-0.6052939,0.3234378,20.378803253173828,-0.8683359622955322,4.10594367980957,-90.6865463256836,-157.59027099609375, -90.5077896118164
687,1232106515,0.42100793,0.6030836,-0.6096258,0.29563332,23.269622802734375,-5.041228771209717,8.457307815551758,-78.4634780883789,-165.22596740722656, -107.3664779663086
