PacketCounter,SampleTimeFine,Quat_W,Quat_X,Quat_Y,Quat_Z,Acc_X,Acc_Y,Acc_Z,Gyr_X,Gyr_Y,Gyr_Z 
2,317861136,0.556985,0.38610736,-0.6041157,0.41920528,9.79505443572998,-0.7077626585960388,-0.31024911999702454,-1.214042067527771,-0.6962812542915344, -0.13145717978477478
3,317877803,0.5571334,0.38633513,-0.6041306,0.41877666,9.757180213928223,-0.7379747629165649,-0.316039502620697,-1.3033663034439087,-0.5165057182312012, 0.218008890748024
4,317894470,0.5571286,0.3863977,-0.6043297,0.41843772,9.819754600524902,-0.7415883541107178,-0.29638880491256714,-1.2341607809066772,-0.2834685742855072, 0.42087432742118835
5,317911137,0.5571055,0.38636494,-0.6045319,0.41820672,9.809897422790527,-0.7729402780532837,-0.2504817545413971,-0.7137362957000732,-0.4180120527744293, 0.4970848560333252
6,317927804,0.55708766,0.3862531,-0.6046345,0.41818553,9.7900390625,-0.8046289086341858,-0.2890288233757019,-0.4036945700645447,-0.3557091951370239, 0.4732394814491272
7,317944471,0.5570449,0.38607782,-0.6047654,0.41821486,9.773674011230469,-0.7615140080451965,-0.3070424199104309,-0.6857160329818726,-0.18172210454940796, 0.34110358357429504
8,317961138,0.5569919,0.38591975,-0.6049104,0.4182218,9.767309188842773,-0.7638750076293945,-0.27931469678878784,-0.7951846718788147,-0.18065917491912842, 0.43767619132995605
9,317977805,0.55694765,0.38575017,-0.60503644,0.41825476,9.795942306518555,-0.7405822277069092,-0.28627392649650574,-1.0022248029708862,-0.08235763013362885, 0.655576229095459
10,317994472,0.556928,0.3855671,-0.60516274,0.4182672,9.791797637939453,-0.7624973058700562,-0.3073267340660095,-0.8117048144340515,-0.05967758595943451, 0.8244919776916504
11,318011139,0.55689234,0.38541278,-0.6052662,0.41830713,9.765522003173828,-0.7801699042320251,-0.2701336443424225,-0.8071714639663696,0.06612558662891388, 0.8716065287590027
12,318027806,0.55690444,0.3852013,-0.60536665,0.41834044,9.7957763671875,-0.7487240433692932,-0.27871954441070557,-0.996590256690979,0.3041059970855713, 0.9106020331382751
13,318044473,0.5568861,0.3850135,-0.605462,0.4183997,9.79981517791748,-0.7536845207214355,-0.2660004794597626,-1.2958874702453613,0.21013300120830536, 1.1283739805221558
14,318061140,0.55685025,0.3848248,-0.60556966,0.41846514,9.778681755065918,-0.747319757938385,-0.3112594485282898,-1.2791366577148438,0.05499686673283577, 1.3191243410110474
15,318077807,0.5568139,0.38464332,-0.60565746,0.41855338,9.785483360290527,-0.8193012475967407,-0.29419323801994324,-0.886852502822876,0.2406761199235916, 1.395450234413147
16,318094474,0.5567805,0.38443848,-0.60573465,0.4186743,9.771078109741211,-0.7430438995361328,-0.3170259892940521,-0.9194958806037903,0.4769916534423828, 1.4825718402862549
17,318111141,0.55679214,0.3841838,-0.605848,0.41872838,9.772947311401367,-0.7516382336616516,-0.2348526418209076,-1.3905391693115234,0.5395763516426086, 1.4851715564727783
18,318127808,0.5568132,0.3839241,-0.60597265,0.41875824,9.768720626831055,-0.8108483552932739,-0.2724648714065552,-1.3541817665100098,0.3692006468772888, 1.4671530723571777
19,318144475,0.5568087,0.3836881,-0.6060944,0.41880408,9.774423599243164,-0.760227382183075,-0.285459041595459,-1.2832473516464233,0.25261160731315613, 1.4545258283615112
20,318161142,0.5567818,0.3834688,-0.6062132,0.41886875,9.765482902526855,-0.7893354296684265,-0.2698705792427063,-1.2031819820404053,0.19561058282852173, 1.5626755952835083
21,318177809,0.5567496,0.38324088,-0.6063366,0.41894183,9.781323432922363,-0.7693457007408142,-0.3044651448726654,-1.2939664125442505,0.20187290012836456, 1.6627190113067627
22,318194476,0.556705,0.38302657,-0.60643035,0.41906157,9.75446605682373,-0.7947001457214355,-0.2891260087490082,-1.1374342441558838,0.40033289790153503, 1.7777327299118042
23,318211143,0.55671656,0.38276285,-0.60653746,0.4191319,9.802339553833008,-0.8054947257041931,-0.24611595273017883,-1.4919015169143677,0.5885735154151917, 1.6599783897399902
24,318227810,0.5567145,0.38247976,-0.6066544,0.41922385,9.824862480163574,-0.8074813485145569,-0.228138267993927,-1.6668486595153809,0.5913139581680298, 1.8919907808303833
25,318244477,0.55667895,0.3821976,-0.60680336,0.419313,9.850540161132812,-0.8033057451248169,-0.2849208414554596,-1.4091851711273193,0.258105605840683, 2.0514299869537354
26,318261144,0.556605,0.38191283,-0.6069411,0.41947117,9.789058685302734,-0.8109632730484009,-0.2972991466522217,-1.0908321142196655,0.35241153836250305, 2.4209699630737305
27,318277811,0.5565125,0.3816385,-0.60707384,0.41965157,9.783933639526367,-0.835387647151947,-0.3007010221481323,-1.0603529214859009,0.3606331944465637, 2.510908603668213
28,318294478,0.55643016,0.3813368,-0.6072254,0.41981566,9.772790908813477,-0.8915611505508423,-0.21369826793670654,-0.9421632289886475,0.35802069306373596, 2.562710762023926
29,318311145,0.5562591,0.3811685,-0.6073334,0.4200387,9.749215126037598,-0.9451120495796204,-0.24257974326610565,-0.4400390386581421,-0.0587555356323719, 2.3501124382019043
30,318327812,0.5560892,0.38101664,-0.60743004,0.42026156,9.720596313476562,-0.9180711507797241,-0.3031914234161377,0.03807968273758888,-0.1034368947148323, 2.175689935684204
31,318344479,0.55595547,0.3808552,-0.6075002,0.4204835,9.77580451965332,-0.8544081449508667,-0.2531568706035614,0.12853093445301056,0.18615949153900146, 2.000908851623535
32,318361146,0.55581254,0.3806981,-0.60757756,0.42070293,9.797384262084961,-0.815366268157959,-0.22886985540390015,-0.42039400339126587,0.14432115852832794, 2.0452957153320312
33,318377813,0.55566466,0.38047016,-0.6077379,0.42087284,9.774173736572266,-0.8249572515487671,-0.23713691532611847,-1.1318124532699585,-0.13296833634376526, 2.415834665298462
34,318394480,0.5554254,0.380311,-0.60789406,0.42110696,9.791485786437988,-0.8956329226493835,-0.2672025263309479,-0.64848792552948,-0.5121643543243408, 2.6608073711395264
35,318411147,0.5551826,0.3801366,-0.60806406,0.42133918,9.774380683898926,-0.8773239254951477,-0.28888607025146484,-0.20762935280799866,-0.5843921303749084, 2.744023084640503
36,318427814,0.5549815,0.37990618,-0.60829043,0.42148507,9.774768829345703,-0.8882633447647095,-0.3116299510002136,-0.5498405694961548,-0.7212536334991455, 2.665750503540039
37,318444481,0.55474925,0.3797203,-0.6084834,0.42167988,9.747554779052734,-0.9258924126625061,-0.291167676448822,-0.40292617678642273,-0.668990969657898, 2.6852803230285645
38,318461148,0.55446714,0.3796131,-0.60864055,0.42192054,9.764849662780762,-0.9136308431625366,-0.26014646887779236,-0.5131376385688782,-0.7631431221961975, 2.598235607147217
39,318477815,0.5542453,0.37945676,-0.60880935,0.42210892,9.757280349731445,-0.9341691136360168,-0.28666698932647705,-0.8909761309623718,-0.5732762217521667, 2.4543943405151367
40,318494482,0.5541459,0.37916517,-0.6090596,0.42214066,9.767387390136719,-0.9173462986946106,-0.3173619210720062,-1.7481690645217896,-0.46334654092788696, 2.2505943775177
41,318511149,0.55401886,0.37891218,-0.60929596,0.4221934,9.750425338745117,-0.9671303033828735,-0.3056896924972534,-1.7140401601791382,-0.5407737493515015, 2.226428985595703
42,318527816,0.5538592,0.37870085,-0.60951895,0.42227057,9.773656845092773,-0.9847062826156616,-0.2731727957725525,-1.3440520763397217,-0.6743567585945129, 2.1952195167541504
43,318544483,0.55363035,0.37857693,-0.6096891,0.422436,9.786341667175293,-0.9156687259674072,-0.2867916524410248,-0.47343799471855164,-0.7736572623252869, 2.2226126194000244
44,318561150,0.55335873,0.37847397,-0.6099111,0.42256364,9.789060592651367,-0.9137904047966003,-0.3213236629962921,-0.5356512665748596,-1.3134832382202148, 2.2589058876037598
45,318577817,0.5530731,0.3784017,-0.6101314,0.42268428,9.73600959777832,-0.9680071473121643,-0.319606214761734,-0.6178679466247559,-1.4444025754928589, 2.158759832382202
46,318594484,0.55286723,0.37826306,-0.61038893,0.42270583,9.720830917358398,-1.0310320854187012,-0.3065459132194519,-1.2712607383728027,-1.3418493270874023, 1.9126604795455933
47,318611151,0.55267173,0.37819725,-0.6105477,0.4227911,9.77011775970459,-1.038046956062317,-0.35371679067611694,-0.7443562746047974,-0.9392048120498657, 1.5557729005813599
48,318627818,0.55252576,0.37815055,-0.61063635,0.42289582,9.767017364501953,-0.9590796828269958,-0.41691362857818604,-0.3795674443244934,-0.4730793833732605, 1.205493688583374
49,318644485,0.55241746,0.37809533,-0.6106814,0.42302167,9.791305541992188,-0.9656773209571838,-0.3984929919242859,-0.5321165919303894,-0.0205541905015707, 1.112250566482544
50,318661152,0.55232745,0.37801188,-0.61071044,0.42317164,9.784897804260254,-0.9382340908050537,-0.358477383852005,-0.14936046302318573,0.23908816277980804, 1.2192862033843994
51,318677819,0.55223876,0.37792963,-0.61073107,0.42333108,9.784454345703125,-0.9492942094802856,-0.3307304382324219,-0.10154155641794205,0.3076149523258209, 1.236152172088623
52,318694486,0.5521418,0.37783736,-0.61075705,0.4235025,9.76860237121582,-0.940653920173645,-0.33518728613853455,-0.3844466209411621,0.3431909680366516, 1.37981379032135
53,318711153,0.55211204,0.3776536,-0.6108302,0.42359972,9.78935718536377,-0.9568504095077515,-0.30394577980041504,-0.8062238097190857,0.467643141746521, 1.401200532913208
54,318727820,0.5520054,0.3775537,-0.6108776,0.42375907,9.77187442779541,-0.9868296980857849,-0.29510498046875,-0.9414588809013367,0.25797751545906067, 1.4801772832870483
55,318744487,0.551906,0.37744468,-0.6109455,0.423888,9.765890121459961,-1.0058850049972534,-0.32667428255081177,-0.7646543383598328,0.10996173322200775, 1.4233553409576416
56,318761154,0.55181086,0.37735215,-0.61102533,0.423979,9.749748229980469,-1.0295785665512085,-0.3345034420490265,-0.581728458404541,-0.0952792540192604, 1.216981053352356
57,318777821,0.5517167,0.37735102,-0.6109611,0.42419526,9.797758102416992,-1.1000633239746094,-0.3578808307647705,0.23223672807216644,0.5654067397117615, 0.9421182870864868
58,318794488,0.5516603,0.37740833,-0.6106888,0.42460954,9.697547912597656,-1.020110845565796,-0.3975309431552887,1.3787893056869507,1.9058347940444946, 0.7959722876548767
59,318811155,0.55168205,0.37731108,-0.6105441,0.42487556,9.761930465698242,-0.9403303861618042,-0.3495422303676605,0.32783615589141846,1.7526448965072632, 0.9603032469749451
60,318827822,0.55165076,0.37723407,-0.6104529,0.4251156,9.773134231567383,-0.9540426731109619,-0.31093958020210266,-0.26606476306915283,1.2629046440124512, 1.098496675491333
61,318844489,0.55157185,0.37717003,-0.6104451,0.42528602,9.794632911682129,-0.9866706132888794,-0.2703518271446228,-0.382973849773407,0.502092182636261, 1.137619972229004
62,318861156,0.5514454,0.37713394,-0.6104788,0.4254335,9.756108283996582,-0.9917743802070618,-0.3092247247695923,-0.48232555389404297,0.010136226192116737, 1.187885046005249
63,318877823,0.55133396,0.3770787,-0.6105496,0.42552534,9.765541076660156,-0.992712140083313,-0.2852339744567871,-0.8857128620147705,-0.16183383762836456, 1.1113927364349365
64,318894490,0.5512618,0.37701988,-0.61067945,0.42548463,9.737706184387207,-1.0597623586654663,-0.289834201335907,-1.7915823459625244,-0.5505192875862122, 0.6679854393005371
65,318911157,0.55123425,0.37692937,-0.6108152,0.42540562,9.735644340515137,-1.058885097503662,-0.33659616112709045,-1.8720959424972534,-0.42921754717826843, 0.5256556868553162
66,318927824,0.55120105,0.37686044,-0.6109707,0.4252864,9.731351852416992,-1.0445947647094727,-0.29806095361709595,-2.0455968379974365,-0.6875730156898499, 0.3469944894313812
67,318944491,0.55114836,0.37684205,-0.6110931,0.4251951,9.757040977478027,-1.0429737567901611,-0.35132625699043274,-1.8119192123413086,-0.698394238948822, 0.21621599793434143
68,318961158,0.55109525,0.37687945,-0.61114466,0.4251568,9.72797966003418,-1.073889136314392,-0.39223748445510864,-1.2779457569122314,-0.44194716215133667, 0.002516447799280286
69,318977825,0.55105877,0.37691072,-0.6111543,0.4251625,9.772029876708984,-1.0140563249588013,-0.35905003547668457,-0.9420735836029053,-0.08238324522972107, 0.02889752946794033
70,318994492,0.5510027,0.37693542,-0.6111846,0.42516962,9.764530181884766,-1.023972511291504,-0.35712650418281555,-0.8613423705101013,-0.22883668541908264, 0.17179079353809357
71,319011159,0.5509095,0.37712634,-0.6109691,0.42543074,9.814924240112305,-1.0911518335342407,-0.4042109251022339,1.6249656677246094,0.7265233993530273, -0.09161662310361862
72,319027826,0.550736,0.3775108,-0.61044526,0.42606613,9.690315246582031,-1.0403743982315063,-0.37728801369667053,4.858890056610107,1.9899982213974, -0.0524292066693306
73,319044493,0.5506503,0.37772778,-0.6100455,0.42655656,9.769906044006348,-0.9516666531562805,-0.3360230624675751,3.496371030807495,1.9588916301727295, 0.14964862167835236
74,319061160,0.5506366,0.37777656,-0.60978585,0.42690217,9.828418731689453,-0.9720420837402344,-0.23289205133914948,1.5172131061553955,1.8619729280471802, 0.4723173975944519
75,319077827,0.5506567,0.37771606,-0.6096835,0.42707607,9.861368179321289,-0.9546482563018799,-0.26894238591194153,0.1678336262702942,1.238610863685608, 0.5872671604156494
76,319094494,0.55067617,0.37756264,-0.60970867,0.4271507,9.790173530578613,-0.9577120542526245,-0.31752848625183105,-1.1960747241973877,0.7875457406044006, 0.9493027329444885
77,319111161,0.5506832,0.3773478,-0.6098347,0.42715153,9.733346939086914,-1.0464321374893188,-0.27378222346305847,-1.7336597442626953,0.31387725472450256, 1.225715160369873
78,319127828,0.5506596,0.37717655,-0.6099425,0.42717907,9.71653938293457,-1.0784094333648682,-0.3393338620662689,-1.7516909837722778,0.24162381887435913, 1.1977332830429077
79,319144495,0.5506572,0.37700137,-0.6100836,0.4271357,9.73007583618164,-1.0933252573013306,-0.3342442512512207,-1.9408023357391357,0.00667851185426116, 0.9570378065109253
80,319161162,0.55061764,0.37689775,-0.6102064,0.4271025,9.7596435546875,-1.0742849111557007,-0.28676262497901917,-1.9727286100387573,-0.2068737894296646, 0.7662999629974365
81,319177829,0.55058897,0.37673962,-0.6104272,0.42696348,9.760496139526367,-0.9879167079925537,-0.26545780897140503,-2.694366216659546,-0.674267053604126, 0.806037962436676
82,319194496,0.5505058,0.37659705,-0.61072385,0.42677218,9.795487403869629,-1.0571348667144775,-0.25720539689064026,-3.1485822200775146,-1.3505833148956299, 0.9110886454582214
83,319211163,0.550395,0.37649256,-0.6109909,0.42662504,9.780450820922852,-1.0390489101409912,-0.34921741485595703,-2.704162836074829,-1.3511465787887573, 0.9241893887519836
84,319227830,0.55027586,0.3764679,-0.6111753,0.42653617,9.773418426513672,-1.0950590372085571,-0.38587018847465515,-1.988442063331604,-1.1427619457244873, 0.6250460147857666
85,319244497,0.55012256,0.37659413,-0.6110686,0.42677554,9.738728523254395,-1.063762903213501,-0.37009701132774353,1.0090442895889282,0.21765030920505524, 0.5723862051963806
86,319261164,0.55003595,0.376636,-0.6109782,0.4269796,9.762972831726074,-1.0209791660308838,-0.3486446440219879,0.4734443426132202,0.5801596641540527, 0.6339462995529175
87,319277831,0.5499854,0.3765969,-0.6109536,0.42711425,9.788496017456055,-1.0365684032440186,-0.3048554062843323,-0.33643558621406555,0.5354782938957214, 0.7766090035438538
88,319294498,0.54989743,0.37652874,-0.6109744,0.42725798,9.776912689208984,-1.0024423599243164,-0.2977909445762634,-0.4036305546760559,0.3077686131000519, 1.1608892679214478
89,319311165,0.54975766,0.3764752,-0.6110498,0.42737728,9.776535034179688,-1.0351181030273438,-0.3091065287590027,-0.9850643873214722,-0.16600869596004486, 1.3220058679580688
90,319327832,0.5496047,0.37641558,-0.6111557,0.42747495,9.754280090332031,-1.04158616065979,-0.33586183190345764,-0.9545981287956238,-0.39724019169807434, 1.3799546957015991
91,319344499,0.5494674,0.37632152,-0.61130816,0.4275161,9.769630432128906,-1.0785343647003174,-0.30358439683914185,-1.1961127519607544,-0.5856342315673828, 1.3785200119018555
92,319361166,0.54935133,0.3762313,-0.611432,0.4275677,9.751338005065918,-1.1022104024887085,-0.3588128387928009,-1.3032892942428589,-0.3516879677772522, 1.270511507987976
93,319377833,0.5492537,0.37614524,-0.6115289,0.4276303,9.764370918273926,-1.0546752214431763,-0.38482198119163513,-1.5420253276824951,-0.11350267380475998, 1.1788820028305054
94,319394500,0.5491477,0.37611556,-0.6114299,0.42793402,9.74171257019043,-1.102190613746643,-0.36713528633117676,0.39515915513038635,1.0415596961975098, 1.3683521747589111
95,319411167,0.5490745,0.37602282,-0.61135125,0.4282217,9.745344161987305,-1.0583738088607788,-0.34212687611579895,0.19999034702777863,1.221821665763855, 1.5188393592834473
96,319427834,0.54897165,0.37590626,-0.6113418,0.42846945,9.750081062316895,-1.0573694705963135,-0.2859483063220978,-0.6379226446151733,0.8580446243286133, 1.7500324249267578
97,319444501,0.5488389,0.3758024,-0.6114122,0.42862982,9.778552055358887,-1.09334135055542,-0.2830606698989868,-0.9753316044807434,0.14863689243793488, 1.660144567489624
98,319461168,0.54872435,0.37568507,-0.6115253,0.42871803,9.737696647644043,-1.0966910123825073,-0.34282782673835754,-1.2367348670959473,-0.11698601394891739, 1.4932396411895752
99,319477835,0.5486058,0.3755942,-0.6116393,0.42878693,9.730705261230469,-1.1096529960632324,-0.3538302183151245,-1.0962364673614502,-0.27587440609931946, 1.3194447755813599
100,319494502,0.5484458,0.37559032,-0.6116581,0.428968,9.755843162536621,-1.0974595546722412,-0.356889009475708,-0.29384171962738037,-0.007274007424712181, 1.263698697090149
101,319511169,0.5482667,0.3755952,-0.61170626,0.42912406,9.74608039855957,-1.1116929054260254,-0.3100268244743347,0.025401394814252853,-0.3357824981212616, 1.2524546384811401
102,319527836,0.54807365,0.37561363,-0.6117895,0.42923567,9.721067428588867,-1.13379967212677,-0.3136711120605469,-0.37715983390808105,-0.6602185964584351, 1.1656275987625122
103,319544503,0.5479596,0.3755381,-0.61192477,0.42925456,9.729275703430176,-1.0894404649734497,-0.31225404143333435,-1.43691086769104,-0.49073928594589233, 1.1090363264083862
104,319561170,0.54786223,0.37539527,-0.6121831,0.4291356,9.753936767578125,-1.1362719535827637,-0.3045925199985504,-2.5757668018341064,-1.054295539855957, 1.1404118537902832
105,319577837,0.5476885,0.37535402,-0.61241275,0.4290655,9.777359962463379,-1.14461350440979,-0.3430526554584503,-1.876552700996399,-1.422747015953064, 1.052406668663025
106,319594504,0.5474742,0.37537697,-0.6126258,0.42901516,9.763903617858887,-1.148688554763794,-0.3823239505290985,-1.478582739830017,-1.6576155424118042, 0.9347930550575256
107,319611171,0.5472814,0.37539062,-0.6128249,0.4289646,9.742165565490723,-1.1291253566741943,-0.4379538595676422,-1.289970874786377,-1.5124555826187134, 0.8644094467163086
108,319627838,0.5470939,0.3754104,-0.6129913,0.42894864,9.745845794677734,-1.126274585723877,-0.36354586482048035,-1.3218841552734375,-1.2488878965377808, 0.8777791857719421
109,319644505,0.5469202,0.37542406,-0.6131854,0.4288809,9.786781311035156,-1.1048506498336792,-0.3553244173526764,-1.4954487085342407,-1.4360527992248535, 0.7351805567741394
110,319661172,0.5467037,0.3755039,-0.6133578,0.42884058,9.737303733825684,-1.1830168962478638,-0.29967984557151794,-1.077666997909546,-1.6413640975952148, 0.6362385749816895
111,319677839,0.54648495,0.37558886,-0.6135343,0.4287926,9.775634765625,-1.091785192489624,-0.40128445625305176,-0.9639851450920105,-1.7232736349105835, 0.5942209959030151
112,319694506,0.54628175,0.3756271,-0.6137307,0.42873678,9.731729507446289,-1.1479854583740234,-0.3655037581920624,-1.2170003652572632,-1.6163792610168457, 0.7693095207214355
113,319711173,0.54608786,0.3757165,-0.6138592,0.42872173,9.7715425491333,-1.1690891981124878,-0.43868157267570496,-1.077385425567627,-1.3194767236709595, 0.5174853801727295
114,319727840,0.545901,0.37582585,-0.61393964,0.4287484,9.759003639221191,-1.1010395288467407,-0.4854511022567749,-0.6763674020767212,-1.0582399368286133, 0.44291403889656067
115,319744507,0.54574335,0.375904,-0.6139979,0.42879722,9.783625602722168,-1.0900412797927856,-0.39533522725105286,-0.51146000623703,-0.7173092365264893, 0.5096991658210754
116,319761174,0.5456028,0.375921,-0.6140709,0.4288567,9.76606273651123,-1.0571534633636475,-0.4533510208129883,-0.5896042585372925,-0.5170051455497742, 0.7919382452964783
117,319777841,0.5454895,0.37592053,-0.61410964,0.42894572,9.734027862548828,-1.1138393878936768,-0.4598090350627899,-0.550570547580719,-0.13451789319515228, 0.8165776133537292
118,319794508,0.5454242,0.37586933,-0.614123,0.42905447,9.718230247497559,-1.1428539752960205,-0.42929333448410034,-0.7821733951568604,0.3813026547431946, 0.9026106595993042
119,319811175,0.5453998,0.3758109,-0.6141213,0.4291392,9.770901679992676,-1.1685248613357544,-0.38818907737731934,-0.9986391663551331,0.5766379833221436, 0.6847107410430908
120,319827842,0.54536843,0.3757811,-0.6140835,0.42925918,9.757205963134766,-1.1228538751602173,-0.38258665800094604,-0.7815971970558167,0.7111046314239502, 0.6282091736793518
121,319844509,0.545328,0.37575656,-0.6140607,0.42936447,9.751413345336914,-1.1457353830337524,-0.40619125962257385,-1.0934702157974243,0.5968079566955566, 0.6281962990760803
122,319861176,0.5453016,0.37571487,-0.6140663,0.4294264,9.74064826965332,-1.1440402269363403,-0.42975252866744995,-1.0119706392288208,0.43158042430877686, 0.5532919764518738
123,319877843,0.54527855,0.37570754,-0.61398655,0.42957613,9.713420867919922,-1.1572185754776,-0.4446074664592743,-0.16500984132289886,0.8784580230712891, 0.5031551122665405
124,319894510,0.54528934,0.3756718,-0.6139219,0.42968616,9.70976734161377,-1.1378284692764282,-0.3905300498008728,-0.5671292543411255,0.9499430656433105, 0.41167932748794556
125,319911177,0.5452662,0.37565842,-0.6138967,0.42976314,9.741412162780762,-1.1610538959503174,-0.37206703424453735,-0.946158766746521,0.548784077167511, 0.40915647149086
126,319927844,0.54522055,0.3756608,-0.61391276,0.42979595,9.738587379455566,-1.1448280811309814,-0.36100155115127563,-0.9258350133895874,0.11005136370658875, 0.34077054262161255
127,319944511,0.5451313,0.37568998,-0.6139712,0.42980012,9.722504615783691,-1.1469553709030151,-0.38572806119918823,-1.1037920713424683,-0.36764466762542725, 0.36503860354423523
128,319961178,0.5450112,0.37573802,-0.61406195,0.42978093,9.755720138549805,-1.166933536529541,-0.39512577652931213,-1.040131688117981,-0.7485824823379517, 0.369111031293869
129,319977845,0.5448464,0.3758379,-0.6141555,0.4297689,9.722250938415527,-1.1881343126296997,-0.403564989566803,-0.8350252509117126,-1.062017798423767, 0.3218940198421478
130,319994512,0.5447074,0.3759489,-0.6142181,0.42975855,9.72765064239502,-1.1545332670211792,-0.46459951996803284,-0.7932252287864685,-0.8626613020896912, 0.12344678491353989
131,320011179,0.54459196,0.3760511,-0.6142608,0.42975447,9.72984504699707,-1.164443016052246,-0.41583001613616943,-0.9174853563308716,-0.6226063370704651, 0.06908385455608368
132,320027846,0.54449636,0.37615934,-0.6142909,0.4297377,9.737979888916016,-1.162308692932129,-0.40035146474838257,-0.7713391780853271,-0.5673468708992004, -0.10364178568124771
133,320044513,0.54439443,0.37629354,-0.6142904,0.4297503,9.737923622131348,-1.1617199182510376,-0.46094435453414917,-0.552222490310669,-0.46453750133514404, -0.15928536653518677
134,320061180,0.5443199,0.3763922,-0.6142801,0.4297731,9.730241775512695,-1.1339902877807617,-0.42463886737823486,-0.4867437183856964,-0.2026604861021042, -0.08591780066490173
135,320077847,0.5442399,0.37648955,-0.6143044,0.4297541,9.751242637634277,-1.1382006406784058,-0.39314430952072144,-0.9121962189674377,-0.436337947845459, -0.12209572643041611
136,320094514,0.54418325,0.37654057,-0.6143589,0.4297033,9.759222030639648,-1.1433601379394531,-0.38960811495780945,-1.0272102355957031,-0.4441113770008087, -0.050892435014247894
137,320111181,0.5441167,0.37659693,-0.614451,0.4296068,9.729968070983887,-1.1546626091003418,-0.47234633564949036,-1.3754914999008179,-0.7472888231277466, -0.1112743690609932
138,320127848,0.5440385,0.37668017,-0.614479,0.42959267,9.736533164978027,-1.1663089990615845,-0.43008604645729065,-0.9657395482063293,-0.3822695314884186, -0.03617793321609497
139,320144515,0.5439563,0.3767614,-0.614461,0.42965126,9.731986999511719,-1.1826767921447754,-0.4738081395626068,-0.48107051849365234,-0.03542236238718033, 0.13465234637260437
140,320161182,0.54387003,0.37688425,-0.614395,0.42974693,9.727276802062988,-1.1854661703109741,-0.4479271173477173,-0.021629923954606056,0.1048007532954216, -0.016814736649394035
141,320177849,0.5437847,0.3770201,-0.6143344,0.4298225,9.747343063354492,-1.1447510719299316,-0.37417498230934143,0.06832827627658844,-0.020336484536528587, -0.14435318112373352
142,320194516,0.5437122,0.37729424,-0.6141404,0.4299509,9.814362525939941,-1.2195616960525513,-0.5500913262367249,1.2536710500717163,0.24756594002246857, -0.9177669882774353
143,320211183,0.5433218,0.37868142,-0.61243004,0.43166125,9.807344436645508,-1.4382888078689575,-0.3478164076805115,17.372224807739258,5.401397228240967, -2.6996326446533203
144,320227850,0.5426382,0.3805251,-0.61034715,0.43384427,9.692373275756836,-1.0687223672866821,-0.5155543684959412,23.329586029052734,5.372178077697754, -2.9941177368164062
145,320244517,0.5413532,0.3837139,-0.606694,0.43774775,9.996858596801758,-1.7393085956573486,-0.05391484126448631,42.48000717163086,9.116204261779785, -4.557260036468506
146,320261184,0.5397167,0.3891231,-0.598998,0.445523,9.856133460998535,-1.3436475992202759,-0.6992346048355103,80.38658142089844,26.14773178100586, -9.06473159790039
147,320277851,0.5391066,0.39223096,-0.59397906,0.45023087,9.14183521270752,-0.9132137894630432,-0.8287844657897949,49.887550354003906,19.098234176635742, -6.99131441116333
148,320294518,0.53877956,0.39405686,-0.5907003,0.4533309,9.313575744628906,-1.228419303894043,-0.5494576096534729,30.56609344482422,13.73283576965332, -3.841254472732544
149,320311185,0.5382666,0.39595133,-0.5875029,0.45643404,9.66816234588623,-1.4896236658096313,-0.061616621911525726,30.891027450561523,12.53887939453125, -3.3118629455566406
150,320327852,0.5371381,0.39866918,-0.5833076,0.46075794,9.670039176940918,-1.3999000787734985,-0.3754996359348297,43.63078308105469,14.48803997039795, -2.929192543029785
151,320344519,0.5353571,0.40178198,-0.5789001,0.4656597,9.841825485229492,-1.1607881784439087,-0.2928180694580078,49.88380432128906,13.005911827087402, -0.9126659035682678
152,320361186,0.5332525,0.4046671,-0.5754503,0.46983364,9.720464706420898,-0.8430027961730957,0.08493787050247192,44.004661560058594,6.925562858581543, 0.9923645853996277
153,320377853,0.53133494,0.40679452,-0.5732708,0.47282374,9.791749954223633,-0.6892828345298767,0.2673172056674957,31.86199951171875,2.1645946502685547, 2.5937623977661133
154,320394520,0.52974457,0.408173,-0.57205135,0.47489235,9.745841026306152,-0.6160730719566345,0.38392379879951477,21.4158935546875,-0.20470984280109406, 3.8254101276397705
155,320411187,0.5284907,0.40890995,-0.5714529,0.47637397,9.859519004821777,-0.7486489415168762,0.08118665963411331,13.804378509521484,-0.71629798412323, 4.883993148803711
156,320427854,0.5272818,0.40946183,-0.57096905,0.47781748,9.95151424407959,-0.9086880087852478,-0.04480357840657234,12.47104263305664,-0.4559704065322876, 5.670034408569336
157,320444521,0.52589136,0.41011384,-0.5705769,0.47925684,9.790512084960938,-0.8826879262924194,0.7409944534301758,13.049429893493652,-1.8372515439987183, 6.130743503570557
158,320461188,0.52459735,0.41064838,-0.57030094,0.48054403,9.70871639251709,-0.889222264289856,0.7764149904251099,11.340805053710938,-1.959347128868103, 6.066301345825195
159,320477855,0.5235875,0.41073006,-0.5703695,0.48149347,9.845211029052734,-0.899712860584259,-0.1483767032623291,6.446826934814453,-1.5891531705856323, 6.6720781326293945
160,320494522,0.52283955,0.4103719,-0.5707333,0.48217997,9.870895385742188,-0.9971697926521301,-0.22772173583507538,2.083625316619873,-0.8941522836685181, 7.43396520614624
161,320511189,0.52222615,0.4098405,-0.5711073,0.48285294,9.925802230834961,-0.9027901887893677,-0.06435952335596085,1.0310585498809814,0.14822711050510406, 7.660138130187988
162,320527856,0.5217936,0.40898818,-0.57169974,0.483342,9.808717727661133,-1.0038515329360962,0.08250682055950165,-2.091879367828369,0.6305015683174133, 8.294757843017578
163,320544523,0.52142733,0.40814972,-0.5721481,0.48391524,9.875062942504883,-1.2942911386489868,-0.024737942963838577,-1.4265892505645752,1.5987515449523926, 7.930737495422363
164,320561190,0.5211762,0.40730682,-0.572599,0.4843625,9.6776762008667,-1.0860940217971802,0.20021097362041473,-2.2196481227874756,1.702636480331421, 7.1196465492248535
165,320577857,0.5210665,0.40627202,-0.5734242,0.4843733,9.477205276489258,-1.1084027290344238,0.6608497500419617,-6.282015323638916,0.3284125030040741, 6.898365497589111
166,320594524,0.52110887,0.40500194,-0.57468903,0.4838922,9.503266334533691,-1.2396044731140137,0.3756938576698303,-10.936335563659668,-1.2760639190673828, 6.793113708496094
167,320611191,0.52121735,0.40362474,-0.5764311,0.4828531,9.603434562683105,-1.4567140340805054,0.2632301449775696,-15.286223411560059,-3.943181037902832, 6.328064918518066
168,320627858,0.5213185,0.40228412,-0.578638,0.48121998,9.479839324951172,-1.5251976251602173,0.23650211095809937,-19.00101661682129,-7.4243388175964355, 5.358076095581055
169,320644525,0.52158356,0.40071613,-0.58156246,0.47870904,9.474116325378418,-1.5282459259033203,0.10651004314422607,-26.12302017211914,-11.03371524810791, 4.543290138244629
170,320661192,0.52210444,0.3987349,-0.5852667,0.47526896,9.638646125793457,-1.5658812522888184,-0.12059774994850159,-34.54835891723633,-14.019245147705078, 4.155930519104004
171,320677859,0.52266085,0.39668706,-0.5891689,0.47153488,9.747390747070312,-1.4179751873016357,0.0048209428787231445,-36.74369812011719,-15.165555953979492, 3.7790277004241943
172,320694526,0.52335954,0.39458102,-0.5930591,0.4676339,9.845701217651367,-1.4091781377792358,-0.22472545504570007,-37.92689514160156,-14.82610034942627, 2.915440320968628
173,320711193,0.5239989,0.3925311,-0.59677744,0.4638979,9.850763320922852,-1.4318965673446655,-0.4977586567401886,-36.4095344543457,-14.167089462280273, 3.001831293106079
174,320727860,0.5246106,0.3906673,-0.6001526,0.4604127,9.852723121643066,-1.406146764755249,-0.4268623888492584,-33.540035247802734,-12.944167137145996, 2.3010616302490234
175,320744527,0.5252067,0.38890758,-0.60329443,0.45710483,9.858500480651855,-1.266535997390747,-0.2801567018032074,-31.74744415283203,-11.995296478271484, 1.9334787130355835
176,320761194,0.5257826,0.38727784,-0.6063172,0.45381534,9.835651397705078,-1.2412681579589844,-0.17503967881202698,-30.85177993774414,-11.99905776977539, 1.215564250946045
177,320777861,0.52637136,0.38579565,-0.6092753,0.4504208,9.737589836120605,-1.421043038368225,-0.23037074506282806,-30.694135665893555,-12.446694374084473, 0.02013806439936161
178,320794528,0.5269568,0.38452092,-0.61212677,0.4469465,9.676748275756836,-1.4091330766677856,-0.1512921303510666,-30.037574768066406,-12.924153327941895, -1.4087806940078735
179,320811195,0.52729994,0.38357878,-0.6149942,0.44340086,9.606072425842285,-1.3702034950256348,-0.09057532995939255,-28.615833282470703,-15.217076301574707, -2.2797439098358154
180,320827862,0.52714896,0.3830679,-0.61777097,0.44015,9.662697792053223,-1.4213184118270874,-0.4439336955547333,-24.35474395751953,-17.519716262817383, -1.763055682182312
181,320844529,0.52664214,0.3829505,-0.62030786,0.43728164,9.662075996398926,-1.3979692459106445,-0.5570029020309448,-19.68760108947754,-18.343788146972656, -1.6033848524093628
182,320861196,0.5258219,0.38322526,-0.6226793,0.43464994,9.692342758178711,-1.360649824142456,-0.581509530544281,-16.041961669921875,-19.623714447021484, -1.9081631898880005
183,320877863,0.52471834,0.38389078,-0.62503403,0.43200815,9.697824478149414,-1.289185881614685,-0.6402461528778076,-13.902606010437012,-21.971574783325195, -2.8126399517059326
184,320894530,0.5234641,0.3849281,-0.6273655,0.4292182,9.804581642150879,-1.3652244806289673,-0.7559531331062317,-12.808611869812012,-24.024147033691406, -4.548981189727783
185,320911197,0.52205074,0.38632253,-0.6297582,0.42617208,9.722437858581543,-1.331961750984192,-0.8081037998199463,-12.414606094360352,-26.66103744506836, -6.376916885375977
186,320927864,0.5203983,0.38797674,-0.6323307,0.4228686,9.672150611877441,-1.256224513053894,-0.8239316344261169,-12.527860641479492,-29.785676956176758, -7.241532325744629
187,320944531,0.51831704,0.38995647,-0.63531137,0.4191196,9.654203414916992,-1.129746675491333,-0.6396260857582092,-13.291420936584473,-35.26013946533203, -7.916619777679443
188,320961198,0.5155508,0.39248997,-0.6388874,0.41470724,9.816292762756348,-1.1168514490127563,-0.4365815222263336,-14.110118865966797,-43.76990509033203, -9.117359161376953
189,320977865,0.51183635,0.3958347,-0.6432518,0.4093481,10.040862083435059,-1.0985174179077148,-0.4079568684101105,-15.163544654846191,-55.628353118896484, -11.185587882995605
190,320994532,0.50679517,0.40060955,-0.6483938,0.40281045,10.647111892700195,-1.0060988664627075,-0.49495357275009155,-13.940664291381836,-71.51747131347656, -15.790550231933594
191,321011199,0.4999603,0.40757394,-0.6537067,0.3957156,11.533499717712402,-1.7155301570892334,-0.045634105801582336,-4.3767991065979,-87.76678466796875, -22.02488136291504
192,321027866,0.49074867,0.4167322,-0.65879625,0.38921422,11.84355354309082,-1.1241782903671265,0.08458587527275085,13.104183197021484,-102.09957885742188, -24.019227981567383
193,321044533,0.47975352,0.42635065,-0.6647674,0.38229066,12.541733741760254,-0.39758187532424927,-0.9457529187202454,15.867591857910156,-115.77285766601562, -20.298738479614258
194,321061200,0.46563876,0.4380897,-0.66945237,0.37827462,14.055135726928711,-0.4891687333583832,0.421758234500885,48.685184478759766,-122.94601440429688, -15.919326782226562
195,321077867,0.44998348,0.4491379,-0.67405105,0.37609234,15.725879669189453,-0.04094282165169716,-0.3190884590148926,59.777732849121094,-122.65823364257812, -3.0637617111206055
196,321094534,0.43233562,0.45904982,-0.6796664,0.37471694,17.696563720703125,-0.034682318568229675,1.0069643259048462,63.534446716308594,-129.83554077148438, 13.087839126586914
197,321111201,0.4118913,0.46773094,-0.6876728,0.37239727,18.82877540588379,-0.015758344903588295,2.2947475910186768,58.12882995605469,-150.17608642578125, 30.90116310119629
198,321127868,0.39001173,0.47551358,-0.69764054,0.36752596,17.490726470947266,-1.8497586250305176,2.1563615798950195,43.10176467895508,-168.89149475097656, 38.04221725463867
199,321144535,0.3668508,0.4839887,-0.7086888,0.35907644,16.515344619750977,-3.7400684356689453,0.38968348503112793,29.202951431274414,-191.8507843017578, 31.9449462890625
200,321161202,0.34397185,0.4935526,-0.71843964,0.34919018,15.874340057373047,-2.811084508895874,4.0929059982299805,27.13064193725586,-195.05995178222656, 17.96906089782715
201,321177869,0.32492372,0.5015194,-0.726721,0.33879125,11.922698974609375,-3.058264970779419,3.6933774948120117,11.254424095153809,-171.13375854492188, 10.47838020324707
202,321194536,0.31283095,0.50653183,-0.73359627,0.327718,7.803104400634766,-2.703308582305908,0.9806277751922607,-19.52614402770996,-129.14297485351562, 2.643876075744629
203,321211203,0.30813232,0.5092539,-0.7369463,0.3203519,7.7279887199401855,-4.158989906311035,6.599879741668701,-23.63196563720703,-66.42949676513672, -6.8422980308532715
204,321227870,0.30480686,0.51258916,-0.7337533,0.32550165,6.445990562438965,-3.7056946754455566,6.160815715789795,50.52064514160156,-3.6111299991607666, -9.473278999328613
205,321244537,0.3045073,0.5161196,-0.72651607,0.33625954,6.147152423858643,0.23544682562351227,6.599111080169678,77.47197723388672,39.052574157714844, -19.76807403564453
206,321261204,0.31065112,0.51667726,-0.71832234,0.3472086,5.653365612030029,0.2663661241531372,6.698319435119629,51.53102111816406,80.38550567626953, -22.68269920349121
207,321277871,0.3226528,0.5149478,-0.70867866,0.3584672,5.601999282836914,-0.38116252422332764,4.772248268127441,30.809894561767578,118.58464050292969, -29.77822494506836
208,321294538,0.33918187,0.5114699,-0.6969594,0.3709477,6.463221073150635,-0.36573219299316406,3.3423044681549072,21.96133041381836,153.5877227783203, -37.03279113769531
209,321311205,0.3585127,0.5066444,-0.68285257,0.3853476,7.8849053382873535,-0.3555036187171936,2.144063949584961,24.264198303222656,182.5200958251953, -41.62033462524414
210,321327872,0.37976742,0.50017816,-0.6666772,0.4014227,8.868592262268066,-0.14759017527103424,1.1706722974777222,29.831005096435547,206.0180206298828, -43.5996208190918
211,321344539,0.40283585,0.491886,-0.6488504,0.41804895,9.621930122375488,-0.0010949044954031706,0.3923340439796448,26.242008209228516,225.39962768554688, -44.322776794433594
212,321361206,0.42761952,0.4820208,-0.6296176,0.4340267,10.53011703491211,0.03759311884641647,-0.20082738995552063,14.046621322631836,239.7696990966797, -47.31357955932617
213,321377873,0.4541438,0.47023878,-0.60939187,0.44863197,11.652713775634766,-0.23942096531391144,-0.8837716579437256,-0.29414042830467224,251.32232666015625, -51.51224899291992
214,321394540,0.48181108,0.45607036,-0.5887836,0.46172714,12.580010414123535,-0.8889340758323669,-1.5618784427642822,-16.54697608947754,259.76861572265625, -51.00453567504883
215,321411207,0.5091546,0.43998072,-0.5676115,0.4743371,13.24354076385498,-1.0604122877120972,-1.8675578832626343,-22.03225326538086,264.9559631347656, -45.63733673095703
216,321427874,0.5348168,0.42303127,-0.54528165,0.48752803,13.760577201843262,-1.1700716018676758,-2.095045566558838,-13.87636947631836,267.1226501464844, -38.3350944519043
217,321444541,0.55769,0.40657157,-0.5208579,0.5023829,14.27892780303955,-1.1057740449905396,-2.67551851272583,9.325803756713867,267.7428283691406, -30.839664459228516
218,321461208,0.57886213,0.39134857,-0.4932146,0.5181742,15.279863357543945,-0.032037489116191864,-2.859046697616577,33.328609466552734,272.6125183105469, -34.80927658081055
219,321477875,0.6016371,0.37353843,-0.46642628,0.53004575,15.674120903015137,-0.2897140383720398,-6.239522457122803,2.3917157649993896,273.6483459472656, -45.012184143066406
220,321494542,0.6234001,0.3540347,-0.44333655,0.53803796,15.8478364944458,-2.147012948989868,-8.337067604064941,-27.916719436645508,251.84336853027344, -42.45916748046875
221,321511209,0.64164674,0.33656362,-0.42235604,0.54463726,14.585810661315918,-3.5546348094940186,-9.378701210021973,-22.635801315307617,221.84762573242188, -36.59440612792969
222,321527876,0.65601665,0.32265872,-0.40459865,0.5493938,12.695843696594238,-4.1818108558654785,-11.031291007995605,-15.262747764587402,179.4833221435547, -33.261077880859375
223,321544543,0.6668098,0.31154874,-0.39343148,0.55092096,11.17300033569336,-3.6214916706085205,-14.344561576843262,-28.490602493286133,122.8744888305664, -27.644229888916016
224,321561210,0.6724059,0.30277073,-0.39277548,0.54947937,10.10229206085205,-2.8731868267059326,-16.676761627197266,-54.42144012451172,46.336280822753906, -5.5062665939331055
225,321577877,0.67240906,0.2988773,-0.40193382,0.5449656,9.560567855834961,-2.6972663402557373,-17.604652404785156,-65.50269317626953,-38.02034378051758, 8.560201644897461
226,321594544,0.66631263,0.30455792,-0.41321698,0.54085463,9.283341407775879,-2.183806896209717,-14.223432540893555,-15.485288619995117,-98.7684326171875, 11.11016845703125
227,321611211,0.6550974,0.3199402,-0.418043,0.54196477,10.427891731262207,2.5615875720977783,14.078774452209473,78.58605194091797,-108.06939697265625, 12.906310081481934
228,321627878,0.6471845,0.3286526,-0.42477024,0.54102695,7.979351043701172,3.5118205547332764,16.8039608001709,28.22544288635254,-87.18098449707031, 14.832732200622559
229,321644545,0.6382871,0.33722737,-0.43658745,0.5368974,16.56707000732422,-4.871997356414795,-5.4133734703063965,1.4890775680541992,-119.98084259033203, 16.3461971282959
230,321661212,0.6221472,0.35249707,-0.44449845,0.53953683,13.254003524780273,-3.2747550010681152,-2.0318405628204346,82.50294494628906,-133.05111694335938, 43.45405960083008
231,321677879,0.6091351,0.36602655,-0.45222548,0.5389541,8.205604553222656,2.4854750633239746,3.3147175312042236,58.3654899597168,-123.74713134765625, 22.80076026916504
232,321694546,0.6004724,0.37063393,-0.46536645,0.5343196,10.154271125793457,-0.8007858395576477,-0.8373193740844727,-22.658105850219727,-110.0663070678711, 31.197797775268555
233,321711213,0.5924779,0.37473983,-0.47799364,0.5292091,12.361940383911133,-0.8846110105514526,-0.9936184883117676,-26.052946090698242,-105.00740051269531, 27.07215118408203
234,321727880,0.5865994,0.37764907,-0.48942903,0.5232033,11.501690864562988,-1.7787822484970093,-0.8281210660934448,-34.971595764160156,-90.96025085449219, 16.598312377929688
235,321744547,0.58053,0.38196597,-0.4977668,0.5189558,11.796133995056152,-0.4022858142852783,-0.30996060371398926,-11.718210220336914,-79.4529800415039, 11.566046714782715
236,321761214,0.5744152,0.38568112,-0.5051759,0.5158436,11.013436317443848,-0.5356488227844238,0.35837799310684204,-6.797839641571045,-70.65758514404297, 15.9085693359375
237,321777881,0.5675184,0.38957757,-0.51065874,0.5151505,10.823028564453125,0.22655655443668365,0.13857634365558624,11.234081268310547,-59.93062973022461, 22.513248443603516
238,321794548,0.56149954,0.39222756,-0.51562124,0.5147918,10.639575958251953,0.7417631149291992,0.6835664510726929,7.040962219238281,-49.447593688964844, 23.738712310791016
239,321811215,0.55748916,0.3927456,-0.52130806,0.513025,10.578959465026855,0.07076410204172134,0.7929583191871643,-14.161160469055176,-41.3516731262207, 20.782541275024414
240,321827882,0.5549764,0.3915041,-0.52778363,0.510069,10.502837181091309,-0.2768547832965851,0.7190044522285461,-31.989103317260742,-35.99876022338867, 19.438922882080078
241,321844549,0.55337864,0.38958097,-0.53414756,0.50664115,10.100069999694824,-2.026458978652954,0.06045132502913475,-38.367332458496094,-31.12331199645996, 16.656795501708984
242,321861216,0.55208117,0.3883153,-0.5391745,0.5036948,10.088628768920898,-1.9996283054351807,0.18811409175395966,-30.227306365966797,-25.900178909301758, 11.42564582824707
243,321877883,0.55086416,0.38766316,-0.5433124,0.50107676,9.977328300476074,-1.4821109771728516,0.32628074288368225,-23.805755615234375,-23.451133728027344, 7.723546504974365
244,321894550,0.5496805,0.3872005,-0.5470136,0.4987017,10.019693374633789,-0.9352397918701172,0.5298100709915161,-20.75858497619629,-21.6660213470459, 6.656103134155273
245,321911217,0.54868877,0.38638872,-0.5507401,0.49631628,9.947281837463379,-0.637160062789917,0.22345730662345886,-22.71212387084961,-19.871461868286133, 7.3631181716918945
246,321927884,0.5476551,0.38592613,-0.5535226,0.4947198,9.965137481689453,-1.1527268886566162,0.033643972128629684,-15.071526527404785,-15.556657791137695, 6.687725067138672
247,321944551,0.54620385,0.38634446,-0.5550002,0.49434224,9.833673477172852,-1.341412901878357,0.6061477661132812,-1.5641944408416748,-11.980925559997559, 5.891854286193848
248,321961218,0.5447913,0.38658574,-0.5568262,0.49365857,9.594603538513184,-1.1346064805984497,0.856616735458374,-4.682491302490234,-13.365691184997559, 6.208414077758789
249,321977885,0.5434722,0.38642132,-0.5596028,0.49209902,9.280547142028809,-1.6027652025222778,0.7060494422912598,-13.029791831970215,-17.546266555786133, 6.698327541351318
250,321994552,0.5420039,0.38642195,-0.5627053,0.49017623,9.102859497070312,-2.04758620262146,0.25264808535575867,-14.515172958374023,-20.88330078125, 6.065159320831299
251,322011219,0.540543,0.38676122,-0.5658338,0.48791525,9.151449203491211,-1.94692063331604,0.22270965576171875,-14.667254447937012,-23.014286041259766, 3.510646104812622
252,322027886,0.5390523,0.387293,-0.5690573,0.485387,9.31650161743164,-1.6711699962615967,0.122688427567482,-15.236067771911621,-24.89493751525879, 2.09782075881958
253,322044553,0.53753436,0.38788253,-0.572417,0.48264167,9.532835006713867,-1.3030319213867188,0.11161461472511292,-16.262737274169922,-26.357297897338867, 1.5126718282699585
254,322061220,0.5359747,0.38843724,-0.5760661,0.47957876,9.636940956115723,-1.288730502128601,0.2621079087257385,-18.503639221191406,-28.423311233520508, 1.3938424587249756
255,322077887,0.534264,0.38909462,-0.57994866,0.47626355,9.837092399597168,-1.294865608215332,0.24378785490989685,-19.507415771484375,-31.015615463256836, 1.1875191926956177
256,322094554,0.5324191,0.38987696,-0.584181,0.4725026,9.699158668518066,-1.2289189100265503,0.24101679027080536,-21.62920379638672,-34.56538391113281, 0.4354376494884491
257,322111221,0.5303878,0.39081353,-0.5888749,0.46816668,9.611366271972656,-1.4412680864334106,0.4162452220916748,-24.391305923461914,-39.1752815246582, -0.4369943141937256
258,322127888,0.52803516,0.3922357,-0.59389365,0.46327162,9.666240692138672,-1.6599812507629395,0.3808630108833313,-25.085641860961914,-44.8601188659668, -2.533926248550415
259,322144555,0.52518207,0.39452943,-0.59925044,0.45763442,9.863332748413086,-1.5551927089691162,0.28659307956695557,-24.69654083251953,-53.0334358215332, -6.288583755493164
260,322161222,0.5218044,0.39754716,-0.6049735,0.45131314,9.832414627075195,-1.667065978050232,0.16559571027755737,-24.648313522338867,-60.76600646972656, -9.10081958770752
261,322177889,0.5179443,0.40105286,-0.6110129,0.4444702,10.231630325317383,-1.2930352687835693,-0.33481234312057495,-24.746932983398438,-66.95169830322266, -10.647228240966797
262,322194556,0.51345086,0.40504158,-0.61746275,0.437092,10.466551780700684,-0.6457415819168091,-0.6351953744888306,-24.795921325683594,-74.11106872558594, -11.511587142944336
263,322211223,0.5081453,0.40955696,-0.62454355,0.42894885,10.759634017944336,-0.6697567701339722,-0.7911003828048706,-25.827289581298828,-83.57334899902344, -12.232398986816406
264,322227890,0.5018828,0.41513225,-0.63189185,0.4201093,11.215181350708008,-0.6801018714904785,-0.7584987282752991,-23.216886520385742,-93.77167510986328, -15.628345489501953
265,322244557,0.4941237,0.4225097,-0.6394358,0.41042572,12.094780921936035,-1.3320400714874268,-0.5384749174118042,-16.965471267700195,-108.63089752197266, -21.479537963867188
266,322261224,0.4843588,0.43149304,-0.64698744,0.40077174,12.988059997558594,-1.4006867408752441,0.38807743787765503,-5.5835137367248535,-121.99149322509766, -22.76252555847168
267,322277891,0.47052392,0.4443025,-0.65243727,0.3943709,14.804117202758789,-1.2459131479263306,1.2625185251235962,39.487388610839844,-134.07772827148438, -23.976716995239258
268,322294558,0.45424697,0.45817417,-0.65593165,0.39177775,17.54886817932129,-0.7014424800872803,1.3420711755752563,72.75862121582031,-130.0590362548828, -15.777518272399902
269,322311225,0.43551555,0.47067812,-0.66083086,0.38998842,18.638771057128906,-0.1795959770679474,2.893913984298706,76.05470275878906,-139.40951538085938, 3.9521541595458984
270,322327892,0.41458115,0.48096925,-0.6692897,0.38580117,18.84349250793457,0.04634452611207962,4.271827697753906,56.11227798461914,-162.03652954101562, 24.276857376098633
271,322344559,0.3923508,0.48956832,-0.6803112,0.37889376,18.02639389038086,-1.5510667562484741,4.20142126083374,36.25265121459961,-179.95394897460938, 36.249473571777344
272,322361226,0.36958942,0.4976126,-0.6931197,0.3679273,17.055038452148438,-4.899282455444336,2.4792559146881104,12.883954048156738,-199.60256958007812, 35.29743194580078
273,322377893,0.34843686,0.50627816,-0.70420015,0.35549438,15.363645553588867,-1.7918756008148193,5.94080924987793,6.307673454284668,-194.21487426757812, 18.590892791748047
274,322394560,0.33721033,0.510729,-0.71664006,0.33447328,10.694851875305176,-1.6390554904937744,3.988363265991211,-83.27098846435547,-169.11279296875, -1.1108723878860474
275,322411227,0.33505207,0.5110501,-0.7269066,0.31332892,10.686807632446289,-3.3973429203033447,7.881226062774658,-120.3070068359375,-110.36868286132812, -9.556653022766113
276,322427894,0.3362606,0.5105742,-0.7316569,0.3015312,8.546218872070312,-3.5591869354248047,6.992796897888184,-75.39295959472656,-46.352760314941406, -10.717753410339355
277,322444561,0.33830747,0.50962585,-0.73213476,0.29968044,7.730425834655762,-3.5562584400177,5.369872570037842,-20.552162170410156,3.5912580490112305, -2.113358497619629
278,322461228,0.34098235,0.50863856,-0.7280453,0.308169,5.940548419952393,-3.1268889904022217,5.271933078765869,38.59608459472656,53.66059875488281, 4.815498352050781
279,322477895,0.34636745,0.5076162,-0.7198407,0.32277715,5.178543567657471,-1.528883695602417,4.7035136222839355,68.37991333007812,98.3439712524414, -0.8026273846626282
280,322494562,0.35641974,0.5055913,-0.70855516,0.33954707,5.143843650817871,-0.7621535062789917,4.222805023193359,67.2454833984375,138.5567626953125, -11.794232368469238
281,322511229,0.37089643,0.5022684,-0.69460887,0.3573246,6.0323357582092285,-1.198586344718933,2.944108247756958,59.81748580932617,173.17724609375, -22.56937026977539
282,322527896,0.38890192,0.4976337,-0.67803,0.3760205,7.1478071212768555,-1.0116134881973267,1.470955491065979,55.15230178833008,203.16046142578125, -31.7186336517334
283,322544563,0.4093032,0.49135745,-0.6593117,0.39540738,8.633711814880371,-0.6848498582839966,0.3566991984844208,51.33375930786133,226.6892547607422, -35.72682571411133
284,322561230,0.431487,0.48317844,-0.6391612,0.41452503,9.995132446289062,-0.8730497360229492,-0.8816864490509033,42.6448860168457,243.0968475341797, -37.53519058227539
285,322577897,0.4552679,0.47305804,-0.6180431,0.4324002,10.928922653198242,-1.38359797000885,-1.637107253074646,28.888919830322266,254.4322052001953, -40.45145034790039
286,322594564,0.48039985,0.4603011,-0.5967,0.44865146,11.713170051574707,-2.3486573696136475,-2.252349376678467,10.019974708557129,263.4806213378906, -39.08130645751953
287,322611231,0.50498176,0.44538197,-0.57440555,0.4654963,12.594148635864258,-3.958991765975952,-3.8394486904144287,10.00007152557373,272.9697570800781, -29.57390022277832
288,322627898,0.5259875,0.43068245,-0.54902285,0.48623434,13.34913158416748,-4.35304594039917,-4.272844314575195,46.99362564086914,280.8610534667969, -14.95334529876709
289,322644565,0.5428027,0.4173816,-0.51976913,0.5108794,14.04845142364502,-3.678988218307495,-3.927844524383545,92.17827606201172,286.01708984375, -3.571125030517578
290,322661232,0.55789804,0.40505242,-0.48749304,0.5357546,13.96975326538086,-0.5566540956497192,-3.479091167449951,112.20100402832031,288.47576904296875, -8.825200080871582
291,322677899,0.57682383,0.3896133,-0.45804283,0.5528768,14.3237943649292,2.928510904312134,-2.0627613067626953,53.19590759277344,280.3937072753906, -34.37184524536133
292,322694566,0.60062647,0.36796352,-0.4355733,0.56047004,16.236427307128906,3.3539397716522217,-3.0527830123901367,-41.068843841552734,266.2038269042969, -52.4113883972168
293,322711233,0.6255555,0.3415912,-0.4197742,0.5619479,15.503771781921387,-0.10309647023677826,-4.981156826019287,-107.46244049072266,244.83299255371094, -50.95671844482422
294,322727900,0.647022,0.31503072,-0.406881,0.5626423,15.272687911987305,-4.785670757293701,-7.004153728485107,-113.6229248046875,221.3118133544922, -33.57276916503906
295,322744567,0.66273504,0.2913913,-0.39656827,0.5644529,15.094207763671875,-5.393968105316162,-11.115833282470703,-94.99479675292969,184.94961547851562, -8.953607559204102
296,322761234,0.6711248,0.27293763,-0.3932276,0.5660994,11.52863597869873,-4.026063919067383,-16.107946395874023,-84.16365814208984,112.8840103149414, 18.52704429626465
297,322777901,0.6728938,0.2614841,-0.39813393,0.5659764,9.236272811889648,0.16709674894809723,-16.41252326965332,-76.29019165039062,26.514148712158203, 32.672183990478516
298,322794568,0.67143744,0.25711372,-0.40925854,0.56175774,9.66299819946289,0.11475907266139984,-12.946208953857422,-73.11940002441406,-45.87118911743164, 18.08624267578125
299,322811235,0.6666861,0.26129246,-0.42068115,0.5570308,8.312231063842773,0.24933642148971558,-11.245304107666016,-30.400775909423828,-90.32640838623047, 4.955313205718994
300,322827902,0.6591214,0.27242252,-0.42933437,0.5540911,9.083165168762207,0.4744325578212738,-6.316085338592529,22.299983978271484,-109.09447479248047, -1.1507903337478638
301,322844569,0.6498754,0.2865903,-0.43344173,0.5546679,9.23096752166748,-0.3824015259742737,13.168989181518555,66.9153060913086,-98.39157104492188, 3.7077839374542236
302,322861236,0.6410004,0.2985728,-0.4350712,0.5573922,11.220270156860352,1.955674171447754,17.333406448364258,72.25579071044922,-73.74162292480469, 13.509273529052734
303,322877903,0.63177574,0.31155044,-0.44368455,0.55402166,20.461715698242188,1.5542514324188232,-7.634188175201416,32.338863372802734,-122.0103759765625, -0.6383681893348694
304,322894570,0.6173158,0.32598963,-0.4536454,0.55394757,14.378676414489746,0.9375997185707092,-0.2519507110118866,54.830806732177734,-142.23501586914062, 32.07083511352539
305,322911237,0.6066619,0.336298,-0.4633781,0.5514943,6.775302410125732,0.426231324672699,2.9268453121185303,22.214187622070312,-118.9654769897461, 19.856966018676758
306,322927904,0.5991298,0.3400392,-0.47538948,0.54719436,11.394206047058105,-2.00462007522583,-2.0692367553710938,-26.922128677368164,-97.91868591308594, 26.51435661315918
307,322944571,0.59212905,0.3436833,-0.48637655,0.54286546,10.248603820800781,-3.4731719493865967,0.8986314535140991,-24.79401397705078,-91.63958740234375, 22.314613342285156
308,322961238,0.58469576,0.34942442,-0.4940466,0.54032546,11.62671947479248,-1.9041295051574707,-0.45403391122817993,3.1379873752593994,-83.18512725830078, 16.34317970275879
309,322977905,0.5770246,0.355948,-0.5000036,0.53883225,11.091180801391602,-0.8785092830657959,0.6264027953147888,16.77994728088379,-77.48950958251953, 14.653762817382812
310,322994572,0.56967604,0.36170977,-0.50507194,0.53808695,11.30274772644043,-0.10924642533063889,0.5073476433753967,18.832361221313477,-68.20463562011719, 16.86917495727539
311,323011239,0.56340384,0.3654707,-0.5106014,0.53692967,10.369279861450195,0.022537844255566597,0.9745028018951416,5.183281898498535,-59.897979736328125, 19.375720977783203
312,323027906,0.55862516,0.36765414,-0.5162244,0.535052,10.59500789642334,-0.7068552374839783,0.7008630633354187,-7.554467678070068,-51.012229919433594, 16.855682373046875
313,323044573,0.55524296,0.36860856,-0.52149945,0.5327959,10.748790740966797,-0.670293927192688,0.6631145477294922,-15.867084503173828,-41.16181564331055, 13.754258155822754
314,323061240,0.552845,0.36895326,-0.5261893,0.53043455,10.458349227905273,-1.55971360206604,0.7386711835861206,-18.923049926757812,-33.439125061035156, 10.459137916564941
315,323077907,0.5507247,0.36970317,-0.52965236,0.5286685,10.428037643432617,-1.6074004173278809,0.6374044418334961,-11.458662986755371,-27.74667739868164, 7.132323265075684
316,323094574,0.5484549,0.37121835,-0.53185296,0.52775615,10.16223430633545,-1.7645639181137085,0.41907399892807007,-0.48292842507362366,-24.12932586669922, 4.911713123321533
317,323111241,0.54627657,0.37281463,-0.53341883,0.52730966,9.874825477600098,-1.5621082782745361,0.6487261056900024,3.5967397689819336,-20.511337280273438, 4.417154312133789
318,323127908,0.54443866,0.37417972,-0.53465873,0.52698785,9.861555099487305,-1.4520248174667358,0.6732507944107056,3.4947733879089355,-16.888750076293945, 3.661524772644043
319,323144575,0.5428428,0.3751049,-0.53626764,0.52634126,9.55150032043457,-1.5126771926879883,0.9383928775787354,-1.306710124015808,-16.628332138061523, 4.13427209854126
320,323161242,0.5416171,0.37541726,-0.53847516,0.5251262,9.44872760772705,-1.431333303451538,1.0406792163848877,-8.810664176940918,-16.756221771240234, 4.476510524749756
321,323177909,0.5406094,0.37532967,-0.5411567,0.52346796,9.457999229431152,-1.6474438905715942,1.0016816854476929,-14.216316223144531,-17.424863815307617, 4.7446393966674805
322,323194576,0.5395601,0.375231,-0.54413915,0.521526,9.49155330657959,-1.6888744831085205,1.0701491832733154,-16.289073944091797,-19.40058708190918, 4.658134460449219
323,323211243,0.5383291,0.37534353,-0.5474812,0.5192143,9.455649375915527,-1.8494871854782104,1.305166482925415,-17.70996856689453,-23.135473251342773, 4.0761518478393555
324,323227910,0.5370885,0.37556636,-0.55121166,0.51638323,9.256417274475098,-1.9264748096466064,1.0807418823242188,-20.620559692382812,-26.35905647277832, 2.7736804485321045
325,323244577,0.5358367,0.37572148,-0.5554029,0.5130693,9.202850341796875,-1.8142914772033691,0.80705326795578,-24.309032440185547,-29.126676559448242, 2.4744746685028076
326,323261244,0.53457874,0.3757398,-0.5602054,0.50913155,9.294496536254883,-1.8198819160461426,0.5947348475456238,-29.337646484375,-32.54908752441406, 2.2992353439331055
327,323277911,0.5330933,0.37585762,-0.5655338,0.5046922,9.37051773071289,-1.7528358697891235,0.5925735235214233,-32.1600456237793,-37.021121978759766, 2.2270619869232178
328,323294578,0.531343,0.37625745,-0.57108915,0.49996215,9.509990692138672,-1.7257840633392334,0.4638003408908844,-32.36302947998047,-40.632713317871094, 1.5699771642684937
329,323311245,0.529332,0.37701347,-0.57680905,0.49493432,9.630464553833008,-1.8007429838180542,0.30359745025634766,-32.12436294555664,-44.27384948730469, 0.4062921404838562
330,323327912,0.52715975,0.37804222,-0.5826991,0.48953903,9.455602645874023,-1.9196381568908691,0.21392399072647095,-32.75409698486328,-47.433658599853516, -1.0230599641799927
331,323344579,0.52493066,0.37912187,-0.5889434,0.48359075,9.405559539794922,-1.9449048042297363,0.023919306695461273,-35.832481384277344,-50.574825286865234, -2.1208372116088867
332,323361246,0.5225609,0.38052723,-0.5954523,0.47703838,9.600756645202637,-1.9954262971878052,-0.07823317497968674,-37.61949920654297,-54.77614212036133, -4.464504718780518
333,323377913,0.5197941,0.38254836,-0.6019865,0.47019476,10.006989479064941,-1.8489792346954346,-0.09649844467639923,-35.64764404296875,-59.294456481933594, -6.665562629699707
334,323394580,0.51648885,0.38484842,-0.6089776,0.462901,10.176401138305664,-1.3935168981552124,0.036258116364479065,-36.57847595214844,-65.2602767944336, -6.487159729003906
335,323411247,0.5127593,0.38692665,-0.61678016,0.4549154,10.38235855102539,-1.1050095558166504,-0.19011500477790833,-41.72597885131836,-71.0655746459961, -4.513796329498291
336,323427914,0.50841004,0.38908318,-0.6254078,0.44609272,10.541061401367188,-0.9988331198692322,-0.3340354561805725,-45.93451690673828,-79.09468078613281, -3.658177614212036
337,323444581,0.50302047,0.39205426,-0.63438386,0.4368307,10.824715614318848,-1.077507734298706,-0.3721446394920349,-45.10698318481445,-88.16767883300781, -4.394279479980469
338,323461248,0.4964408,0.3959723,-0.643835,0.426883,11.167771339416504,-1.1940076351165771,-0.26225847005844116,-41.207584381103516,-100.0279769897461, -6.209646224975586
339,323477915,0.48815477,0.4011792,-0.6537435,0.41638878,12.108240127563477,-1.2874324321746826,-0.1686723828315735,-35.926944732666016,-114.43743896484375, -7.52402400970459
340,323494582,0.47729632,0.40844578,-0.66390795,0.40569273,13.799263954162598,-1.4535648822784424,0.23911121487617493,-23.56085777282715,-133.34188842773438, -9.386919975280762
341,323511249,0.46329516,0.4166888,-0.6751157,0.3949011,15.082488059997559,-0.5897766351699829,0.8706566095352173,-14.879661560058594,-154.14227294921875, -2.459244966506958
342,323527916,0.4463808,0.42449513,-0.6878979,0.38385516,16.8265323638916,0.4610694646835327,1.1282461881637573,-13.381576538085938,-172.2731170654297, 11.188713073730469
343,323544583,0.426341,0.43295357,-0.70042306,0.37442246,19.58765411376953,0.38865426182746887,2.9874866008758545,6.053602695465088,-183.33641052246094, 20.574199676513672
344,323561250,0.40478972,0.44343394,-0.7081927,0.37144965,22.457921981811523,-0.532216489315033,6.20758056640625,59.83610534667969,-162.72561645507812, 19.52889060974121
345,323577917,0.38315418,0.45212594,-0.7173076,0.36639452,18.541976928710938,0.23294706642627716,6.305934429168701,41.531044006347656,-168.77708435058594, 26.780376434326172
346,323594584,0.36388156,0.45900163,-0.73115426,0.3497449,16.49055290222168,-1.0129278898239136,7.967066764831543,-39.71390151977539,-201.16917419433594, 13.97016429901123
347,323611251,0.3504964,0.4643507,-0.74320805,0.33041283,13.384543418884277,-5.268550395965576,4.979354381561279,-71.29830932617188,-171.9828338623047, -4.882415771484375
348,323627918,0.34238833,0.4681337,-0.75291,0.31104296,7.967406272888184,-5.9735107421875,0.7756918668746948,-86.79315185546875,-135.97891235351562, -16.50275230407715
349,323644585,0.33937395,0.4700467,-0.7608237,0.29159737,6.575163841247559,-5.644678592681885,-4.849930286407471,-104.1791763305664,-101.6604232788086, -23.696712493896484
350,323661252,0.33954766,0.47182614,-0.76356405,0.28117198,8.361659049987793,-7.650773525238037,5.512863636016846,-57.246429443359375,-43.46112823486328, -25.101930618286133
351,323677919,0.3408357,0.47512424,-0.75911236,0.28607082,3.1390137672424316,-5.576619625091553,8.24429702758789,37.00157165527344,25.8986873626709, -22.827024459838867
352,323694586,0.34451944,0.48037636,-0.74880546,0.29972538,3.8277969360351562,-0.9306235313415527,3.4694011211395264,90.94951629638672,76.8399429321289, -36.37074661254883
353,323711253,0.3527241,0.48439866,-0.735619,0.31592482,5.677837371826172,0.0966358482837677,3.3701775074005127,92.14997863769531,117.86439514160156, -42.82784652709961
354,323727920,0.366036,0.48551342,-0.7207146,0.3329637,5.4577813148498535,-1.5532162189483643,3.597459554672241,76.07801055908203,156.9561309814453, -42.883880615234375
355,323744587,0.38239944,0.48525167,-0.70253843,0.35318732,6.389134407043457,-3.587721109390259,1.78989577293396,85.70755004882812,194.0841827392578, -45.95290756225586
356,323761254,0.39953163,0.48514014,-0.6802248,0.37723714,7.747778415679932,-2.9271352291107178,0.34577476978302,112.07705688476562,221.08135986328125, -52.29969024658203
357,323777921,0.41869304,0.48354128,-0.65565336,0.40125152,9.078938484191895,-1.8243637084960938,0.36172226071357727,106.92082977294922,240.52066040039062, -58.23659133911133
358,323794588,0.44017527,0.47967815,-0.6303333,0.42288843,10.53143310546875,-1.4419546127319336,-0.28282615542411804,84.03974151611328,251.4801025390625, -63.7588996887207
359,323811255,0.4639282,0.47306672,-0.6052471,0.44119695,12.088890075683594,-1.5729396343231201,-2.1502676010131836,53.13400650024414,257.6306457519531, -67.74645233154297
360,323827922,0.48873937,0.46339628,-0.5814656,0.45639428,13.559383392333984,-2.628221273422241,-3.0306472778320312,23.0356502532959,257.0519104003906, -63.905906677246094
361,323844589,0.5133042,0.45080456,-0.5585417,0.4704523,13.617715835571289,-4.736913204193115,-3.8111770153045654,6.766343593597412,258.7550354003906, -52.55930709838867
362,323861256,0.53474814,0.4375187,-0.5340123,0.48729149,13.653282165527344,-6.521548271179199,-4.80264139175415,33.281681060791016,263.1319885253906, -34.982643127441406
363,323877923,0.5510166,0.42554384,-0.50676596,0.50841075,14.153435707092285,-5.3289618492126465,-4.559291839599609,77.91094207763672,262.7287292480469, -14.712908744812012
364,323894590,0.563229,0.41494167,-0.47760293,0.53150004,13.379449844360352,-3.3454320430755615,-4.782161712646484,105.78536987304688,257.0482482910156, -3.705155611038208
365,323911257,0.5763057,0.40312234,-0.4501437,0.5502137,12.652275085449219,0.5822242498397827,-3.505683660507202,78.0163345336914,245.3140106201172, -14.96346378326416
366,323927924,0.5931965,0.3862995,-0.42914706,0.56100243,13.552119255065918,2.5095441341400146,-3.415414810180664,-1.366449236869812,228.5271759033203, -27.38100242614746
367,323944591,0.61273193,0.36423907,-0.41474304,0.56557757,13.103372573852539,1.497257113456726,-3.953272819519043,-73.52750396728516,213.213134765625, -29.93435287475586
368,323961258,0.6324727,0.34014452,-0.40371484,0.56682867,11.824989318847656,-2.0308661460876465,-3.688508987426758,-105.22283935546875,199.24440002441406, -30.465003967285156
369,323977925,0.6495975,0.316723,-0.3944175,0.5675778,12.87680721282959,-4.572269916534424,-3.6051483154296875,-104.30323028564453,180.733154296875, -20.28154945373535
370,323994592,0.6627066,0.2950597,-0.38718635,0.5690752,12.4000883102417,-4.348386764526367,-5.012815952301025,-93.71217346191406,155.46224975585938, -1.559341549873352
371,324011259,0.6720998,0.27547553,-0.38422146,0.5698851,10.1348876953125,-2.018841505050659,-8.210896492004395,-95.19606018066406,116.69284057617188, 12.950288772583008
372,324027926,0.67784554,0.2589294,-0.38856477,0.5678895,10.244542121887207,0.32015755772590637,-10.53476619720459,-110.27745819091797,56.176536560058594, 20.0992374420166
373,324044593,0.6798572,0.24757734,-0.39861804,0.5635631,10.718963623046875,-1.327420711517334,-10.165746688842773,-107.93721771240234,-4.713679313659668, 20.13203239440918
374,324061260,0.6775505,0.24444188,-0.4093825,0.5599819,8.804059982299805,-2.0521929264068604,-9.408105850219727,-62.8746452331543,-50.317657470703125, 19.053728103637695
375,324077927,0.6717467,0.24845767,-0.41992214,0.5573964,8.570136070251465,-2.383204221725464,-8.150236129760742,-19.996427536010742,-84.8689956665039, 16.650516510009766
376,324094594,0.66083384,0.26355162,-0.42407754,0.56035477,9.505087852478027,-1.8135334253311157,-3.2861268520355225,80.392578125,-103.03318786621094, 18.927942276000977
377,324111261,0.6448221,0.28812736,-0.41699466,0.5721036,10.281615257263184,-2.5461976528167725,20.729101181030273,201.68035888671875,-87.40116882324219, 30.467557907104492
378,324127928,0.63011473,0.31284854,-0.40905765,0.58116543,10.841679573059082,9.293766021728516,5.2770795822143555,195.37754821777344,-85.92739868164062, 11.266162872314453
379,324144595,0.61856264,0.32978922,-0.4163768,0.57900757,20.136131286621094,3.762922763824463,-4.731716632843018,62.29125213623047,-136.20452880859375, 4.8120269775390625
380,324161262,0.604718,0.34398666,-0.425561,0.57869446,11.61459732055664,2.2855031490325928,1.6787344217300415,53.666202545166016,-135.4806365966797, 33.90102005004883
381,324177929,0.5968195,0.35015795,-0.4380853,0.57382697,7.228464603424072,2.9094982147216797,2.6027865409851074,-20.39312744140625,-110.78831481933594, 22.713611602783203
382,324194596,0.59205437,0.35046905,-0.45315054,0.5668313,11.773439407348633,-3.4959404468536377,-1.7769885063171387,-68.43074035644531,-93.7967529296875, 25.42717742919922
383,324211263,0.58596104,0.35393727,-0.46423915,0.5620145,10.82478141784668,-3.748758554458618,0.4823615252971649,-30.07337188720703,-88.75672149658203, 20.040822982788086
384,324227930,0.57912344,0.35991296,-0.47178042,0.5590187,11.333332061767578,-2.5945465564727783,-0.7062429785728455,1.3722143173217773,-82.08374786376953, 13.594378471374512
385,324244597,0.5714088,0.3675317,-0.47670195,0.55782413,10.99704647064209,-1.6335783004760742,0.8715575337409973,26.004911422729492,-76.33072662353516, 12.30777359008789
386,324261264,0.5637081,0.37511465,-0.4800011,0.5577824,10.548540115356445,-0.06330554187297821,1.0210206508636475,35.83278274536133,-66.85546875, 12.789449691772461
387,324277931,0.55737203,0.3804532,-0.48401463,0.5570654,10.204813957214355,0.07458760589361191,1.3857370615005493,18.64516830444336,-58.254493713378906, 14.193902969360352
388,324294598,0.55248505,0.38357463,-0.48913205,0.55532056,10.88785171508789,0.22912850975990295,1.2357349395751953,-1.2917128801345825,-51.86516189575195, 14.980912208557129
389,324311265,0.5490684,0.38450152,-0.49563968,0.55228984,10.228019714355469,-0.4310874044895172,1.4634653329849243,-23.139270782470703,-47.21629333496094, 15.547194480895996
390,324327932,0.5466689,0.38462692,-0.50182354,0.54898864,9.943896293640137,-1.9072158336639404,0.9391536712646484,-28.54660987854004,-40.20771408081055, 12.553121566772461
391,324344599,0.54446733,0.38531503,-0.5068083,0.5461072,10.030686378479004,-2.0992162227630615,0.7325949668884277,-20.978073120117188,-36.03483581542969, 8.270219802856445
392,324361266,0.54219246,0.38659137,-0.5108777,0.5436713,9.827381134033203,-1.766220211982727,0.831815779209137,-13.589727401733398,-33.89340591430664, 5.734614372253418
393,324377933,0.5402567,0.38764977,-0.5149592,0.5409875,9.806766510009766,-1.3002039194107056,0.7463348507881165,-16.219011306762695,-32.59563446044922, 4.338779926300049
394,324394600,0.538806,0.3880222,-0.51973784,0.53758687,9.653067588806152,-0.8875536322593689,0.6790702939033508,-25.1904239654541,-32.82980728149414, 4.16318416595459
395,324411267,0.5376218,0.38788563,-0.52510595,0.5336397,9.877426147460938,-0.9870359897613525,0.7274084091186523,-31.918947219848633,-33.64155578613281, 4.556988716125488
396,324427934,0.5365604,0.38758263,-0.53031063,0.52976745,9.77504825592041,-1.3558756113052368,0.9648073315620422,-31.99195098876953,-31.787696838378906, 4.5587921142578125
397,324444601,0.53566384,0.3871668,-0.53514063,0.52610934,9.632806777954102,-1.5249764919281006,1.028095006942749,-30.7030086517334,-28.831655502319336, 4.168166637420654
398,324461268,0.5346399,0.38701233,-0.53962195,0.52267593,9.550708770751953,-1.8670107126235962,0.9104257822036743,-27.314380645751953,-28.37549591064453, 3.5708208084106445
399,324477935,0.53329146,0.38746932,-0.54357064,0.5196141,9.425996780395508,-2.0708372592926025,0.6723107695579529,-20.91114616394043,-28.844831466674805, 2.4160377979278564
400,324494602,0.5316306,0.38856485,-0.5469402,0.51695526,9.541949272155762,-1.892945408821106,0.49259698390960693,-14.164244651794434,-29.113815307617188, 1.0762431621551514
401,324511269,0.52983576,0.39004287,-0.5501989,0.5142199,9.685194969177246,-1.4021397829055786,0.620473325252533,-12.304054260253906,-30.793071746826172, -0.46551257371902466
402,324527936,0.52791816,0.39144474,-0.5538786,0.5111673,9.681151390075684,-1.1887305974960327,0.7847214341163635,-14.944503784179688,-33.39371109008789, 0.23300619423389435
403,324544603,0.5259079,0.39271623,-0.5581251,0.5076334,9.62851619720459,-1.3251113891601562,0.6106211543083191,-18.997604370117188,-36.66705322265625, 0.8385840654373169
404,324561270,0.5236588,0.3941179,-0.5627062,0.50380015,9.556503295898438,-1.5276930332183838,0.4912101626396179,-20.202285766601562,-40.08080291748047, 0.9975639581680298
405,324577937,0.521057,0.39603418,-0.5676155,0.49946904,9.470211029052734,-1.7545808553695679,0.5404571890830994,-20.460168838500977,-45.78565216064453, -0.6734790802001953
406,324594604,0.5181002,0.398749,-0.57281494,0.49442354,9.460869789123535,-2.0824880599975586,0.6284445524215698,-20.421480178833008,-52.92413330078125, -4.3421831130981445
407,324611271,0.51494545,0.40216333,-0.5783183,0.48851216,9.565346717834473,-2.0230209827423096,0.4280422031879425,-21.835729598999023,-59.567474365234375, -8.680998802185059
408,324627938,0.5115417,0.40610263,-0.5842767,0.48169157,9.78249454498291,-1.5376789569854736,0.07341398298740387,-24.437944412231445,-66.47368621826172, -11.897635459899902
409,324644605,0.50733215,0.41071784,-0.5905912,0.47447544,9.961960792541504,-1.1693880558013916,-0.1796419471502304,-28.16089630126953,-73.49411010742188, -12.279579162597656
410,324661272,0.5024444,0.4155419,-0.59768194,0.4665309,10.176090240478516,-1.2942112684249878,-0.23752932250499725,-30.694467544555664,-81.78428649902344, -11.137716293334961
411,324677939,0.496822,0.42074317,-0.60557127,0.45763138,10.53973388671875,-1.5277767181396484,-0.02770877629518509,-33.90789794921875,-91.52578735351562, -11.19954776763916
412,324694606,0.49031124,0.42657655,-0.6143361,0.4474579,10.925539016723633,-1.3251553773880005,-0.02256472408771515,-36.66741180419922,-104.01985168457031, -12.747751235961914
413,324711273,0.48238626,0.4335743,-0.6238943,0.4359734,12.091346740722656,-1.1722220182418823,-0.3713664412498474,-36.473243713378906,-120.16558074951172, -15.255398750305176
414,324727940,0.47176534,0.44260702,-0.6339282,0.42387706,14.03363037109375,-1.254105806350708,-0.12224073708057404,-25.602108001708984,-141.30860900878906, -16.349212646484375
415,324744607,0.45841137,0.45190045,-0.64501363,0.4118285,15.37203598022461,-0.030183052644133568,0.41120100021362305,-18.98329734802246,-157.34542846679688, -6.023374080657959
416,324761274,0.4414383,0.4618296,-0.656955,0.4003197,18.05561637878418,0.531869113445282,0.9655061960220337,-5.4955902099609375,-176.30735778808594, 5.926538467407227
417,324777941,0.41992867,0.4728741,-0.6680717,0.3920847,20.71824836730957,1.1574732065200806,2.4865479469299316,33.23619079589844,-187.53848266601562, 19.687753677368164
418,324794608,0.3960436,0.48361507,-0.67824167,0.38633433,22.32450294494629,0.4929597079753876,4.083992958068848,54.0536994934082,-186.92474365234375, 31.615901947021484
419,324811275,0.37203544,0.49366906,-0.6885771,0.37913352,19.15846824645996,-0.0599987655878067,6.193946361541748,45.3878288269043,-191.07846069335938, 31.777326583862305
420,324827942,0.35054424,0.5022994,-0.70156515,0.364171,16.926651000976562,-0.8887699246406555,7.758749485015869,-10.470474243164062,-208.72866821289062, 21.12757110595703
421,324844609,0.33578494,0.5078382,-0.71404994,0.34566104,13.725469589233398,-4.524991989135742,5.654165744781494,-57.040096282958984,-179.69338989257812, 8.902932167053223
422,324861276,0.32703343,0.5109259,-0.72393745,0.32850987,8.076507568359375,-4.0077362060546875,2.3890836238861084,-70.85993957519531,-133.73318481445312, 0.6926169991493225
423,324877943,0.32727373,0.51037145,-0.73398316,0.3060746,6.4166579246521,-3.777717113494873,-3.6143529415130615,-137.32415771484375,-99.7170181274414, -12.85755443572998
424,324894610,0.331043,0.5088087,-0.73887646,0.2925507,8.078750610351562,-6.5241289138793945,5.247371196746826,-96.16626739501953,-36.89884948730469, -13.266460418701172
425,324911277,0.33638352,0.5079182,-0.73721725,0.29219192,3.966852903366089,-4.653957843780518,7.205989360809326,-20.111892700195312,30.6278076171875, -12.855274200439453
426,324927944,0.34343052,0.5085688,-0.7302277,0.30030143,5.273265361785889,-0.4085312485694885,2.7847418785095215,31.097745895385742,78.02210998535156, -23.157121658325195
427,324944611,0.35327086,0.5072466,-0.72135884,0.3123174,5.7915358543396,-0.8738421201705933,2.542792320251465,40.171695709228516,114.19147491455078, -16.359500885009766
428,324961278,0.36619776,0.50332904,-0.7105483,0.3281471,5.212852954864502,-2.5882246494293213,3.2929084300994873,46.19097900390625,153.0677947998047, -7.618582725524902
429,324977945,0.38139072,0.49864534,-0.6961093,0.34831887,5.836811542510986,-2.7808682918548584,1.7668359279632568,65.81599426269531,190.01107788085938, -10.621593475341797
430,324994612,0.39806598,0.49364328,-0.67818016,0.37139148,7.106996059417725,-1.0010701417922974,0.4769185185432434,82.14341735839844,216.9608612060547, -17.01542854309082
431,325011279,0.41738954,0.4868654,-0.65816796,0.39441472,8.237040519714355,-0.08299776166677475,0.30951976776123047,73.39202117919922,239.38108825683594, -22.69341278076172
432,325027946,0.43901822,0.47825715,-0.636623,0.41622624,9.48324966430664,0.566307544708252,-0.35808444023132324,59.106292724609375,255.1199951171875, -29.253328323364258
433,325044613,0.46309555,0.46718872,-0.6147996,0.4350849,11.240819931030273,1.2492213249206543,-1.3187419176101685,31.50841522216797,264.015625, -35.301788330078125
434,325061280,0.4895721,0.45259824,-0.5940681,0.45006347,12.755593299865723,0.80295330286026,-2.1546449661254883,-5.303715705871582,268.5850524902344, -36.71421432495117
435,325077947,0.51705784,0.4349663,-0.57379746,0.46283072,12.994010925292969,-0.8521457314491272,-2.5320560932159424,-29.466232299804688,273.77178955078125, -33.24091720581055
436,325094614,0.5435168,0.41599646,-0.55181664,0.47648212,13.483866691589355,-2.138397455215454,-2.893433094024658,-22.612661361694336,282.79815673828125, -26.55465316772461
437,325111281,0.5670456,0.39722776,-0.52698714,0.4929038,14.726290702819824,-3.2152340412139893,-3.4913289546966553,5.347118377685547,289.73944091796875, -15.521063804626465
438,325127948,0.5859413,0.3807136,-0.4978202,0.5137172,15.464373588562012,-3.499986171722412,-3.9396986961364746,57.42805862426758,294.2980041503906, -2.7297699451446533
439,325144615,0.60084534,0.36865065,-0.46325502,0.5371001,15.5701904296875,0.7136508822441101,-3.856250286102295,113.70538330078125,293.4874267578125, -7.661041736602783
440,325161282,0.61937827,0.3531671,-0.43361297,0.55102044,15.273641586303711,2.5491199493408203,-2.819493532180786,42.0340461730957,273.4291076660156, -36.762245178222656
441,325177949,0.6384528,0.33542216,-0.4094349,0.5587782,16.192720413208008,1.3029643297195435,-6.665725231170654,-8.002243995666504,245.45640563964844, -45.01515579223633
442,325194616,0.6565986,0.31632277,-0.39165217,0.5616288,14.67065715789795,-1.2394782304763794,-8.97813606262207,-50.19938659667969,208.78736877441406, -44.40920639038086
443,325211283,0.6703111,0.29858997,-0.37970325,0.5633406,12.779485702514648,-5.065572738647461,-12.799839973449707,-59.97184753417969,162.9124755859375, -23.428546905517578
444,325227950,0.677699,0.2843381,-0.37682772,0.56380576,11.714279174804688,-4.719138145446777,-16.594242095947266,-69.30743408203125,88.72887420654297, 4.825923919677734
445,325244617,0.6787106,0.2760101,-0.38543552,0.560901,9.317948341369629,-2.5781686305999756,-17.450944900512695,-82.44825744628906,-10.626523971557617, 20.91520118713379
446,325261284,0.67437667,0.2777576,-0.39833888,0.5562312,8.470090866088867,-0.9755798578262329,-14.382858276367188,-46.50288772583008,-86.83129119873047, 14.739495277404785
447,325277951,0.6669374,0.28835553,-0.40879524,0.5522067,9.27620792388916,1.0807873010635376,-8.661888122558594,11.604538917541504,-116.43452453613281, 0.6935420632362366
448,325294618,0.65640354,0.30400476,-0.41313902,0.55320126,10.68598461151123,1.0090351104736328,13.430876731872559,78.21969604492188,-106.21541595458984, 9.144047737121582
449,325311285,0.64537996,0.31716856,-0.41435078,0.5578551,8.314568519592285,0.9758200645446777,16.46799087524414,90.3198013305664,-76.47203826904297, 28.029956817626953
450,325327952,0.63475335,0.33095115,-0.4202132,0.5576564,16.034788131713867,2.414304733276367,-5.253558158874512,60.52294158935547,-109.08617401123047, 13.352059364318848
451,325344619,0.6204141,0.34490365,-0.43029442,0.55765104,15.234745979309082,0.40288597345352173,-0.6353219747543335,54.09199523925781,-138.32127380371094, 37.55925750732422
452,325361286,0.6088726,0.35524482,-0.441205,0.55535,8.006794929504395,0.34522324800491333,3.5630836486816406,22.084266662597656,-125.11698913574219, 29.68981170654297
453,325377953,0.6004228,0.3588766,-0.45448968,0.5514883,8.763181686401367,-1.5538192987442017,-0.13025730848312378,-27.35268783569336,-103.89558410644531, 37.510860443115234
454,325394620,0.59487563,0.36043152,-0.46845883,0.5447556,11.410798072814941,-2.160264015197754,-0.4541456997394562,-54.64402770996094,-96.84359741210938, 22.82951545715332
455,325411287,0.58929807,0.3628907,-0.47980663,0.53928083,12.120086669921875,-3.3825535774230957,-1.4784923791885376,-36.98761749267578,-86.45963287353516, 18.67641258239746
456,325427954,0.5828428,0.36766496,-0.4876869,0.53598356,12.280539512634277,0.20126919448375702,-0.11154316365718842,-5.363714218139648,-78.41719818115234, 14.442281723022461
457,325444621,0.57654023,0.37097353,-0.49519905,0.5336271,11.289795875549316,-0.11670821160078049,-0.04589550942182541,-7.109460830688477,-68.63107299804688, 21.650075912475586
458,325461288,0.57014424,0.3738559,-0.5013947,0.5327014,10.676355361938477,-0.16332779824733734,0.836253821849823,1.145243525505066,-58.50528335571289, 25.767677307128906
459,325477955,0.56490356,0.3755347,-0.50706536,0.5317354,9.979233741760254,-0.9158359169960022,0.7647517323493958,-4.75362491607666,-48.16230773925781, 24.18928337097168
460,325494622,0.5606775,0.3764737,-0.51259,0.53024507,10.368720054626465,-0.9903055429458618,1.2338016033172607,-11.535889625549316,-42.711326599121094, 20.64756202697754
461,325511289,0.5578172,0.37605482,-0.5188718,0.52744174,10.217708587646484,-1.1546236276626587,0.8392607569694519,-27.690080642700195,-39.27506637573242, 17.361324310302734
462,325527956,0.55572194,0.37526712,-0.5248521,0.52428824,9.851496696472168,-2.1658198833465576,0.5246741771697998,-31.23550033569336,-34.964447021484375, 13.78770637512207
463,325544623,0.5541327,0.37472582,-0.53024065,0.5209247,9.941010475158691,-1.7934293746948242,0.63057541847229,-30.220626831054688,-32.31144332885742, 8.74204158782959
464,325561290,0.5527461,0.3743419,-0.53534883,0.5174376,9.966910362243652,-1.5647555589675903,0.22976745665073395,-29.587371826171875,-31.391658782958984, 6.250827312469482
465,325577957,0.55144453,0.37406364,-0.5399923,0.51419246,9.962508201599121,-1.338131308555603,0.10758865624666214,-26.85957145690918,-29.067476272583008, 5.287572860717773
466,325594624,0.55022204,0.37376177,-0.54440856,0.5110552,9.933752059936523,-1.2408398389816284,0.3212680220603943,-25.946565628051758,-27.551532745361328, 4.926455497741699
467,325611291,0.5490855,0.37354392,-0.54839176,0.5081697,9.874626159667969,-1.4777973890304565,0.4458570182323456,-23.385799407958984,-25.243572235107422, 4.157861709594727
468,325627958,0.54808813,0.37357953,-0.5518679,0.50545007,9.681817054748535,-1.638765811920166,0.711345911026001,-20.38901710510254,-23.270597457885742, 2.043548107147217
469,325644625,0.5473257,0.37366268,-0.5551163,0.50264996,9.557905197143555,-1.5145621299743652,0.5322104692459106,-20.32819938659668,-21.902910232543945, 0.15971489250659943
470,325661292,0.54656947,0.3737952,-0.5584998,0.49961704,9.450672149658203,-1.5072550773620605,0.7467621564865112,-21.515382766723633,-23.16480827331543, -0.5759676098823547
471,325677959,0.5455536,0.3742244,-0.561851,0.49663955,9.47512149810791,-1.6353960037231445,0.6300926208496094,-19.410663604736328,-24.928682327270508, -0.6957841515541077
472,325694626,0.54421747,0.3751959,-0.5650133,0.49377686,9.526046752929688,-1.636670470237732,0.38755127787590027,-15.465253829956055,-27.024627685546875, -1.7527596950531006
473,325711293,0.542664,0.3765916,-0.56812876,0.49084064,9.626938819885254,-1.3269398212432861,0.31063276529312134,-13.445653915405273,-29.33171844482422, -3.0591022968292236
474,325727960,0.5410347,0.37798902,-0.57159835,0.48752567,9.608899116516113,-1.2826253175735474,0.46653324365615845,-15.918850898742676,-31.942777633666992, -3.3025803565979004
475,325744627,0.539428,0.37926078,-0.575438,0.48378694,9.660994529724121,-1.1738992929458618,0.24698399007320404,-19.353342056274414,-33.920631408691406, -3.49469256401062
476,325761294,0.5375145,0.38082394,-0.57951903,0.4798011,9.603097915649414,-1.3560854196548462,0.09958648681640625,-19.254444122314453,-37.65143585205078, -3.908151388168335
477,325777961,0.53519005,0.38297874,-0.5836768,0.4756265,9.558124542236328,-1.6546595096588135,0.10759077966213226,-16.99923324584961,-42.02500534057617, -5.403665542602539
478,325794628,0.53249276,0.38577145,-0.5879163,0.47115427,9.568413734436035,-1.7157223224639893,0.2509896159172058,-15.133841514587402,-46.69973373413086, -7.626631259918213
479,325811295,0.5295154,0.38908687,-0.59251475,0.4659951,9.657681465148926,-1.737191081047058,0.26111656427383423,-16.42000961303711,-52.67403030395508, -10.398089408874512
480,325827962,0.52634346,0.39269906,-0.5975567,0.46008286,9.954242706298828,-1.3432276248931885,-0.0664309561252594,-19.311538696289062,-58.06028366088867, -12.542917251586914
481,325844629,0.5226707,0.39652762,-0.60316664,0.45362025,10.108782768249512,-0.8811972141265869,-0.36040276288986206,-21.238407135009766,-64.35472106933594, -12.30343246459961
482,325861296,0.51824456,0.40068942,-0.60931706,0.44676998,10.38255500793457,-0.8161428570747375,-0.4608442783355713,-21.282812118530273,-71.52649688720703, -11.246646881103516
483,325877963,0.5128287,0.405477,-0.61597264,0.43951455,10.586262702941895,-0.8395782113075256,-0.520021378993988,-19.57789421081543,-80.52239990234375, -10.87033462524414
484,325894630,0.506603,0.4107488,-0.623438,0.43123558,10.990928649902344,-0.9922020435333252,-0.3236204981803894,-22.39564323425293,-91.13786315917969, -11.81768798828125
485,325911297,0.49954206,0.41652107,-0.63178,0.42168945,11.464254379272461,-1.0082558393478394,-0.31491363048553467,-26.327869415283203,-102.85601806640625, -13.417281150817871
486,325927964,0.49126667,0.42337775,-0.64089364,0.4106873,12.673569679260254,-1.3361597061157227,-0.33167412877082825,-27.690458297729492,-118.12348937988281, -17.39179039001465
487,325944631,0.48077577,0.43168437,-0.6503785,0.3993884,13.972404479980469,-1.193536639213562,0.23004209995269775,-18.703968048095703,-134.13604736328125, -17.444664001464844
488,325961298,0.46762592,0.4403753,-0.6610893,0.38775855,15.470475196838379,0.022180579602718353,0.7079616785049438,-14.391275405883789,-152.1750946044922, -9.313521385192871
489,325977965,0.4509719,0.44936243,-0.67340535,0.37579682,18.042970657348633,0.14615412056446075,1.5442736148834229,-8.614893913269043,-175.14178466796875, 2.4970285892486572
490,325994632,0.43027967,0.45915872,-0.685837,0.3655959,20.401569366455078,0.2971598207950592,3.4266610145568848,14.232427597045898,-190.96786499023438, 15.0270357131958
491,326011299,0.40714535,0.47036716,-0.6952533,0.36001426,22.52825355529785,-0.4485730826854706,5.47771692276001,55.488975524902344,-182.69900512695312, 18.682861328125
492,326027966,0.38636965,0.47974822,-0.7037704,0.3539316,19.3359317779541,0.15695229172706604,8.311216354370117,42.56928634643555,-166.22842407226562, 17.29677963256836
493,326044633,0.3682638,0.48787078,-0.7130015,0.34350145,15.618782043457031,-2.9801511764526367,7.345073223114014,7.63508415222168,-166.74713134765625, 7.7310895919799805
494,326061300,0.3552036,0.49266514,-0.724403,0.32611626,10.589190483093262,-7.470455646514893,-0.49103546142578125,-56.97521209716797,-163.21292114257812, 1.784874677658081
495,326077967,0.3465963,0.49580893,-0.73397076,0.30875826,7.170595169067383,-4.904407024383545,-0.9511070251464844,-71.89830780029297,-132.84146118164062, -6.217675685882568
496,326094634,0.34537432,0.49623764,-0.74116373,0.29178968,8.076165199279785,-5.019313812255859,3.189394474029541,-96.57628631591797,-82.86858367919922, -15.42905044555664
497,326111301,0.34852314,0.49559847,-0.7428389,0.28478843,5.585175037384033,-5.779069423675537,7.081261157989502,-52.20899963378906,-11.462625503540039, -13.981725692749023
498,326127968,0.35342863,0.49552038,-0.7396902,0.28706536,3.784675121307373,-2.9091975688934326,4.191066265106201,-0.07984808832406998,39.43177032470703, -14.567415237426758
499,326144635,0.35938305,0.49510628,-0.7330558,0.29722574,5.014804840087891,-1.8526700735092163,3.3493340015411377,42.47529602050781,80.66437530517578, -7.678223133087158
500,326161302,0.36853296,0.49270964,-0.7239344,0.31199327,4.156609535217285,-2.4384407997131348,3.4228200912475586,54.98811340332031,122.55850982666016, -1.305331826210022
501,326177969,0.3814496,0.48869008,-0.7117646,0.33025658,4.346393585205078,-3.0449581146240234,2.4453885555267334,62.0397834777832,164.2767333984375, -2.7936630249023438
502,326194636,0.39758003,0.48360807,-0.6961281,0.35136768,5.541390895843506,-3.1327335834503174,1.0040528774261475,70.2493896484375,201.0162811279297, -9.09560489654541
503,326211303,0.41549656,0.47773448,-0.67700213,0.37523404,7.024559497833252,-3.330366611480713,0.06749150156974792,83.76239776611328,230.1329803466797, -13.717331886291504
504,326227970,0.4338719,0.4716058,-0.65409815,0.4018693,8.254294395446777,-2.582073211669922,-0.9651182293891907,104.17378997802734,252.77882385253906, -18.23335838317871
505,326244637,0.4533028,0.46421593,-0.6291461,0.4280135,10.079265594482422,-1.0132023096084595,-1.7491872310638428,100.45398712158203,265.5024108886719, -23.586271286010742
506,326261304,0.47479412,0.4540993,-0.6041861,0.45091408,11.837638854980469,-1.2776687145233154,-3.150513172149658,71.3890151977539,272.0963439941406, -27.966123580932617
507,326277971,0.4966219,0.44135243,-0.579796,0.4716051,12.959478378295898,-1.5497856140136719,-3.9029319286346436,50.83061981201172,272.9089660644531, -23.50257110595703
508,326294638,0.5180033,0.4268065,-0.5549106,0.4915111,12.894935607910156,-3.1352319717407227,-4.001181602478027,44.544769287109375,276.32806396484375, -19.060470581054688
509,326311305,0.53732353,0.4119172,-0.52801144,0.5126516,14.09376335144043,-2.8351731300354004,-3.60575008392334,60.92122268676758,280.50079345703125, -12.318284034729004
510,326327972,0.55583614,0.3957075,-0.5012002,0.5322219,15.144026756286621,0.13239237666130066,-3.130749225616455,52.3486213684082,277.5379638671875, -10.24276351928711
511,326344639,0.57702553,0.37541,-0.47876954,0.54487485,14.775931358337402,1.1145691871643066,-2.877957582473755,-10.415760040283203,266.2583923339844, -20.440841674804688
512,326361306,0.6000864,0.35166365,-0.4603597,0.5516321,15.231575965881348,3.8264591693878174,-3.6198740005493164,-63.393089294433594,254.29226684570312, -29.08194923400879
513,326377973,0.6249867,0.32284376,-0.44856253,0.55132127,14.924076080322266,3.777667284011841,-5.981504440307617,-136.24887084960938,235.1488800048828, -33.107887268066406
514,326394640,0.6475696,0.29296237,-0.44011614,0.54874814,13.485530853271484,-0.7367802262306213,-7.572400093078613,-155.35586547851562,212.82034301757812, -23.265666961669922
515,326411307,0.6645376,0.2687188,-0.430926,0.548163,14.288806915283203,-3.460710048675537,-8.121908187866211,-110.0801010131836,182.1092987060547, -11.785520553588867
516,326427974,0.67513967,0.2530058,-0.42193553,0.54967743,11.638890266418457,-1.750835657119751,-10.617313385009766,-53.80980682373047,134.33261108398438, -3.131652355194092
517,326444641,0.6789452,0.24569193,-0.41760507,0.5516113,9.912371635437012,-0.7418723106384277,-13.288758277893066,-19.345478057861328,62.27467346191406, 8.246114730834961
518,326461308,0.67631114,0.24773462,-0.4177989,0.55378264,10.208508491516113,-1.0155669450759888,-13.211226463317871,18.77617073059082,-12.076456069946289, 14.568507194519043
519,326477975,0.66882855,0.25928482,-0.4203334,0.5556616,9.21377944946289,0.2019396424293518,-11.452176094055176,61.5423698425293,-73.24252319335938, 8.34207820892334
520,326494642,0.6597445,0.2738617,-0.4269368,0.5544928,10.464613914489746,0.482463538646698,-4.920976161956787,53.99227523803711,-113.27826690673828, -1.0490520000457764
521,326511309,0.6511327,0.2874765,-0.43356556,0.55263436,11.475035667419434,-0.7548222541809082,13.910074234008789,46.6231575012207,-109.4398193359375, -3.101891040802002
522,326527976,0.64460546,0.29661492,-0.44075277,0.5497641,11.249117851257324,1.227118730545044,5.479219913482666,17.29713249206543,-90.86782836914062, -1.1099085807800293
523,326544643,0.6358585,0.30722564,-0.44944227,0.54708165,14.784153938293457,-0.4009605050086975,-1.5826294422149658,23.218549728393555,-109.43998718261719, 6.747983932495117
524,326561310,0.62503844,0.3190084,-0.4570206,0.54652804,10.121543884277344,0.5050284266471863,1.2223066091537476,43.49441146850586,-110.73835754394531, 17.888385772705078
525,326577977,0.61728674,0.3273572,-0.4658865,0.54290354,10.006617546081543,-0.4737066626548767,0.40057528018951416,7.517988681793213,-100.40351867675781, 6.789101600646973
526,326594644,0.60971403,0.33379966,-0.47384304,0.54064745,11.157659530639648,-1.7898937463760376,-0.4632195830345154,6.811246395111084,-85.70909881591797, 15.99255657196045
527,326611311,0.6031127,0.33910787,-0.48196226,0.53756243,12.100770950317383,0.17681285738945007,-0.08382994681596756,-3.4573347568511963,-80.82426452636719, 12.958392143249512
528,326627978,0.59767383,0.342938,-0.4896966,0.5342068,11.117072105407715,-1.2944906949996948,0.07710736989974976,-11.764540672302246,-70.46414947509766, 11.570103645324707
529,326644645,0.5923235,0.34666413,-0.49569702,0.53222317,11.112163543701172,0.19738245010375977,0.3285536766052246,-1.398292064666748,-59.35989761352539, 13.143434524536133
530,326661312,0.58749527,0.34906885,-0.50160164,0.53046787,10.53481674194336,-0.38203856348991394,1.0573244094848633,-6.887686252593994,-51.75602340698242, 16.467262268066406
531,326677979,0.58285767,0.3509372,-0.5071198,0.5291028,10.049714088439941,-0.6830558180809021,1.4079630374908447,-6.746062278747559,-46.61463165283203, 18.29053497314453
532,326694646,0.5790405,0.35195187,-0.5128494,0.5270937,9.650162696838379,-1.3303214311599731,1.739062786102295,-15.151176452636719,-43.03388214111328, 16.22736167907715
533,326711313,0.5759603,0.35252616,-0.5187759,0.5242776,9.795684814453125,-1.6488664150238037,1.4255434274673462,-22.23634910583496,-41.57354736328125, 12.379815101623535
534,326727980,0.5734077,0.35320342,-0.52470696,0.5207053,9.815526962280273,-2.0040862560272217,1.2640080451965332,-25.812421798706055,-41.90550994873047, 7.130363464355469
535,326744647,0.57123727,0.35415938,-0.5303001,0.5167601,9.690228462219238,-1.9144856929779053,1.1561778783798218,-25.76910972595215,-41.08796310424805, 2.4637765884399414
536,326761314,0.56924504,0.35521907,-0.5357735,0.51256824,9.686387062072754,-1.625258207321167,0.819862425327301,-26.265026092529297,-40.92932891845703, 0.19252584874629974
537,326777981,0.5674136,0.3560061,-0.54139006,0.508132,9.82606029510498,-1.0844037532806396,0.7614033222198486,-29.125471115112305,-40.52006912231445, 0.029653359204530716
538,326794648,0.5656405,0.35647088,-0.5471485,0.50359493,10.02557373046875,-1.0669832229614258,0.5188008546829224,-31.393875122070312,-39.965675354003906, 1.0008701086044312
539,326811315,0.56390274,0.35702527,-0.55241954,0.4993791,9.920522689819336,-1.3207964897155762,0.4030367434024811,-28.23307228088379,-37.446311950683594, 0.6190445423126221
540,326827982,0.56220776,0.35782167,-0.5570937,0.4955128,9.790733337402344,-1.5266849994659424,0.4018520712852478,-24.018508911132812,-34.9285888671875, -0.5423010587692261
541,326844649,0.56061417,0.35874543,-0.56122833,0.49197194,9.636773109436035,-1.790314793586731,0.500643789768219,-20.688817977905273,-32.07637023925781, -1.4368031024932861
542,326861316,0.5592281,0.3597919,-0.56497157,0.4884886,9.73808479309082,-1.584084153175354,0.6393049955368042,-19.18032455444336,-30.035661697387695, -3.3557398319244385
543,326877983,0.55781806,0.36099258,-0.56855905,0.48504022,9.83621597290039,-1.393431544303894,0.5961781144142151,-17.869327545166016,-29.96063232421875, -4.121024131774902
544,326894650,0.5561819,0.36252522,-0.57198834,0.48173323,9.74919319152832,-1.5221244096755981,0.5123880505561829,-14.955267906188965,-30.995084762573242, -4.507303714752197
545,326911317,0.55427504,0.36433622,-0.5752014,0.47872958,9.59737777709961,-1.5500597953796387,0.3326078951358795,-11.307833671569824,-31.400129318237305, -4.082334995269775
546,326927984,0.55229586,0.36624178,-0.57835686,0.47575176,9.575214385986328,-1.4709384441375732,0.1888854056596756,-10.475482940673828,-31.71259307861328, -4.264723777770996
547,326944651,0.5503515,0.36804157,-0.58168244,0.47255084,9.64907169342041,-1.1889984607696533,0.11201408505439758,-12.408140182495117,-32.43463134765625, -4.376038551330566
548,326961318,0.5483149,0.36984438,-0.58543307,0.46886495,9.684080123901367,-1.100259780883789,0.1818838119506836,-15.485711097717285,-35.64850616455078, -4.838738441467285
549,326977985,0.5460159,0.37197724,-0.5896119,0.4646046,9.667778015136719,-1.4204987287521362,0.3277163803577423,-17.268329620361328,-40.84705352783203, -6.386404991149902
550,326994652,0.54322356,0.37478462,-0.5942286,0.45971423,9.583780288696289,-1.454653263092041,0.4982909858226776,-17.42937660217285,-48.267948150634766, -8.786314010620117
551,327011319,0.5398978,0.37841275,-0.5994111,0.45389488,9.535225868225098,-1.7641551494598389,0.43261995911598206,-18.57881736755371,-57.56655502319336, -12.464280128479004
552,327027986,0.5359541,0.3829333,-0.6050344,0.44726792,9.754619598388672,-1.524611234664917,0.361066997051239,-18.36941909790039,-66.65708923339844, -16.071561813354492
553,327044653,0.5312563,0.38819143,-0.6112424,0.43983746,9.921141624450684,-1.4279855489730835,0.03281676024198532,-18.815046310424805,-76.35562133789062, -18.244983673095703
554,327061320,0.52583736,0.39378768,-0.6182,0.43157288,10.225418090820312,-1.1649693250656128,-0.29096150398254395,-21.43458366394043,-85.39469146728516, -18.531417846679688
555,327077987,0.5197357,0.39950064,-0.6258666,0.42256993,10.65768814086914,-0.9032624959945679,-0.25989702343940735,-24.4135799407959,-93.22581481933594, -17.744976043701172
556,327094654,0.51263875,0.4057347,-0.6342873,0.41262645,11.705288887023926,-0.7251352071762085,-0.5663204789161682,-26.061424255371094,-104.32998657226562, -18.372730255126953
557,327111321,0.50364643,0.41329226,-0.6433908,0.40196815,12.845690727233887,-1.1069624423980713,-0.4268331527709961,-21.16651153564453,-120.78556060791016, -19.365877151489258
558,327127988,0.49195826,0.42212903,-0.6528335,0.3919088,13.740594863891602,-0.721591591835022,-0.027519941329956055,-12.433067321777344,-135.23995971679688, -13.637508392333984
559,327144655,0.4780394,0.43092695,-0.66328156,0.3818872,15.583858489990234,0.21614547073841095,0.23255303502082825,-7.623728275299072,-148.63510131835938, -4.3995680809021
560,327161322,0.46088517,0.4405418,-0.67461646,0.37202203,18.420804977416992,0.39601394534111023,1.4065800905227661,2.863753318786621,-168.08045959472656, 3.790910482406616
561,327177989,0.43934897,0.45250943,-0.6845689,0.36547682,21.82709503173828,0.24162250757217407,3.510652542114258,43.71236038208008,-180.27320861816406, 10.30154800415039
562,327194656,0.41564688,0.46598157,-0.6910677,0.36403912,22.18952178955078,-0.24578651785850525,5.993417739868164,89.13636016845703,-168.33775329589844, 13.004117012023926
563,327211323,0.3917769,0.47853163,-0.69829553,0.36041883,18.290067672729492,-2.041531801223755,7.212337493896484,76.7069091796875,-176.50262451171875, 13.201268196105957
564,327227990,0.3701886,0.48864067,-0.7084974,0.34960282,13.794837951660156,-2.6999292373657227,5.562385082244873,20.444246292114258,-191.5346221923828, 9.763631820678711
565,327244657,0.35492808,0.49589485,-0.717911,0.3357352,10.228690147399902,-4.199457168579102,2.7614781856536865,-21.09248924255371,-162.3909454345703, -1.9805610179901123
566,327261324,0.3477193,0.4995865,-0.72693837,0.31790754,7.000225067138672,-4.552583694458008,-1.6673762798309326,-75.9510726928711,-127.18596649169922, -14.030400276184082
567,327277991,0.34725127,0.500842,-0.7316268,0.30544433,8.923251152038574,-5.556142807006836,5.618464946746826,-68.68276977539062,-59.431251525878906, -18.751867294311523
568,327294658,0.34913507,0.5023795,-0.7294888,0.30588546,4.473363876342773,-4.438689708709717,8.24677848815918,3.0461044311523438,12.27884578704834, -17.904497146606445
569,327311325,0.35344857,0.504021,-0.72304565,0.31343606,5.525251388549805,-0.8626546859741211,5.08884334564209,39.53371810913086,58.885772705078125, -21.418460845947266
570,327327992,0.3611156,0.5031542,-0.71472144,0.3249686,5.584690570831299,-1.935315728187561,4.513012886047363,45.646663665771484,99.13976287841797, -13.012740135192871
571,327344659,0.37262803,0.5000571,-0.7037411,0.3403529,4.917243957519531,-2.9952683448791504,4.150333881378174,51.636329650878906,142.76486206054688, -10.285337448120117
572,327361326,0.38778767,0.4954874,-0.68956554,0.35862568,5.086449146270752,-3.1586968898773193,2.932626724243164,56.7375373840332,181.82562255859375, -15.321709632873535
573,327377993,0.40523615,0.49008927,-0.6720939,0.37932315,6.6821441650390625,-1.7609937191009521,1.7172778844833374,66.32627868652344,211.6511688232422, -21.847309112548828
574,327394660,0.42550957,0.48263815,-0.6529456,0.39958012,8.20306396484375,-0.7056418657302856,1.1373908519744873,53.41946029663086,233.14454650878906, -26.615657806396484
575,327411327,0.4479093,0.47285295,-0.6329941,0.4184567,9.732001304626465,-0.436117947101593,-0.3461958169937134,33.71497344970703,246.99365234375, -28.106836318969727
576,327427994,0.47210586,0.4604485,-0.6128433,0.43534654,11.350191116333008,-1.0906246900558472,-2.2130277156829834,11.878947257995605,256.4226379394531, -28.805280685424805
577,327444661,0.4971229,0.44558063,-0.59307253,0.4501021,13.05173397064209,-1.6740667819976807,-2.802079916000366,-8.906401634216309,259.2605285644531, -26.735641479492188
578,327461328,0.52169013,0.42832822,-0.57337,0.46435043,13.372103691101074,-3.6432652473449707,-3.8156561851501465,-17.841650009155273,263.037841796875, -17.31568145751953
579,327477995,0.5431461,0.41103804,-0.55140084,0.481661,13.59189510345459,-4.660121917724609,-4.501956939697266,12.195731163024902,267.9869689941406, -3.1190989017486572
580,327494662,0.56010115,0.39519608,-0.526188,0.5032228,14.459392547607422,-3.947028875350952,-4.417391777038574,57.2271728515625,270.4020690917969, 12.923077583312988
581,327511329,0.5732803,0.38167208,-0.49730456,0.5276026,14.323636054992676,-1.0441491603851318,-4.535854339599609,99.36296081542969,270.6864929199219, 18.435754776000977
582,327527996,0.5894502,0.36604977,-0.47090885,0.54479456,13.51062297821045,4.058095455169678,-2.3912012577056885,49.66326904296875,260.0404357910156, -7.020460605621338
583,327544663,0.60947496,0.34523162,-0.45240995,0.55197906,14.163347244262695,3.5073368549346924,-3.894282817840576,-43.10332489013672,234.9457244873047, -25.189271926879883
584,327561330,0.6303888,0.32178056,-0.4389473,0.55352736,13.795267105102539,3.1026217937469482,-4.958702087402344,-92.9136962890625,213.45370483398438, -31.93650245666504
585,327577997,0.65126467,0.2971611,-0.4292118,0.5507512,13.719219207763672,0.3551660180091858,-4.768162727355957,-125.15331268310547,192.33963012695312, -38.67414855957031
586,327594664,0.66835326,0.27378422,-0.42211023,0.5478769,13.682555198669434,-3.327437400817871,-7.8653106689453125,-122.10346984863281,164.7410125732422, -23.022743225097656
587,327611331,0.6782994,0.25623342,-0.41708687,0.54798985,11.851630210876465,-4.843927383422852,-12.663012504577637,-80.97163391113281,118.5037841796875, 4.5797882080078125
588,327627998,0.6803398,0.24816851,-0.41536915,0.5504715,9.8242769241333,-1.951870322227478,-14.283590316772461,-28.355735778808594,49.31840133666992, 23.970035552978516
589,327644665,0.676367,0.24996658,-0.41751853,0.55292195,9.28510856628418,1.017167091369629,-12.760921478271484,13.397212982177734,-22.843034744262695, 25.00423812866211
590,327661332,0.66846687,0.25931913,-0.42107874,0.5555165,8.736839294433594,-0.3785470724105835,-10.209071159362793,50.36815643310547,-68.7169189453125, 21.377931594848633
591,327677999,0.65719074,0.27411637,-0.42494443,0.5589123,9.351739883422852,-2.2914652824401855,-6.723874092102051,82.61915588378906,-98.90725708007812, 22.71061897277832
592,327694666,0.6441788,0.2912057,-0.4261555,0.56446856,11.324996948242188,-1.8589215278625488,19.14998435974121,112.83026123046875,-96.44622802734375, 27.34494972229004
593,327711333,0.6367803,0.30405018,-0.4304557,0.5628251,10.874404907226562,5.861466407775879,4.8909711837768555,49.662689208984375,-91.9637680053711, -7.771309852600098
594,327728000,0.62684345,0.31560528,-0.44154012,0.5590195,17.861000061035156,-1.25319242477417,-4.343528747558594,16.58419418334961,-128.71331787109375, 10.729077339172363
595,327744667,0.61422676,0.3285918,-0.45058367,0.5583255,9.988935470581055,1.4787408113479614,2.130542039871216,45.89677810668945,-126.49376678466797, 25.652584075927734
596,327761334,0.6060994,0.33608112,-0.46159366,0.553737,8.583847999572754,0.9148685932159424,2.0541672706604004,-7.088243007659912,-108.54801177978516, 13.485445976257324
597,327778001,0.5989018,0.34010813,-0.47378182,0.54879314,11.133301734924316,-2.263340473175049,-0.6497023105621338,-29.28179931640625,-98.134033203125, 22.227453231811523
598,327794668,0.59156144,0.34493902,-0.48464733,0.5442327,10.94025707244873,-2.4487388134002686,0.4079468846321106,-19.36197280883789,-95.18741607666016, 18.61716079711914
599,327811335,0.5837967,0.35141787,-0.49288946,0.54106104,11.099364280700684,-1.9226412773132324,-0.022833041846752167,2.8191096782684326,-88.74319458007812, 14.108970642089844
600,327828002,0.5760543,0.35805318,-0.49938476,0.53904945,10.798439025878906,-0.7771839499473572,0.4071980118751526,13.84494400024414,-79.36881256103516, 13.903522491455078
601,327844669,0.56923616,0.36312938,-0.50573385,0.53697354,10.616074562072754,-0.41797271370887756,0.603682816028595,5.72680139541626,-69.95299530029297, 15.21861743927002
602,327861336,0.56329507,0.36668786,-0.51246345,0.5344342,10.409067153930664,-0.43757709860801697,0.6980769634246826,-5.410344123840332,-63.91648864746094, 16.41269874572754
603,327878003,0.55862254,0.36850008,-0.51996833,0.5308312,10.517302513122559,-0.2987919747829437,0.9432170391082764,-21.95781898498535,-58.69607925415039, 15.770218849182129
604,327894670,0.555346,0.3688865,-0.52796304,0.52608806,10.26395034790039,-1.1383808851242065,0.8945692777633667,-36.82947540283203,-53.265037536621094, 12.681252479553223
605,327911337,0.5526287,0.36919597,-0.53522146,0.5213771,10.285314559936523,-1.6628341674804688,0.4697766900062561,-35.75373077392578,-48.0628776550293, 9.224166870117188
606,327928004,0.5500807,0.36988312,-0.54137796,0.5172115,10.373595237731934,-1.7218133211135864,0.003625743091106415,-28.78180694580078,-43.21398162841797, 6.518449783325195
607,327944671,0.547675,0.37075406,-0.54662055,0.51361406,10.085081100463867,-1.4883646965026855,0.1285395324230194,-23.075042724609375,-38.41896438598633, 5.163064479827881
608,327961338,0.5457223,0.37135488,-0.55139965,0.5101384,10.09194278717041,-1.3070634603500366,0.24798861145973206,-23.147001266479492,-33.69829177856445, 3.8699545860290527
609,327978005,0.54405254,0.3717601,-0.55582297,0.50681585,10.077946662902832,-1.1945081949234009,0.49711328744888306,-22.77197265625,-30.21181869506836, 3.3056750297546387
610,327994672,0.5426127,0.3721286,-0.5599528,0.5035325,9.919666290283203,-1.4024291038513184,0.5586308836936951,-22.322298049926758,-28.01607894897461, 2.065103769302368
611,328011339,0.541304,0.37256417,-0.5635796,0.50056386,9.696767807006836,-1.7065942287445068,0.3532394468784332,-19.455678939819336,-25.07564926147461, 1.2555581331253052
612,328028006,0.54020154,0.37311453,-0.5668304,0.4976655,9.504684448242188,-1.899526596069336,0.34952399134635925,-17.99019432067871,-23.10273551940918, -0.5949590802192688
613,328044673,0.53918535,0.37383193,-0.5699239,0.4946875,9.452841758728027,-1.852018117904663,0.2712065875530243,-17.364089965820312,-22.972183227539062, -2.2417192459106445
614,328061340,0.5380316,0.3749062,-0.5727886,0.49181366,9.516403198242188,-1.7286264896392822,0.3589200973510742,-14.50380802154541,-23.622142791748047, -3.3758397102355957
615,328078007,0.536764,0.3762222,-0.5755703,0.48893777,9.608665466308594,-1.563051462173462,0.2544955611228943,-13.048657417297363,-24.603809356689453, -4.164687633514404
616,328094674,0.5353344,0.37760913,-0.57856613,0.48589078,9.63530445098877,-1.3297109603881836,0.09969570487737656,-13.768855094909668,-26.73299789428711, -3.9746429920196533
617,328111341,0.53379387,0.3789995,-0.5820183,0.4823676,9.700847625732422,-1.1550666093826294,0.21951080858707428,-16.89081382751465,-30.11638069152832, -4.173530101776123
618,328128008,0.5320618,0.38041988,-0.5861782,0.47810686,9.541446685791016,-1.333168625831604,0.46413490176200867,-21.584863662719727,-35.52273941040039, -4.5032267570495605
619,328144675,0.52974886,0.3822871,-0.59060806,0.47371402,9.45060920715332,-1.6846277713775635,0.3944597840309143,-19.856464385986328,-40.696414947509766, -4.160172939300537
620,328161342,0.5271958,0.3846838,-0.59539187,0.4686061,9.488184928894043,-1.7289334535598755,0.29840099811553955,-21.359140396118164,-46.59794235229492, -7.20102596282959
621,328178009,0.5243168,0.38768572,-0.6004914,0.46281955,9.483576774597168,-1.8472687005996704,0.19721011817455292,-22.106826782226562,-52.85536575317383, -10.254191398620605
622,328194676,0.52124065,0.39103127,-0.60601604,0.45623192,9.642922401428223,-1.7433559894561768,0.006124451756477356,-25.01205825805664,-58.46442413330078, -12.803659439086914
623,328211343,0.517825,0.39482835,-0.6118613,0.448992,9.983616828918457,-1.4216923713684082,-0.28588294982910156,-26.21584701538086,-64.23202514648438, -15.097175598144531
624,328228010,0.5138785,0.39895296,-0.6181159,0.4412464,10.230511665344238,-1.0554639101028442,-0.4963371753692627,-27.009723663330078,-70.33797454833984, -15.51734447479248
625,328244677,0.50918615,0.403286,-0.6249885,0.43298885,10.5361967086792,-0.7089644074440002,-0.7141172885894775,-28.286014556884766,-77.75894165039062, -14.23653507232666
626,328261344,0.503436,0.4081154,-0.6324814,0.42421857,10.593400001525879,-0.6188907623291016,-0.7412712574005127,-27.669673919677734,-87.40922546386719, -13.268918991088867
627,328278011,0.49650612,0.41362253,-0.6406086,0.41475147,10.935532569885254,-0.9780269861221313,-0.5570430755615234,-26.897005081176758,-98.70783233642578, -13.381880760192871
628,328294678,0.48806792,0.4200201,-0.64922464,0.40482166,11.801916122436523,-1.166471242904663,-0.383279949426651,-23.003950119018555,-110.9317855834961, -13.180208206176758
629,328311345,0.4773791,0.42838934,-0.6581162,0.39430323,13.973501205444336,-1.1990374326705933,-0.17868149280548096,-21.502824783325195,-128.17860412597656, -15.197328567504883
630,328328012,0.4635815,0.43833923,-0.66774106,0.38350078,16.232553482055664,-0.8263170719146729,0.8517234325408936,-9.982708930969238,-149.96900939941406, -12.448437690734863
631,328344679,0.44651327,0.44848347,-0.67837214,0.37322903,17.92963409423828,0.7823320627212524,1.3663924932479858,1.5367538928985596,-167.42587280273438, 0.027901392430067062
632,328361346,0.42599085,0.4590256,-0.68939334,0.3640938,20.10927391052246,0.8856812715530396,2.882229804992676,18.472166061401367,-182.52828979492188, 11.880400657653809
633,328378013,0.4023217,0.47150937,-0.69682235,0.36090854,21.554180145263672,-0.21849825978279114,5.213289737701416,72.41361236572266,-173.3778839111328, 16.56756019592285
634,328394680,0.37987664,0.4823499,-0.7037043,0.35753694,18.625457763671875,-0.11508356779813766,5.868223667144775,68.96517181396484,-163.5211181640625, 17.212003707885742
635,328411347,0.359876,0.49095014,-0.71494234,0.34396926,15.709904670715332,-2.6366052627563477,5.63264274597168,-5.0418620109558105,-191.78155517578125, 9.89896297454834
636,328428014,0.34552023,0.49701637,-0.7254956,0.3274858,12.473620414733887,-5.5861124992370605,3.1743736267089844,-43.121360778808594,-166.55418395996094, -0.5442113280296326
637,328444681,0.33625475,0.50104827,-0.7342026,0.31117493,7.346169948577881,-4.21544885635376,1.1492172479629517,-60.41374969482422,-131.87615966796875, -7.859637260437012
638,328461348,0.33511072,0.50188476,-0.7418749,0.29229158,7.921667575836182,-4.828012466430664,-0.06234052777290344,-106.6173324584961,-90.6609115600586, -18.706254959106445
639,328478015,0.33758545,0.5018569,-0.7437658,0.28458428,7.030055999755859,-8.5010404586792,6.93815803527832,-52.54267120361328,-18.710464477539062, -15.869483947753906
640,328494682,0.34079683,0.50350124,-0.7389694,0.29029036,3.3156650066375732,-3.191145896911621,6.675872802734375,30.312950134277344,43.30849075317383, -17.979400634765625
641,328511349,0.34749246,0.5049782,-0.730607,0.30076522,5.4270734786987305,-0.10863865911960602,3.3142452239990234,49.14434051513672,86.00617980957031, -25.3079833984375
642,328528016,0.3584117,0.50335103,-0.7209898,0.31361216,5.407081604003906,-1.3502886295318604,3.5164825916290283,41.57594299316406,124.7184066772461, -17.115772247314453
643,328544683,0.37315056,0.49924362,-0.70926416,0.32933113,4.948925018310547,-2.9118528366088867,3.0110201835632324,41.00910568237305,163.98318481445312, -13.284615516662598
644,328561350,0.39016572,0.494256,-0.69414043,0.34878486,5.839786529541016,-3.03307843208313,1.4992384910583496,56.811073303222656,198.4905242919922, -16.274696350097656
645,328578017,0.4091959,0.48825303,-0.6760096,0.37037653,7.4990973472595215,-1.5793108940124512,0.6021593809127808,64.6330337524414,225.78248596191406, -20.79073715209961
646,328594684,0.4302214,0.48036718,-0.65637255,0.39157653,8.820664405822754,-0.7715948224067688,0.3398849368095398,53.986793518066406,242.76513671875, -23.023759841918945
647,328611351,0.4535743,0.4700898,-0.63613534,0.41063136,10.402247428894043,0.2278175801038742,-0.9549028277397156,31.608240127563477,254.26895141601562, -27.00247573852539
648,328628018,0.4785296,0.45738518,-0.6161513,0.4268091,11.81060791015625,-0.2872444689273834,-2.713965654373169,5.603246212005615,257.9978332519531, -29.056758880615234
649,328644685,0.5039247,0.44215146,-0.5968892,0.44077796,13.167126655578613,-1.172926664352417,-3.209754467010498,-15.344998359680176,257.9645080566406, -24.66845703125
650,328661352,0.5279278,0.42535508,-0.57714283,0.45527074,13.288797378540039,-3.612605094909668,-4.668625354766846,-12.887266159057617,260.3187255859375, -13.710426330566406
651,328678019,0.5477076,0.41012016,-0.55404633,0.47418427,13.974238395690918,-4.400288105010986,-5.515998363494873,33.19384765625,263.8946228027344, -0.5099735260009766
652,328694686,0.5633611,0.3966186,-0.5276997,0.49684104,14.634899139404297,-4.324268341064453,-5.39133358001709,76.255615234375,265.5054626464844, 11.197956085205078
653,328711353,0.5753613,0.38593972,-0.49722323,0.52228254,13.99604606628418,-2.0664870738983154,-5.454214096069336,121.42356872558594,266.4088134765625, 12.90757942199707
654,328728020,0.5893524,0.3748831,-0.46688086,0.54235494,13.283246040344238,3.055682897567749,-3.5937423706054688,95.84526062011719,260.0124206542969, -13.834905624389648
655,328744687,0.6073432,0.35864437,-0.44339165,0.55309343,14.208494186401367,3.667456865310669,-3.250005006790161,9.000323295593262,240.5309600830078, -32.15226364135742
656,328761354,0.6265816,0.3378084,-0.4267236,0.55784243,13.626612663269043,0.0004390999674797058,-3.710057258605957,-57.501705169677734,218.78216552734375, -30.954795837402344
657,328778021,0.64375615,0.31675228,-0.41262245,0.5612386,13.664848327636719,-4.698200225830078,-4.579355239868164,-67.45976257324219,199.61904907226562, -22.242450714111328
658,328794688,0.65809876,0.2956906,-0.4022995,0.5635854,13.14954948425293,-2.2093939781188965,-5.841667652130127,-78.8013916015625,172.8860321044922, -7.806490421295166
659,328811355,0.6698974,0.27311316,-0.40158227,0.5615858,10.776019096374512,-0.24575506150722504,-9.122676849365234,-129.68838500976562,119.7496337890625, 6.09265661239624
660,328828022,0.6769661,0.25482786,-0.40997976,0.5556046,9.814995765686035,1.2680765390396118,-12.33971881866455,-147.19607543945312,41.03591537475586, 11.331655502319336
661,328844689,0.6792127,0.24395224,-0.4235516,0.54750484,9.60383129119873,-0.0265972763299942,-10.631179809570312,-129.97589111328125,-28.220609664916992, 8.174759864807129
662,328861356,0.6769527,0.241991,-0.43658987,0.54089254,8.798116683959961,-1.5528147220611572,-9.140913963317871,-74.40376281738281,-69.52908325195312, 5.306216716766357
663,328878023,0.6704828,0.24961434,-0.4455475,0.5381755,8.526147842407227,-2.2616255283355713,-7.842793941497803,4.140563488006592,-92.00511169433594, 3.54119610786438
664,328894690,0.65889835,0.2673133,-0.44768664,0.54219323,10.530704498291016,-2.8341991901397705,0.8006187081336975,105.29832458496094,-101.67957305908203, 10.880455017089844
665,328911357,0.6434504,0.2880397,-0.44227365,0.5544358,10.371302604675293,-8.571921348571777,19.45648956298828,179.6439208984375,-75.44218444824219, 39.2167854309082
666,328928024,0.6287297,0.31242278,-0.4351702,0.56366485,11.285957336425781,6.988459587097168,1.7585779428482056,191.70274353027344,-86.07056427001953, 8.359654426574707
667,328944691,0.6170237,0.32862502,-0.44187307,0.5621704,16.637176513671875,6.841594219207764,-2.7337474822998047,64.15230560302734,-127.99504089355469, 4.584217071533203
668,328961358,0.6063797,0.3400228,-0.45197716,0.558932,10.777894020080566,1.9974582195281982,2.3482561111450195,22.85533332824707,-124.32691955566406, 15.54282283782959
669,328978025,0.5992321,0.3451538,-0.46400374,0.55361575,8.007149696350098,-0.005157629027962685,0.7655763030052185,-25.31093406677246,-102.22428131103516, 17.48511505126953
670,328994692,0.59366316,0.34780318,-0.47631693,0.54746616,11.209778785705566,-1.7180876731872559,-0.35881805419921875,-43.02494430541992,-90.87030792236328, 16.6763916015625
671,329011359,0.58802664,0.35106543,-0.4875398,0.5415558,11.674996376037598,-1.5592535734176636,0.3912869691848755,-35.449092864990234,-88.29402160644531, 13.298897743225098
672,329028026,0.5817952,0.35553068,-0.4964651,0.53724736,12.070762634277344,-1.7274760007858276,-0.4117489159107208,-15.207110404968262,-81.55606079101562, 12.415903091430664
673,329044693,0.57484066,0.36061546,-0.503388,0.5348976,11.067294120788574,-0.7281104922294617,0.3852071166038513,3.142465591430664,-73.4435806274414, 15.90374755859375
674,329061360,0.5683735,0.36475408,-0.50939244,0.5333154,10.30436897277832,-0.6908261179924011,0.6937159299850464,4.242199897766113,-62.710243225097656, 18.150962829589844
675,329078027,0.56366754,0.36694,-0.5158855,0.53056204,10.09457015991211,-0.4701131582260132,1.3031412363052368,-13.688446998596191,-54.215660095214844, 15.194575309753418
676,329094694,0.56068325,0.36716878,-0.5235622,0.5260268,10.390727996826172,-0.8779412508010864,1.0639327764511108,-36.24885559082031,-50.06216049194336, 11.972688674926758
677,329111361,0.5585389,0.36685628,-0.53092176,0.52112657,9.764261245727539,-2.1183698177337646,0.9442943930625916,-40.61796569824219,-44.785709381103516, 8.712011337280273
678,329128028,0.5562961,0.3675338,-0.53674877,0.5170635,10.014653205871582,-2.165135622024536,0.8314668536186218,-28.012441635131836,-40.70732879638672, 4.799009799957275
679,329144695,0.5538214,0.3694033,-0.54115397,0.5137854,9.961219787597656,-2.0418407917022705,0.987447202205658,-14.912050247192383,-38.38816452026367, 0.6255875825881958
680,329161362,0.5513905,0.37168622,-0.5447935,0.5108994,9.780708312988281,-1.3678861856460571,0.9592273831367493,-9.284942626953125,-35.79165267944336, -1.5318773984909058
681,329178029,0.54931086,0.3736964,-0.5484903,0.5077076,9.679462432861328,-1.315950632095337,0.8667874932289124,-12.565841674804688,-34.53653335571289, -2.7511885166168213
682,329194696,0.54760826,0.37543193,-0.55220544,0.50422746,9.656648635864258,-1.3815065622329712,0.7716802358627319,-15.729228973388672,-32.9870719909668, -4.06612491607666
683,329211363,0.54604554,0.37720743,-0.5557876,0.5006488,9.62024974822998,-1.4210163354873657,0.8587656617164612,-15.857666015625,-32.36936569213867, -5.409632205963135
684,329228030,0.54438895,0.37930048,-0.55927324,0.49697605,9.677206039428711,-1.185006022453308,0.9401405453681946,-14.456082344055176,-33.728145599365234, -6.898673057556152
685,329244697,0.5425573,0.38168293,-0.56281716,0.49313962,9.671592712402344,-1.2015331983566284,0.729548454284668,-13.752954483032227,-36.0662727355957, -7.864678382873535
686,329261364,0.5406169,0.38424483,-0.5663679,0.48920023,9.636489868164062,-1.4234169721603394,0.4678027033805847,-13.228307723999023,-37.41798782348633, -8.548096656799316
687,329278031,0.53863984,0.3869458,-0.5698278,0.48521784,9.626777648925781,-1.332037329673767,0.2176038920879364,-12.48267936706543,-37.82768630981445, -9.365262985229492
688,329294698,0.53666854,0.38966632,-0.57339007,0.4810105,9.637144088745117,-1.172136902809143,0.3184152841567993,-13.656380653381348,-38.86701965332031, -10.018867492675781
689,329311365,0.53462106,0.39235833,-0.5771812,0.47654712,9.611454963684082,-1.1081392765045166,0.2455601990222931,-15.331802368164062,-40.628578186035156, -9.979161262512207
690,329328032,0.53243136,0.39518887,-0.5810643,0.47191855,9.72624683380127,-1.1688194274902344,0.025799214839935303,-15.402838706970215,-42.45615005493164, -10.414240837097168
691,329344699,0.5300861,0.39829051,-0.5849496,0.46712685,9.714415550231934,-1.1802347898483276,-0.14202839136123657,-14.654451370239258,-44.43245315551758, -11.578034400939941
692,329361366,0.52745396,0.40173003,-0.5890462,0.46198502,9.600669860839844,-1.1845965385437012,0.022274740040302277,-14.731489181518555,-48.42190933227539, -12.709013938903809
693,329378033,0.5244198,0.4056423,-0.5935131,0.45626828,9.613422393798828,-1.349751353263855,0.09996253997087479,-15.419480323791504,-54.51193618774414, -14.406919479370117
694,329394700,0.52086824,0.4101594,-0.59829265,0.45001283,9.76193904876709,-1.2133904695510864,0.06720829010009766,-14.986111640930176,-61.1867561340332, -16.325857162475586
695,329411367,0.5166373,0.41520074,-0.6035887,0.44314232,9.854750633239746,-0.8635324239730835,-0.23072083294391632,-15.331214904785156,-69.22600555419922, -17.127519607543945
