PacketCounter,SampleTimeFine,Quat_W,Quat_X,Quat_Y,Quat_Z,Acc_X,Acc_Y,Acc_Z,Gyr_X,Gyr_Y,Gyr_Z 
1,279579337,0.47965455,0.5432471,-0.5327316,0.43704808,0,0,0,0,0, 0
2,279596004,0.47775418,0.54287857,-0.5340263,0.43800658,9.829352378845215,0.3832263946533203,-1.6563291549682617,1.721333622932434,0.8969502449035645, 2.028493881225586
3,279612671,0.47596544,0.5427196,-0.5348675,0.4391232,9.846487045288086,0.43757694959640503,-1.6103171110153198,1.501486897468567,1.219132423400879, 1.770330548286438
4,279629338,0.47487912,0.5427259,-0.53503877,0.44008178,9.84373950958252,0.43266740441322327,-1.5964350700378418,1.0101585388183594,1.4062845706939697, 1.5476025342941284
5,279646005,0.47423542,0.54271734,-0.5349353,0.44091165,9.858376502990723,0.4257030487060547,-1.6318373680114746,0.9997724890708923,1.7207571268081665, 1.612325668334961
6,279662672,0.47364604,0.5428964,-0.5345895,0.4417433,9.821659088134766,0.4617096185684204,-1.6032823324203491,1.3808510303497314,1.987654209136963, 1.5026907920837402
7,279679339,0.47320428,0.54309344,-0.53416866,0.44248307,9.803054809570312,0.5131979584693909,-1.550643801689148,1.5969327688217163,2.0628533363342285, 1.6453919410705566
8,279696006,0.4729806,0.54320806,-0.5338492,0.44296655,9.808101654052734,0.5863003730773926,-1.505384087562561,-0.3478460907936096,1.2323486804962158, 1.9908814430236816
9,279712673,0.47292852,0.54331774,-0.5334436,0.44337615,9.845561981201172,0.4670296609401703,-1.6119234561920166,-0.3569130003452301,1.315679669380188, 1.9709038734436035
10,279729340,0.47274083,0.5435215,-0.53294736,0.44392315,9.799687385559082,0.388330340385437,-1.6662123203277588,0.8006721138954163,1.7132397890090942, 1.9732214212417603
11,279746007,0.47253606,0.5436766,-0.5325211,0.4444624,9.806295394897461,0.4721466600894928,-1.5600031614303589,0.4714849889278412,2.1155130863189697, 1.8576953411102295
12,279762674,0.47242802,0.54373324,-0.5321714,0.44492653,9.8412446975708,0.4840325713157654,-1.5851978063583374,-0.3888263702392578,2.154905080795288, 1.9214966297149658
13,279779341,0.4723308,0.5437797,-0.5318283,0.44538307,9.856193542480469,0.40185704827308655,-1.5461692810058594,-0.5867229104042053,2.203108549118042, 1.9645259380340576
14,279796008,0.47215563,0.5438887,-0.5313849,0.44596466,9.807913780212402,0.3825643062591553,-1.5690228939056396,0.3411291837692261,2.4205987453460693, 1.8044854402542114
15,279812675,0.4718482,0.5441396,-0.5307945,0.44668624,9.784854888916016,0.37391355633735657,-1.5444313287734985,1.3680959939956665,2.5123050212860107, 1.5191469192504883
16,279829342,0.47168565,0.5441656,-0.53045547,0.44722852,9.8391695022583,0.4564927816390991,-1.485191822052002,1.36032235622406,2.3513288497924805, 1.662987470626831
17,279846009,0.4715804,0.54413795,-0.53016675,0.44771582,9.847513198852539,0.5078397393226624,-1.5523427724838257,0.7997373342514038,2.2405922412872314, 1.7168385982513428
18,279862676,0.4713037,0.5443086,-0.52964675,0.4484146,9.832283973693848,0.39335736632347107,-1.571302056312561,1.128002405166626,2.4952340126037598, 1.851561188697815
19,279879343,0.47113246,0.54432505,-0.52928096,0.4490057,9.76480770111084,0.4356103837490082,-1.5679690837860107,1.8228493928909302,2.6252951622009277, 1.843224287033081
20,279896010,0.4708386,0.5444884,-0.5287432,0.44974896,9.775806427001953,0.43948450684547424,-1.547650694847107,2.0166995525360107,2.8605356216430664, 1.81793212890625
21,279912677,0.47061867,0.54455537,-0.528299,0.45041972,9.814781188964844,0.45279058814048767,-1.4884394407272339,1.780857801437378,2.9276537895202637, 1.9192302227020264
22,279929344,0.47066545,0.54428923,-0.5282419,0.4507594,9.894067764282227,0.5365189909934998,-1.3386942148208618,0.8734123110771179,2.5317447185516357, 2.1544055938720703
23,279946011,0.4707882,0.5439344,-0.52832884,0.45095757,9.972831726074219,0.504401445388794,-1.4592082500457764,0.2355920374393463,1.929347038269043, 2.2900381088256836
24,279962678,0.47068056,0.5438369,-0.5281002,0.45145488,9.958296775817871,0.34952762722969055,-1.5451716184616089,0.8032846450805664,2.283327102661133, 2.3886852264404297
25,279979345,0.47064742,0.5436337,-0.52792585,0.4519378,9.883971214294434,0.42089396715164185,-1.5195116996765137,1.5393681526184082,2.764270067214966, 2.358513593673706
26,279996012,0.47090033,0.5431317,-0.52801716,0.4521714,9.866511344909668,0.4283207952976227,-1.5372507572174072,0.7719092965126038,3.08145809173584, 2.2730696201324463
27,280012679,0.47053343,0.5433557,-0.52728766,0.45313415,9.811057090759277,0.40422672033309937,-1.535838007926941,0.9228320121765137,3.67441725730896, 2.3020248413085938
28,280029346,0.47075,0.5428984,-0.5272303,0.45352408,9.764294624328613,0.4021616280078888,-1.5439177751541138,1.2231154441833496,3.9535322189331055, 2.2769501209259033
29,280046013,0.47056186,0.542904,-0.52668154,0.45434967,9.802803039550781,0.4198445677757263,-1.4888659715652466,1.6229678392410278,4.129580020904541, 2.2620046138763428
30,280062680,0.47053027,0.5427425,-0.5262941,0.45502356,9.812045097351074,0.42672985792160034,-1.4500309228897095,1.9490180015563965,4.234132289886475, 2.1204822063446045
31,280079347,0.47042346,0.542645,-0.5258521,0.4557608,9.782143592834473,0.44818705320358276,-1.4036084413528442,1.638117790222168,4.138173580169678, 2.3006157875061035
32,280096014,0.47026148,0.54258925,-0.525413,0.45650026,9.811844825744629,0.4781379699707031,-1.3456768989562988,0.942733108997345,3.760591745376587, 2.5022010803222656
33,280112681,0.47019246,0.5423839,-0.52519435,0.4570664,9.836532592773438,0.4438212215900421,-1.3696061372756958,0.5207381844520569,3.223492383956909, 2.792943239212036
34,280129348,0.4700283,0.54225546,-0.52494836,0.45766976,9.80819320678711,0.4043867886066437,-1.3689632415771484,0.9384940266609192,2.836677074432373, 2.898672342300415
35,280146015,0.46978205,0.5421882,-0.5247072,0.45827863,9.785989761352539,0.4450477063655853,-1.3378727436065674,0.6568185687065125,2.3206069469451904, 3.0743374824523926
36,280162682,0.46980542,0.5417962,-0.52486336,0.45853955,9.778204917907715,0.4794367253780365,-1.3538930416107178,-0.15832491219043732,1.8281129598617554, 3.241088628768921
37,280179349,0.46946132,0.5418153,-0.5246438,0.45912,9.774182319641113,0.4096357524394989,-1.406705617904663,-0.7971697449684143,1.4464067220687866, 3.3655025959014893
38,280196016,0.46913648,0.54178214,-0.5244887,0.4596682,9.841094970703125,0.3401813805103302,-1.365366816520691,-0.2650914788246155,1.4010980129241943, 3.473165512084961
39,280212683,0.46883652,0.54168814,-0.52438945,0.4601978,9.89205551147461,0.3470899760723114,-1.353234052658081,0.26846596598625183,1.461966633796692, 3.5897929668426514
40,280229350,0.46870404,0.5414229,-0.52446026,0.46056414,9.900026321411133,0.336396723985672,-1.3684191703796387,0.6720964312553406,1.5149976015090942, 3.392524003982544
41,280246017,0.46843067,0.5413262,-0.5243311,0.46110258,9.872021675109863,0.3386249542236328,-1.3622175455093384,0.9440522193908691,1.7080023288726807, 3.3063888549804688
42,280262684,0.4682286,0.5411274,-0.5243684,0.4614986,9.895642280578613,0.39253056049346924,-1.3302733898162842,0.010725319385528564,1.2416973114013672, 3.5003020763397217
43,280279351,0.46799034,0.5410122,-0.5243119,0.46193925,9.852005958557129,0.3069489002227783,-1.3647541999816895,-0.1564679741859436,1.2830489873886108, 3.2549450397491455
44,280296018,0.46778515,0.54087996,-0.5242467,0.46237585,9.825541496276855,0.27977079153060913,-1.3819820880889893,0.48187097907066345,1.4930347204208374, 3.04049015045166
45,280312685,0.46754926,0.5408146,-0.5241084,0.4628473,9.83173942565918,0.30632317066192627,-1.3743137121200562,0.8860520124435425,1.5404692888259888, 2.754741668701172
46,280329352,0.46745455,0.54059476,-0.5241236,0.46318242,9.876880645751953,0.3451169431209564,-1.3414429426193237,0.32709333300590515,1.5785425901412964, 2.790048837661743
47,280346019,0.4673128,0.5404461,-0.52406126,0.46356943,9.890304565429688,0.30985191464424133,-1.343567132949829,0.20255163311958313,1.6054744720458984, 2.6922852993011475
48,280362686,0.46714354,0.54034823,-0.52392185,0.4640119,9.86879825592041,0.2904462218284607,-1.3683114051818848,0.5778673887252808,1.792370319366455, 2.528825283050537
49,280379353,0.46680894,0.54048306,-0.52351975,0.46464488,9.821993827819824,0.26807650923728943,-1.388664960861206,0.9796923398971558,1.9681888818740845, 2.178097724914551
50,280396020,0.4664829,0.5406521,-0.52304476,0.46530995,9.838685989379883,0.2620559632778168,-1.4091789722442627,1.5208755731582642,2.260941743850708, 1.8304051160812378
51,280412687,0.4663681,0.54063165,-0.52273196,0.46579996,9.853604316711426,0.2808929681777954,-1.3885498046875,1.9424607753753662,2.5266480445861816, 1.4724165201187134
52,280429354,0.46604133,0.5408652,-0.522148,0.4665104,9.849069595336914,0.320820152759552,-1.3465025424957275,2.0256123542785645,2.597992420196533, 1.351076364517212
53,280446021,0.46606904,0.5407131,-0.5219555,0.4668744,9.85580825805664,0.31620651483535767,-1.3354204893112183,2.066387891769409,2.657259941101074, 1.2765306234359741
54,280462688,0.46594903,0.54075193,-0.52156365,0.4673866,9.864091873168945,0.3344879746437073,-1.3049209117889404,2.186933755874634,2.6698100566864014, 1.0921703577041626
55,280479355,0.46565056,0.5409744,-0.5210158,0.46803725,9.821428298950195,0.32894089818000793,-1.2960323095321655,2.1816065311431885,2.4175376892089844, 1.167535662651062
56,280496022,0.46560812,0.54092515,-0.5208049,0.4683709,9.780264854431152,0.3493152856826782,-1.290378212928772,1.8074434995651245,2.0105137825012207, 1.0846786499023438
57,280512689,0.46532315,0.54113156,-0.52038854,0.46887827,9.812688827514648,0.29619064927101135,-1.2740321159362793,1.8555822372436523,1.576186180114746, 1.1317803859710693
58,280529356,0.4650967,0.54127383,-0.52002525,0.46934137,9.895163536071777,0.3357240557670593,-1.246574878692627,1.7356250286102295,1.6661635637283325, 1.1464051008224487
59,280546023,0.4649967,0.54128104,-0.5198166,0.4696636,9.88135814666748,0.3930928111076355,-1.2720202207565308,1.107947826385498,1.5493314266204834, 1.1882692575454712
60,280562690,0.46489057,0.54128903,-0.51960367,0.46999457,9.870655059814453,0.3210732340812683,-1.2800086736679077,0.8754740357398987,1.5639433860778809, 1.2710493803024292
61,280579357,0.46469438,0.5413995,-0.51927346,0.4704262,9.837203979492188,0.306240975856781,-1.2844748497009277,1.2719969749450684,1.6461858749389648, 1.2123323678970337
62,280596024,0.4645377,0.54148674,-0.5189631,0.47082284,9.831490516662598,0.3098617196083069,-1.3118013143539429,1.236702799797058,1.6774204969406128, 1.0819380283355713
63,280612691,0.46455017,0.5413774,-0.5188658,0.47104344,9.8410062789917,0.3326394259929657,-1.283511757850647,1.3190860748291016,1.626784324645996, 1.134162425994873
64,280629358,0.46440545,0.54142857,-0.51862967,0.47138715,9.865701675415039,0.37841564416885376,-1.232898235321045,1.0269474983215332,1.4179766178131104, 1.239776372909546
65,280646025,0.46435073,0.5413231,-0.5186252,0.47156736,9.879218101501465,0.3600078523159027,-1.1798465251922607,0.06264226138591766,0.9112166166305542, 1.7079252004623413
66,280662692,0.46415237,0.54134214,-0.51854205,0.47183204,9.875947952270508,0.35435977578163147,-1.2656301259994507,0.3973489999771118,0.534658670425415, 1.8605639934539795
67,280679359,0.4639193,0.54141563,-0.51838887,0.47214526,9.855542182922363,0.25102952122688293,-1.3073190450668335,1.0132575035095215,0.6398756504058838, 1.6924294233322144
68,280696026,0.4637366,0.54144496,-0.51826626,0.47242564,9.833319664001465,0.2968185245990753,-1.2901091575622559,1.5158555507659912,0.7634954452514648, 1.5614591836929321
69,280712693,0.46356487,0.54147303,-0.518136,0.4727046,9.852352142333984,0.3983895778656006,-1.2714940309524536,0.8684689402580261,0.82301926612854, 1.5771338939666748
70,280729360,0.4633078,0.5415756,-0.5179504,0.47304255,9.833474159240723,0.3801559805870056,-1.2833857536315918,0.10736203193664551,0.6564982533454895, 1.7973390817642212
71,280746027,0.4631182,0.54159784,-0.517846,0.4733171,9.810294151306152,0.28216347098350525,-1.327528715133667,0.7889159321784973,0.6881043910980225, 1.7682174444198608
72,280762694,0.46277425,0.5417701,-0.5175794,0.47374764,9.847329139709473,0.32752692699432373,-1.2072299718856812,1.7404662370681763,0.7441577911376953, 1.7766571044921875
73,280779361,0.46263584,0.5417071,-0.5176043,0.47392768,9.927000045776367,0.3801463842391968,-1.1999249458312988,0.741391658782959,0.40394431352615356, 1.9483774900436401
74,280796028,0.4624878,0.54158,-0.51777816,0.4740274,9.940816879272461,0.3989068567752838,-1.225763201713562,-0.4612206518650055,-0.20459423959255219, 2.553835868835449
75,280812695,0.4624068,0.54141456,-0.51798695,0.4740672,9.92299747467041,0.3049010634422302,-1.2656023502349854,-0.624706506729126,-0.1724759191274643, 2.360088586807251
76,280829362,0.46216425,0.5414173,-0.5179896,0.4742976,9.89427661895752,0.24922974407672882,-1.299906849861145,0.32804104685783386,0.05552193522453308, 2.3214006423950195
77,280846029,0.46190664,0.5414432,-0.5179674,0.47454306,9.83626651763916,0.3205749988555908,-1.277342677116394,0.4337446391582489,0.06606155633926392, 2.2630422115325928
78,280862696,0.46170837,0.54141927,-0.5179973,0.4747307,9.819498062133789,0.35266387462615967,-1.2874157428741455,-0.041018739342689514,0.06556211411952972, 2.2310261726379395
79,280879363,0.46162438,0.54126316,-0.51816386,0.4748087,9.847615242004395,0.31637847423553467,-1.30776047706604,-0.24009345471858978,0.07976435124874115, 2.316803216934204
80,280896030,0.461475,0.5411466,-0.51827365,0.47496688,9.868776321411133,0.29968300461769104,-1.3336788415908813,0.1526452898979187,0.19675035774707794, 2.4981155395507812
81,280912697,0.46128148,0.54107326,-0.51831055,0.4751982,9.879886627197266,0.3055078983306885,-1.3017621040344238,0.40227946639060974,0.4068257212638855, 2.523728132247925
82,280929364,0.46101752,0.5410801,-0.51825094,0.47551137,9.843416213989258,0.28428077697753906,-1.2803024053573608,0.693034827709198,0.5044228434562683, 2.4796998500823975
83,280946031,0.46074694,0.5411037,-0.51818967,0.47581345,9.848254203796387,0.3061317205429077,-1.2447558641433716,0.3741695284843445,0.3918294608592987, 2.4517054557800293
84,280962698,0.46051812,0.5410751,-0.51821846,0.47603604,9.872513771057129,0.2638248801231384,-1.252571702003479,0.5068305134773254,0.1362275332212448, 2.4661765098571777
85,280979365,0.4603013,0.5410355,-0.5182513,0.47625512,9.852614402770996,0.24369966983795166,-1.2735899686813354,0.9293630123138428,0.19265231490135193, 2.4105584621429443
86,280996032,0.46008214,0.54101235,-0.5182689,0.47647387,9.881656646728516,0.25691238045692444,-1.2760953903198242,0.7197617292404175,0.17838604748249054, 2.3453359603881836
87,281012699,0.45988035,0.5409802,-0.51825035,0.47672522,9.900131225585938,0.29403042793273926,-1.3488872051239014,1.3353245258331299,0.5101857781410217, 2.2368533611297607
88,281029366,0.45959297,0.5410582,-0.51802766,0.4771558,9.854874610900879,0.2490627020597458,-1.3602622747421265,1.3255019187927246,1.1588016748428345, 2.186831474304199
89,281046033,0.45931828,0.541134,-0.5177645,0.47761986,9.833285331726074,0.2964252233505249,-1.3231759071350098,1.10163414478302,1.4732487201690674, 2.165482997894287
90,281062700,0.45920825,0.5410253,-0.5176837,0.47793645,9.85440731048584,0.31277337670326233,-1.2645139694213867,0.4637371301651001,1.5542490482330322, 2.298067569732666
91,281079367,0.4591617,0.54084206,-0.51770455,0.47816578,9.859782218933105,0.2671704590320587,-1.2477837800979614,0.2191614806652069,1.382413387298584, 2.3632264137268066
92,281096034,0.4590051,0.54076594,-0.517619,0.47849464,9.88305377960205,0.25170645117759705,-1.2330665588378906,0.6136354207992554,1.343469262123108, 2.4008255004882812
93,281112701,0.45881388,0.54075336,-0.51744837,0.4788767,9.892330169677734,0.25460854172706604,-1.3023360967636108,0.9262256622314453,1.4783457517623901, 2.2062716484069824
94,281129368,0.4586646,0.54074323,-0.5172112,0.4792874,9.885160446166992,0.18676841259002686,-1.3209699392318726,1.5088635683059692,1.9422560930252075, 1.8607310056686401
95,281146035,0.45855966,0.5406878,-0.5169883,0.4796904,9.844071388244629,0.2594597637653351,-1.2941339015960693,1.5588338375091553,2.1845905780792236, 1.8547756671905518
96,281162702,0.4584818,0.5406285,-0.51676047,0.48007703,9.83486270904541,0.280365526676178,-1.2467421293258667,1.1909458637237549,2.2540524005889893, 1.7443082332611084
97,281179369,0.4582681,0.5407002,-0.5164128,0.48057434,9.854342460632324,0.2552458643913269,-1.2256132364273071,0.8526915311813354,2.1336848735809326, 1.884947657585144
98,281196036,0.45819896,0.54060996,-0.51626366,0.48090154,9.848583221435547,0.2662357985973358,-1.1991347074508667,1.0912739038467407,1.9230077266693115, 1.8921573162078857
99,281212703,0.4579686,0.54070103,-0.51593846,0.4813674,9.864775657653809,0.24720700085163116,-1.223300576210022,1.2809357643127441,1.8237454891204834, 1.8172657489776611
100,281229370,0.4577963,0.54071367,-0.515705,0.4817672,9.85400390625,0.1967494785785675,-1.236660122871399,2.0759284496307373,1.7552448511123657, 1.8330304622650146
101,281246037,0.45762515,0.5407347,-0.5154729,0.4821544,9.872742652893066,0.23132023215293884,-1.2292656898498535,2.2858242988586426,1.6841691732406616, 1.7433347702026367
102,281262704,0.45749107,0.5407143,-0.5152969,0.48249286,9.899770736694336,0.2789056599140167,-1.220239520072937,1.7101151943206787,1.597854733467102, 1.825218677520752
103,281279371,0.45733345,0.5407307,-0.5151058,0.48282757,9.898356437683105,0.22867996990680695,-1.2094695568084717,1.43974769115448,1.430155634880066, 1.7778863906860352
104,281296038,0.45704493,0.5408379,-0.51483345,0.48327094,9.884500503540039,0.21658897399902344,-1.1701321601867676,2.662484645843506,1.3277686834335327, 1.9626175165176392
105,281312705,0.45667076,0.5410206,-0.5145055,0.48376933,9.88094425201416,0.3050066828727722,-1.1303743124008179,3.2392194271087646,1.1544477939605713, 1.9955048561096191
106,281329372,0.45633176,0.5410972,-0.5143798,0.48413697,9.828323364257812,0.4069298803806305,-1.1079864501953125,2.6461055278778076,0.503385603427887, 2.4950804710388184
107,281346039,0.45603874,0.5411245,-0.51438165,0.48438063,9.80599308013916,0.268942266702652,-1.224967122077942,1.075739860534668,-0.032848287373781204, 2.669887065887451
108,281362706,0.4556714,0.54121906,-0.51431155,0.48469502,9.867259979248047,0.23812022805213928,-1.232125163078308,1.0561716556549072,-0.02100241370499134, 2.7624130249023438
109,281379373,0.4553323,0.5412754,-0.5142516,0.48501453,9.858250617980957,0.20886553823947906,-1.253485918045044,1.5859830379486084,0.1950855255126953, 2.779125213623047
110,281396040,0.45505756,0.5412813,-0.51420856,0.48531142,9.876806259155273,0.25420501828193665,-1.225366234779358,1.0626646280288696,0.46113744378089905, 2.7439205646514893
111,281412707,0.45491743,0.541148,-0.51430887,0.48548457,9.868934631347656,0.2796255648136139,-1.2064154148101807,0.10699065774679184,0.48982369899749756, 2.843515634536743
112,281429374,0.45480788,0.5410128,-0.51438797,0.48565397,9.905560493469238,0.14983469247817993,-1.2714914083480835,-0.5067856311798096,0.66315758228302, 2.736633539199829
113,281446041,0.4546009,0.54098994,-0.51432,0.48594543,9.880477905273438,0.14836299419403076,-1.2300266027450562,0.6072707176208496,0.8694934844970703, 2.5661556720733643
114,281462708,0.4544327,0.5409431,-0.5142888,0.48618793,9.8508939743042,0.21049116551876068,-1.1716960668563843,0.7803869843482971,0.787788987159729, 2.432380437850952
115,281479375,0.4542468,0.54093623,-0.51423675,0.4864241,9.86982250213623,0.20798739790916443,-1.2011057138442993,0.4859561622142792,0.6384029984474182, 2.3254473209381104
116,281496042,0.4539608,0.54103833,-0.5140787,0.48674476,9.85421371459961,0.19536373019218445,-1.2195626497268677,0.5824136137962341,0.5800572037696838, 2.3023831844329834
117,281512709,0.4537844,0.5410542,-0.51398736,0.48698798,9.844676971435547,0.16077739000320435,-1.2362258434295654,0.868891716003418,0.7511629462242126, 2.0897977352142334
118,281529376,0.45362553,0.54107374,-0.51386213,0.4872464,9.87753963470459,0.21175670623779297,-1.2037129402160645,0.7618306279182434,0.9710094928741455, 1.9736826419830322
119,281546043,0.4534264,0.5411362,-0.513688,0.4875458,9.894582748413086,0.24836523830890656,-1.2101540565490723,0.4498807191848755,1.0020520687103271, 2.0175445079803467
120,281562710,0.45340073,0.5410131,-0.513732,0.48765984,9.853015899658203,0.22532841563224792,-1.2160078287124634,-0.2569594383239746,0.8502968549728394, 2.1240036487579346
121,281579377,0.45327285,0.5410114,-0.513663,0.48785338,9.847051620483398,0.17695458233356476,-1.188679814338684,0.23483644425868988,0.7447724938392639, 1.985080361366272
122,281596044,0.4532428,0.540906,-0.5137289,0.4879288,9.810002326965332,0.1703978180885315,-1.1952202320098877,0.5218011736869812,0.5607709288597107, 1.9572521448135376
123,281612711,0.45309123,0.54093915,-0.513679,0.48808515,9.846495628356934,0.1630188375711441,-1.1594129800796509,0.4408521056175232,0.34924831986427307, 1.8939499855041504
124,281629378,0.45289004,0.54103094,-0.5135744,0.48828033,9.892751693725586,0.21574075520038605,-1.1938601732254028,-0.15389390289783478,0.3069745898246765, 1.9262222051620483
125,281646045,0.45264286,0.54118335,-0.51340103,0.48852283,9.886337280273438,0.2144915759563446,-1.2303193807601929,0.38656604290008545,0.33779942989349365, 1.7965065240859985
126,281662712,0.45251343,0.5412244,-0.5133125,0.4886903,9.880796432495117,0.15781955420970917,-1.2333228588104248,0.9125739932060242,0.5668282508850098, 1.6784193515777588
127,281679379,0.45239946,0.5412608,-0.51320255,0.48887092,9.857640266418457,0.16537396609783173,-1.2316665649414062,0.8422799110412598,0.7600504159927368, 1.6265791654586792
128,281696046,0.45222783,0.54135454,-0.51308024,0.48905432,9.842263221740723,0.23191434144973755,-1.153878092765808,0.4770365357398987,0.427783340215683, 1.6829721927642822
129,281712713,0.45211378,0.5414033,-0.5130235,0.48916516,9.84365177154541,0.16287173330783844,-1.1938399076461792,0.34728899598121643,0.3000335693359375, 1.6019142866134644
130,281729380,0.4519095,0.541531,-0.5129011,0.48934096,9.851531028747559,0.16885006427764893,-1.1881630420684814,0.9423230886459351,0.1699722558259964, 1.6444311141967773
131,281746047,0.4516949,0.5416674,-0.51281494,0.48947838,9.873425483703613,0.23582513630390167,-1.1774318218231201,0.9515692591667175,-0.15061546862125397, 1.65224289894104
132,281762714,0.45149824,0.54178,-0.5127396,0.4896141,9.875905990600586,0.21798117458820343,-1.2270416021347046,0.7007697820663452,-0.04489905759692192, 1.7340755462646484
133,281779381,0.45131746,0.54191154,-0.5126067,0.48977432,9.875260353088379,0.1071396917104721,-1.2265568971633911,0.9176199436187744,0.22310583293437958, 1.4966717958450317
134,281796048,0.4512007,0.541977,-0.5125232,0.48989698,9.876145362854004,0.19314821064472198,-1.212838053703308,0.9153913259506226,0.37351638078689575, 1.503727912902832
135,281812715,0.4510899,0.5420446,-0.51246417,0.48998582,9.866311073303223,0.2523546814918518,-1.1809965372085571,0.048619307577610016,0.1974290907382965, 1.5492290258407593
136,281829382,0.4509651,0.54210436,-0.51246357,0.4900352,9.88176441192627,0.2080720216035843,-1.1506569385528564,-0.19408023357391357,-0.15317676961421967, 1.728223443031311
137,281846049,0.4507449,0.54223704,-0.51242894,0.4901272,9.891220092773438,0.1782020479440689,-1.178809642791748,0.5398324131965637,-0.470287561416626, 1.8241170644760132
138,281862716,0.45045143,0.542429,-0.51236415,0.4902525,9.834197044372559,0.23166728019714355,-1.1965681314468384,0.5545982122421265,-0.7001744508743286, 1.9402580261230469
139,281879383,0.45028305,0.5424782,-0.51246834,0.49024376,9.823076248168945,0.1926095187664032,-1.2337394952774048,0.5320717692375183,-0.8241526484489441, 2.0307862758636475
140,281896050,0.45002756,0.5425306,-0.5126503,0.49023035,9.891249656677246,0.3546181321144104,-1.0794590711593628,-0.4915205240249634,-1.381356954574585, 2.7258894443511963
141,281912717,0.44990385,0.54242253,-0.5130808,0.4900128,9.921304702758789,0.3727005422115326,-1.2393983602523804,-2.701423168182373,-1.9179943799972534, 3.1276631355285645
142,281929384,0.44967708,0.542476,-0.51328105,0.48995188,9.881403923034668,0.11777045577764511,-1.3583818674087524,-3.0477962493896484,-1.4889559745788574, 2.853555917739868
143,281946051,0.44954586,0.54243076,-0.5134618,0.48993334,9.843270301818848,0.07447226345539093,-1.350296974182129,-1.9969968795776367,-0.6111446619033813, 2.772773265838623
144,281962718,0.44952956,0.5423311,-0.5135971,0.4899164,9.768752098083496,0.11902734637260437,-1.3001320362091064,-1.6362800598144531,0.12299858033657074, 2.324538230895996
145,281979385,0.44937584,0.54262185,-0.51294,0.4904238,9.879354476928711,0.1127392128109932,-1.1785252094268799,4.644242763519287,2.7339186668395996, 0.07813794165849686
146,281996052,0.4494998,0.5431867,-0.5112199,0.49147987,9.792036056518555,-0.042998991906642914,-1.315171718597412,10.000414848327637,8.120979309082031, -4.093052864074707
147,282012719,0.44961494,0.5436158,-0.5098744,0.49229738,9.792449951171875,-0.12882095575332642,-1.3062586784362793,7.3489837646484375,6.512921333312988, -2.911447763442993
148,282029386,0.4496504,0.5440165,-0.5088232,0.4929093,9.76983642578125,0.24589262902736664,-1.2005351781845093,4.3057708740234375,4.682302474975586, -1.9174693822860718
149,282046053,0.44980717,0.54407924,-0.5085019,0.49302855,9.81511402130127,0.4269665777683258,-1.1001167297363281,0.10426290333271027,2.1383724212646484, -0.0930253267288208
150,282062720,0.44990438,0.543966,-0.5087533,0.4928053,9.863953590393066,0.35389938950538635,-0.9574522376060486,-2.9291703701019287,-0.5330002307891846, 1.7853907346725464
151,282079387,0.44949785,0.5440727,-0.5093038,0.4924899,9.817414283752441,0.3830585181713104,-0.7844829559326172,-2.598191022872925,-4.310925006866455, 3.677952289581299
152,282096054,0.4486984,0.54420596,-0.51056916,0.491761,9.741180419921875,0.6936706900596619,-0.619060754776001,-5.0390191078186035,-9.552875518798828, 6.350447654724121
153,282112721,0.44765845,0.5440695,-0.5130114,0.49031603,9.794445037841797,1.0360347032546997,-0.3532733917236328,-10.93305492401123,-15.836051940917969, 10.291205406188965
154,282129388,0.44641805,0.54357266,-0.51657325,0.48825383,10.04207992553711,0.8782854080200195,-0.6501181125640869,-15.886926651000977,-21.160480499267578, 14.430245399475098
155,282146055,0.44454217,0.5432747,-0.51996815,0.4866909,10.530261039733887,0.7125701308250427,-1.1611969470977783,-11.796631813049316,-21.72495460510254, 16.978437423706055
156,282162722,0.4424334,0.54357976,-0.5202243,0.48799658,10.826655387878418,1.2864882946014404,-0.4096616506576538,11.489274024963379,-4.273111820220947, 12.721540451049805
157,282179389,0.4404735,0.5432201,-0.52140486,0.48890913,10.21352481842041,1.311659336090088,-1.1733415126800537,5.40645694732666,-5.879223346710205, 16.809947967529297
158,282196056,0.43757123,0.5427539,-0.524233,0.48900896,10.86644458770752,0.8716802597045898,-1.0797938108444214,-0.9783567190170288,-16.897144317626953, 24.296422958374023
159,282212723,0.43339968,0.54277635,-0.5274645,0.4892236,11.48509693145752,0.4279872477054596,-0.8958216905593872,4.767974376678467,-23.936006546020508, 28.656137466430664
160,282229390,0.428078,0.5432602,-0.5306896,0.48988396,12.261536598205566,0.7095885872840881,-0.4696098566055298,12.137499809265137,-28.017337799072266, 32.19438552856445
161,282246057,0.42217714,0.5437048,-0.5340655,0.49084187,12.263153076171875,1.4002506732940674,-0.26450395584106445,14.625901222229004,-29.395315170288086, 35.82341766357422
162,282262724,0.4160501,0.54347825,-0.5388534,0.4910914,12.293827056884766,1.5206300020217896,-0.36899006366729736,5.86258602142334,-34.7736701965332, 42.448646545410156
163,282279391,0.40929362,0.54260844,-0.545089,0.49084902,12.106279373168945,1.7171229124069214,-0.9803382158279419,0.10818328708410263,-41.03658676147461, 51.02363586425781
164,282296058,0.40240285,0.5412891,-0.5528331,0.48934028,11.384997367858887,2.4321305751800537,-1.5679237842559814,-9.754852294921875,-49.127323150634766, 55.24317932128906
165,282312725,0.39569724,0.5401864,-0.56086814,0.4868772,10.571296691894531,1.703681230545044,-2.494783878326416,-14.233818054199219,-53.57463073730469, 52.393863677978516
166,282329392,0.3886153,0.54023874,-0.5674157,0.48493296,9.828814506530762,1.9325224161148071,-3.0911149978637695,-2.694399356842041,-52.905784606933594, 45.23933410644531
167,282346059,0.38154367,0.5416016,-0.57190746,0.48375008,9.1697998046875,1.5317610502243042,-3.0119173526763916,10.67021656036377,-48.86395263671875, 34.64875411987305
168,282362726,0.37462252,0.54462975,-0.5728981,0.4845867,8.43758487701416,2.0131301879882812,-0.9755064249038696,34.13786315917969,-37.048641204833984, 19.994394302368164
169,282379393,0.3700572,0.5489495,-0.5707915,0.48570514,7.163975238800049,5.446643829345703,1.0836251974105835,40.11913299560547,-23.07962417602539, -3.6504135131835938
170,282396060,0.37229374,0.5520912,-0.5693265,0.48214126,6.833444118499756,6.571535587310791,1.6178617477416992,-8.986098289489746,-11.911528587341309, -30.887006759643555
171,282412727,0.3807774,0.55409545,-0.5672451,0.4756258,6.767924785614014,5.541172027587891,1.9668341875076294,-45.03571319580078,6.47449254989624, -56.64299011230469
172,282429394,0.39320612,0.55567414,-0.5625041,0.4692592,7.683525562286377,4.307651519775391,1.9674664735794067,-51.84720993041992,30.537370681762695, -77.30549621582031
173,282446061,0.40793923,0.5577425,-0.55365324,0.4647335,8.677462577819824,2.700822591781616,1.6437363624572754,-38.917022705078125,55.76628494262695, -97.114501953125
174,282462728,0.42338392,0.56075305,-0.5402627,0.46305344,9.286460876464844,1.9162007570266724,1.491943359375,-13.687857627868652,78.90123748779297, -112.24591064453125
175,282479395,0.43900174,0.56443566,-0.52292675,0.46393713,10.023664474487305,1.5027921199798584,1.099219799041748,7.235611438751221,98.62319946289062, -122.44661712646484
176,282496062,0.4544832,0.5682087,-0.5026992,0.46677357,10.611775398254395,1.5297518968582153,0.5412678122520447,23.875038146972656,113.93950653076172, -127.60684204101562
177,282512729,0.46991414,0.5717425,-0.48051736,0.47052562,10.992854118347168,1.7976727485656738,0.18188022077083588,33.04079818725586,124.08267974853516, -131.47308349609375
178,282529396,0.48530313,0.5747228,-0.45722467,0.47446865,11.377376556396484,1.6622506380081177,-0.1544661968946457,35.36568832397461,129.9500732421875, -133.2721710205078
179,282546063,0.5001053,0.57747006,-0.43306568,0.4784112,11.824089050292969,1.5345100164413452,-0.551315426826477,40.15730285644531,131.75576782226562, -134.15762329101562
180,282562730,0.5138148,0.5806835,-0.40754333,0.48239976,11.914543151855469,1.2700711488723755,-1.3067787885665894,52.72184753417969,132.22645568847656, -137.35426330566406
181,282579397,0.52626824,0.5843795,-0.3822065,0.48524264,12.126605033874512,0.5858234167098999,-1.842688798904419,55.5128288269043,122.02197265625, -137.91053771972656
182,282596064,0.5378172,0.5879365,-0.35850716,0.48637027,11.581639289855957,0.8532906174659729,-1.555722713470459,48.57297134399414,107.4760513305664, -134.29345703125
183,282612731,0.54981947,0.58931935,-0.33975077,0.48473796,10.745580673217773,-0.07198412716388702,-2.3120672702789307,15.27635383605957,86.58521270751953, -120.82705688476562
184,282629398,0.56098044,0.5879944,-0.3283628,0.48139527,9.791991233825684,-1.378017783164978,-2.846963405609131,-20.18594741821289,59.02727508544922, -88.53070831298828
185,282646065,0.5714629,0.5831096,-0.32612544,0.4765035,9.192765235900879,-2.0498998165130615,-4.134449005126953,-65.02648162841797,27.889301300048828, -47.5318603515625
186,282662732,0.5794092,0.57645696,-0.33252212,0.4705438,9.262896537780762,-4.34997034072876,-6.130295276641846,-92.55467987060547,-9.994739532470703, -5.171592712402344
187,282679399,0.58268565,0.5706318,-0.3451525,0.46446377,8.09756088256836,-5.085618019104004,-6.778261661529541,-91.26441955566406,-48.329322814941406, 31.831512451171875
188,282696066,0.58074033,0.5663241,-0.36202687,0.4592976,9.770207405090332,-4.3270721435546875,-5.450249671936035,-76.14004516601562,-78.61176300048828, 64.78490447998047
189,282712733,0.5742578,0.56478685,-0.37545705,0.4585585,12.54104232788086,6.536790370941162,7.425745487213135,-25.542186737060547,-67.3292007446289, 76.07119750976562
190,282729400,0.5737398,0.55927783,-0.3907488,0.45315173,9.742673873901367,4.236713409423828,6.793896198272705,-82.17054748535156,-65.24385070800781, 56.429222106933594
191,282746067,0.5687501,0.5574703,-0.4062945,0.44796756,10.72695255279541,-3.8789987564086914,-1.7342067956924438,-50.437374114990234,-89.28825378417969, 62.313114166259766
192,282762734,0.55825144,0.56221086,-0.41713157,0.44528142,10.064994812011719,-0.8181149959564209,-0.03328724205493927,17.77950668334961,-96.72684478759766, 52.32191467285156
193,282779401,0.5467324,0.56751096,-0.42624095,0.4442228,9.835877418518066,0.026841506361961365,0.28541120886802673,33.854248046875,-88.4118423461914, 53.20815658569336
194,282796068,0.5356568,0.572535,-0.4341641,0.44359553,8.824091911315918,2.0005600452423096,-2.4149248600006104,35.9948844909668,-80.12873077392578, 49.510459899902344
195,282812735,0.525241,0.5773051,-0.44228473,0.44184268,11.172077178955078,2.0986692905426025,-4.080409526824951,28.492652893066406,-82.41584777832031, 44.87174606323242
196,282829402,0.5159747,0.5803161,-0.45127338,0.4397223,11.44774341583252,1.2351809740066528,-3.1279685497283936,13.804109573364258,-77.97669982910156, 48.8151741027832
197,282846069,0.5071983,0.58296967,-0.45984867,0.43753344,10.567240715026855,0.31679362058639526,-2.958467483520508,11.609895706176758,-74.05902862548828, 46.47853469848633
198,282862736,0.49813545,0.5863914,-0.46659303,0.43623066,10.445423126220703,-0.08812045305967331,-2.5687336921691895,23.735538482666016,-67.23497009277344, 40.55844497680664
199,282879403,0.4899802,0.58936834,-0.47288412,0.43467805,10.379804611206055,1.8545820713043213,-2.3880629539489746,19.10134506225586,-62.373924255371094, 36.46379089355469
200,282896070,0.4842317,0.590474,-0.4801297,0.4316661,10.209856986999512,1.7526878118515015,-2.3047361373901367,-4.546225547790527,-58.03895950317383, 34.302574157714844
201,282912737,0.4800724,0.59055686,-0.48772487,0.42766562,10.089356422424316,1.5476369857788086,-2.0288589000701904,-18.695056915283203,-54.90475082397461, 31.092117309570312
202,282929404,0.47643134,0.5904562,-0.4946256,0.42393434,10.219976425170898,0.6597926020622253,-2.9895405769348145,-18.45081329345703,-49.23589324951172, 28.249080657958984
203,282946071,0.4725785,0.5904851,-0.50043255,0.42138383,10.143355369567871,0.9243872761726379,-3.357846736907959,-9.968643188476562,-41.908180236816406, 27.806215286254883
204,282962738,0.46963945,0.5897008,-0.50605756,0.41904363,10.1639986038208,1.1581594944000244,-3.103518009185791,-15.07422924041748,-34.902854919433594, 27.873130798339844
205,282979405,0.46762636,0.5886108,-0.5104768,0.41746417,10.097386360168457,0.9530463218688965,-2.631211757659912,-13.6937894821167,-23.783037185668945, 23.824228286743164
206,282996072,0.46571216,0.5884017,-0.51256967,0.41733488,9.981725692749023,0.5257547497749329,-2.453632354736328,0.5042827129364014,-12.602683067321777, 15.676051139831543
207,283012739,0.4637732,0.5887697,-0.5137196,0.4175605,9.825825691223145,0.1933213323354721,-2.3720738887786865,6.402533531188965,-9.888392448425293, 10.994112968444824
208,283029406,0.4616422,0.58964825,-0.51440036,0.41784397,9.643290519714355,0.7287318706512451,-2.318690299987793,10.350415229797363,-10.3036527633667, 7.971172332763672
209,283046073,0.4593011,0.5907805,-0.514951,0.4181467,9.596041679382324,1.1472103595733643,-2.3521533012390137,12.446307182312012,-11.287389755249023, 7.184300422668457
210,283062740,0.45673707,0.5919245,-0.51566166,0.41846123,9.453536033630371,1.4871827363967896,-2.3009939193725586,12.97372817993164,-12.571832656860352, 8.467794418334961
211,283079407,0.45388713,0.5929971,-0.5167817,0.41866183,9.319042205810547,1.745919942855835,-2.23358154296875,12.338215827941895,-15.135889053344727, 10.866968154907227
212,283096074,0.45085698,0.59392476,-0.5183948,0.4186266,9.335100173950195,1.591158390045166,-2.3017563819885254,10.375616073608398,-17.870426177978516, 13.205672264099121
213,283112741,0.44761506,0.5947271,-0.5203309,0.41856447,9.396166801452637,1.3361539840698242,-2.4031567573547363,9.837798118591309,-19.38528823852539, 15.522192001342773
214,283129408,0.44430205,0.5952869,-0.5224496,0.41865954,9.440994262695312,1.269557237625122,-2.5696208477020264,9.428399085998535,-18.868377685546875, 17.837982177734375
215,283146075,0.44060126,0.5960083,-0.52429664,0.41923472,9.456940650939941,1.1227670907974243,-2.669114828109741,14.024101257324219,-17.93633270263672, 18.740129470825195
216,283162742,0.43672344,0.59673584,-0.5260644,0.42004222,9.506747245788574,1.0132110118865967,-2.627161979675293,15.841538429260254,-17.400468826293945, 19.61315155029297
217,283179409,0.43270925,0.5972118,-0.5282037,0.4208344,9.672994613647461,0.5395938158035278,-2.657248020172119,14.524726867675781,-18.352516174316406, 22.399200439453125
218,283196076,0.4278996,0.5976934,-0.53038013,0.4223286,9.928980827331543,0.143256276845932,-2.724904775619507,20.25274085998535,-18.49513053894043, 26.902830123901367
219,283212743,0.42225945,0.5982746,-0.53284544,0.42407584,9.340744018554688,1.8970365524291992,-2.236199140548706,24.04094696044922,-21.63567352294922, 30.849363327026367
220,283229410,0.4171132,0.59820455,-0.5364204,0.42476022,9.372299194335938,1.764327049255371,-3.159349203109741,13.014151573181152,-25.552631378173828, 33.33127975463867
221,283246077,0.411501,0.5977306,-0.5404369,0.42580876,9.600775718688965,1.2517601251602173,-3.2147719860076904,13.85132884979248,-25.852371215820312, 39.09731674194336
222,283262744,0.4055005,0.59677726,-0.54495674,0.42714006,9.557772636413574,1.3483734130859375,-3.099311351776123,13.688365936279297,-26.150102615356445, 44.91786193847656
223,283279411,0.3990447,0.5954542,-0.54999095,0.42861158,9.58154582977295,1.0261988639831543,-2.8467233180999756,13.566166877746582,-27.63533592224121, 50.185577392578125
224,283296078,0.39199707,0.5939711,-0.55556154,0.42998627,9.547758102416992,0.5964973568916321,-2.7489373683929443,13.625839233398438,-31.290664672851562, 54.50040054321289
225,283312745,0.38400102,0.5925074,-0.5616016,0.43137246,9.81470775604248,0.5428651571273804,-2.7850608825683594,16.226848602294922,-36.220088958740234, 59.19883346557617
226,283329412,0.37477434,0.5910769,-0.56812763,0.43290132,10.188124656677246,0.60659259557724,-2.8258843421936035,20.459482192993164,-41.80915069580078, 65.102294921875
227,283346079,0.3638552,0.58979636,-0.5750202,0.43485793,10.946292877197266,0.5745887756347656,-3.022278070449829,28.32996940612793,-48.118247985839844, 72.18203735351562
228,283362746,0.3515084,0.58798605,-0.582931,0.43692762,13.00429916381836,1.57825767993927,-3.157885789871216,30.227453231811523,-54.32461166381836, 83.00129699707031
229,283379413,0.3377928,0.5863317,-0.5915106,0.43843627,13.38377857208252,0.476728618144989,-2.738875389099121,31.93089485168457,-64.2579116821289, 87.9450912475586
230,283396080,0.32145408,0.5863245,-0.5990712,0.4404595,14.601120948791504,-0.17917872965335846,-2.82319974899292,51.530513763427734,-75.57682037353516, 86.31620025634766
231,283412747,0.30324352,0.58643556,-0.60703856,0.4423133,16.3624267578125,0.1568661630153656,-2.577744245529175,57.43336868286133,-85.37960815429688, 92.83433532714844
232,283429414,0.28350192,0.58490574,-0.6173362,0.44317928,18.1978702545166,2.900972604751587,-0.6828254461288452,49.006805419921875,-95.83341217041016, 111.79611206054688
233,283446081,0.2633448,0.5811633,-0.63025755,0.44235107,19.579587936401367,3.687608003616333,0.5191848278045654,31.2452335357666,-103.12792205810547, 129.97702026367188
234,283462748,0.24170564,0.5757633,-0.64196885,0.4449171,19.14285659790039,7.3226470947265625,0.06356051564216614,52.61574935913086,-89.19093322753906, 143.3255157470703
235,283479415,0.22195274,0.5697148,-0.6562229,0.4421921,15.593215942382812,8.324238777160645,-2.8522260189056396,13.074772834777832,-104.48038482666016, 142.19578552246094
236,283496082,0.20250353,0.56497985,-0.6701199,0.43672583,14.180903434753418,2.971031427383423,-5.531101703643799,2.830209732055664,-117.56463623046875, 130.2538299560547
237,283512749,0.18593659,0.5621307,-0.6788373,0.43430042,9.526664733886719,2.582138776779175,-2.2105515003204346,23.984020233154297,-91.06464385986328, 97.29684448242188
238,283529416,0.17162389,0.5626574,-0.6817223,0.4349906,6.48723030090332,-0.3581528067588806,-4.81190824508667,51.64900588989258,-71.25730895996094, 56.46065139770508
239,283546083,0.15961021,0.56609535,-0.6782646,0.44047454,8.040006637573242,7.294631481170654,1.396049976348877,87.71324157714844,-43.09287643432617, 17.144691467285156
240,283562750,0.16081631,0.5688694,-0.67820024,0.43654343,5.74319314956665,7.700918674468994,2.241185188293457,-18.493650436401367,-19.99759292602539, -16.558401107788086
241,283579417,0.1684308,0.5719134,-0.6768333,0.43179035,5.107674598693848,3.8433187007904053,0.025543229654431343,-43.0369987487793,7.083381175994873, -42.75965881347656
242,283596084,0.18185203,0.57561815,-0.6721961,0.42865655,5.451653957366943,3.698042392730713,0.5653722882270813,-47.78508758544922,42.170188903808594, -73.90221405029297
243,283612751,0.19876975,0.57953835,-0.6638873,0.428812,5.636292934417725,0.8936100602149963,-0.5213291645050049,-35.28506088256836,75.16808319091797, -95.45729064941406
244,283629418,0.21749815,0.5840489,-0.6514231,0.43270034,5.944897651672363,0.2569003999233246,-0.9055130481719971,-12.425593376159668,102.17711639404297, -114.85697937011719
245,283646085,0.23804274,0.58901274,-0.6356944,0.4385117,6.89656400680542,-0.3641248345375061,-1.070170283317566,-0.7632813453674316,121.53872680664062, -132.43812561035156
246,283662752,0.26059496,0.5939297,-0.6173718,0.4451855,8.009398460388184,-0.5023767948150635,-1.49403715133667,2.551936149597168,138.171142578125, -147.3040008544922
247,283679419,0.2852683,0.59823084,-0.597088,0.45191577,8.763911247253418,-0.24500927329063416,-2.0672149658203125,-1.0495576858520508,152.7889862060547, -159.01527404785156
248,283696086,0.31198937,0.6015837,-0.57530993,0.4580155,9.684039115905762,0.15042071044445038,-2.6352639198303223,-9.354951858520508,164.47784423828125, -168.79629516601562
249,283712753,0.34050044,0.6039624,-0.5525045,0.4626313,10.688933372497559,0.19728629291057587,-2.9174885749816895,-21.564722061157227,170.7005157470703, -177.941650390625
250,283729420,0.37052834,0.60503656,-0.52911764,0.46548277,11.715621948242188,-0.5112297534942627,-3.042206048965454,-35.856666564941406,174.65390014648438, -184.3109588623047
251,283746087,0.40126047,0.60483634,-0.50500196,0.46705064,12.194193840026855,-1.0208021402359009,-3.4293975830078125,-44.4674186706543,177.8166046142578, -188.2479705810547
252,283762754,0.43229175,0.6036987,-0.4798097,0.4673912,12.913834571838379,-1.534077763557434,-3.381889820098877,-49.207061767578125,179.76307678222656, -193.89283752441406
253,283779421,0.46266925,0.6020038,-0.4529598,0.46728572,13.705564498901367,-1.7684427499771118,-3.0952277183532715,-44.39772415161133,182.5222930908203, -198.2917938232422
254,283796088,0.4925528,0.59903413,-0.42521927,0.46662462,14.08652114868164,-1.2130428552627563,-2.6598076820373535,-45.38230514526367,185.6742401123047, -198.36463928222656
255,283812755,0.520736,0.5952283,-0.3963812,0.4662825,14.548837661743164,-1.9118573665618896,-3.106598138809204,-36.85312271118164,188.48757934570312, -194.09063720703125
256,283829422,0.5463485,0.5911149,-0.36595973,0.4670761,15.088839530944824,-3.082136869430542,-3.816128730773926,-19.36473846435547,192.91590881347656, -187.66810607910156
257,283846089,0.56827587,0.587551,-0.3351425,0.468536,15.492156028747559,-4.253880500793457,-5.108357906341553,0.5167731046676636,186.27096557617188, -176.6366729736328
258,283862756,0.58584934,0.5835049,-0.308203,0.47043994,13.706819534301758,-5.950538158416748,-6.206734657287598,4.633551597595215,164.70632934570312, -144.48097229003906
259,283879423,0.59951186,0.57768434,-0.28943107,0.47233054,11.383724212646484,-5.941174507141113,-8.285096168518066,-13.390092849731445,129.52044677734375, -95.80547332763672
260,283896090,0.6082013,0.5719148,-0.283148,0.4720509,9.015729904174805,-6.817116737365723,-11.869223594665527,-38.43709182739258,59.7393684387207, -39.53133010864258
261,283912757,0.6103607,0.56865865,-0.28954592,0.46930858,7.988100051879883,-7.017818450927734,-12.02304744720459,-48.35946273803711,-23.34385108947754, 15.908639907836914
262,283929424,0.60652137,0.5675769,-0.30627885,0.46495378,9.372864723205566,-8.119239807128906,-11.6608247756958,-52.476097106933594,-91.48419189453125, 64.18203735351562
263,283946091,0.5940768,0.5704141,-0.3251312,0.46474755,15.17661190032959,-0.11775864660739899,1.052618145942688,-0.6915010213851929,-114.28138732910156, 108.57390594482422
264,283962758,0.5889788,0.565785,-0.3500241,0.4587752,13.693904876708984,5.151374816894531,8.088303565979004,-92.14623260498047,-121.22976684570312, 101.70475006103516
265,283979425,0.5822816,0.5632124,-0.37519112,0.45052427,10.890507698059082,-7.722380638122559,-3.7389698028564453,-83.82828521728516,-141.7808380126953, 93.649658203125
266,283996092,0.56781703,0.5704111,-0.38991275,0.44741872,9.946737289428711,-2.5256869792938232,-0.3751291036605835,30.998790740966797,-130.1391143798828, 72.22748565673828
267,284012759,0.5521052,0.579404,-0.39904028,0.4474799,9.423273086547852,-0.1857617199420929,-2.077754259109497,68.5995864868164,-104.70470428466797, 61.45939636230469
268,284029426,0.53667504,0.5880142,-0.40751508,0.44738254,10.092729568481445,2.2257800102233887,-7.778194904327393,67.5739974975586,-100.83070373535156, 58.322017669677734
269,284046093,0.52484024,0.5930636,-0.417895,0.445177,12.060948371887207,3.592729330062866,-3.9989583492279053,28.054752349853516,-95.07566833496094, 57.13833236694336
270,284062760,0.5156519,0.5960546,-0.427745,0.44255722,11.554365158081055,-1.6012287139892578,-4.337201118469238,10.242040634155273,-80.8253173828125, 51.31957244873047
271,284079427,0.5049486,0.6009268,-0.43428463,0.4419405,10.840975761413574,0.9131085276603699,-2.451390266418457,39.04672622680664,-70.93412780761719, 43.76802062988281
272,284096094,0.4981462,0.6028381,-0.4426831,0.43871304,10.674243927001953,1.9216331243515015,-2.1301562786102295,-0.8069581389427185,-67.4883041381836, 39.319149017333984
273,284112761,0.49236006,0.60422313,-0.4506218,0.43524328,10.42989730834961,0.3540923595428467,-2.345031261444092,-6.176473617553711,-62.21341323852539, 35.12018585205078
274,284129428,0.48698252,0.6056795,-0.4578126,0.43175068,10.122965812683105,1.6077969074249268,-2.0254344940185547,-5.478065013885498,-58.69742965698242, 30.440643310546875
275,284146095,0.48341987,0.6061134,-0.46531117,0.4271039,10.37500286102295,1.3226596117019653,-2.4346420764923096,-21.00869369506836,-55.778324127197266, 25.693628311157227
276,284162762,0.47966897,0.60682845,-0.47171652,0.42327404,10.242341041564941,0.8587338924407959,-3.306004047393799,-13.473700523376465,-50.151493072509766, 23.50260353088379
277,284179429,0.47558266,0.6076489,-0.47774026,0.41993886,10.130711555480957,1.0831997394561768,-3.265223503112793,-9.024524688720703,-48.18150329589844, 24.15580177307129
278,284196096,0.47159064,0.6082792,-0.48282814,0.41770324,10.085046768188477,1.4231951236724854,-2.7204511165618896,-3.735973596572876,-39.63410568237305, 24.182754516601562
279,284212763,0.46853223,0.6082482,-0.48736608,0.41591626,9.971954345703125,1.8103821277618408,-2.429006338119507,-6.715429306030273,-30.967607498168945, 22.854196548461914
280,284229430,0.46631774,0.6079,-0.49137965,0.41418803,9.824481010437012,1.0679504871368408,-2.714193820953369,-9.562807083129883,-25.303699493408203, 19.518749237060547
281,284246097,0.46370244,0.608157,-0.49407253,0.4135432,9.661334037780762,0.8039429187774658,-2.784043073654175,1.472957730293274,-19.615774154663086, 16.563020706176758
282,284262764,0.4605142,0.6090516,-0.49571785,0.4138201,9.682292938232422,1.1733639240264893,-2.724510669708252,12.009239196777344,-16.180179595947266, 14.565544128417969
283,284279431,0.45714197,0.6100865,-0.4970472,0.41443956,9.521098136901855,1.490655541419983,-2.7219488620758057,15.29282283782959,-14.777128219604492, 14.364716529846191
284,284296098,0.45397666,0.6109057,-0.4985385,0.41492063,9.187847137451172,1.59818434715271,-2.810603618621826,12.817808151245117,-14.550541877746582, 14.764171600341797
285,284312765,0.4507689,0.6116963,-0.49994206,0.41556367,9.157382011413574,1.282902717590332,-2.948183536529541,13.719425201416016,-13.6625337600708, 15.13430118560791
286,284329432,0.4474796,0.6124523,-0.50122404,0.4164598,9.163674354553223,1.1788877248764038,-3.015110731124878,15.177177429199219,-12.400607109069824, 15.763632774353027
287,284346099,0.4441656,0.6130001,-0.5025724,0.41757563,9.218432426452637,1.2504664659500122,-3.0491769313812256,15.215482711791992,-11.177215576171875, 17.51477813720703
288,284362766,0.4408002,0.61332285,-0.5040717,0.41885814,9.256976127624512,1.2500503063201904,-2.9877219200134277,14.903124809265137,-10.49467658996582, 19.605436325073242
289,284379433,0.4372179,0.61353964,-0.5057109,0.42031693,9.446579933166504,1.3353086709976196,-2.8876497745513916,15.724699020385742,-10.669000625610352, 21.753650665283203
290,284396100,0.4333702,0.61361367,-0.507746,0.4217377,9.430251121520996,1.507169485092163,-2.5761005878448486,15.16490364074707,-12.596383094787598, 24.613706588745117
291,284412767,0.4291385,0.613645,-0.51029396,0.42294237,9.532472610473633,1.2055292129516602,-2.5169739723205566,14.447192192077637,-16.33798599243164, 27.45045280456543
292,284429434,0.4240088,0.6139911,-0.5131045,0.42421138,9.71352481842041,0.8314844965934753,-2.311100959777832,18.65614128112793,-20.99995231628418, 30.302753448486328
293,284446101,0.41782945,0.6146996,-0.51623267,0.42551976,9.714348793029785,0.8795599937438965,-2.2094345092773438,23.382368087768555,-26.621177673339844, 33.57966232299805
294,284462768,0.41052848,0.61573106,-0.51967585,0.42694104,9.929821968078613,0.973583996295929,-2.3898165225982666,28.55572509765625,-32.07911682128906, 37.41227722167969
295,284479435,0.40227416,0.61680424,-0.5239086,0.42807463,9.794100761413574,1.6108900308609009,-2.353339672088623,29.389249801635742,-39.150718688964844, 42.63869094848633
296,284496102,0.39347914,0.6178672,-0.52902454,0.42842448,9.813919067382812,1.0225262641906738,-2.613206386566162,26.26238441467285,-46.927696228027344, 45.90700149536133
297,284512769,0.383847,0.6187995,-0.5349283,0.42848656,10.139172554016113,0.8178393244743347,-2.771068572998047,26.120208740234375,-53.02204132080078, 51.462684631347656
298,284529436,0.37356186,0.61918956,-0.54192686,0.4282186,10.491156578063965,1.1015350818634033,-3.204967737197876,23.049102783203125,-58.19496154785156, 59.2087516784668
299,284546103,0.36212474,0.61959505,-0.5492714,0.4280989,10.637290000915527,1.1186445951461792,-3.5089685916900635,27.547954559326172,-62.85482406616211, 64.4444808959961
300,284562770,0.34916213,0.6203875,-0.5565153,0.42836434,11.011486053466797,0.7773508429527283,-3.49368953704834,36.78276062011719,-67.9209976196289, 68.04730987548828
301,284579437,0.3344397,0.6216295,-0.563412,0.42929435,11.823518753051758,0.39826294779777527,-3.579310655593872,48.95144271850586,-72.36884307861328, 71.66178894042969
302,284596104,0.3180565,0.6228387,-0.5702479,0.43096358,13.954754829406738,0.7727829813957214,-3.06723690032959,59.03206253051758,-75.46587371826172, 78.1592788696289
303,284612771,0.3022578,0.6220915,-0.5787762,0.43204248,15.125290870666504,-0.4617012143135071,-2.458625078201294,44.936832427978516,-73.68597412109375, 90.0966796875
304,284629438,0.28426987,0.62057024,-0.58857864,0.43319562,16.822797775268555,1.3264906406402588,-1.2114697694778442,49.207008361816406,-82.52135467529297, 105.3117904663086
305,284646105,0.26529732,0.617968,-0.6014418,0.43127823,17.81566619873047,2.8105790615081787,-0.522788405418396,29.766904830932617,-102.48461151123047, 119.73822021484375
306,284662772,0.24493122,0.61551464,-0.6136387,0.42964897,18.576311111450195,4.513363361358643,0.5468870401382446,39.14780807495117,-106.36915588378906, 121.03077697753906
307,284679439,0.2222553,0.612751,-0.6268645,0.4268252,18.03972625732422,4.773350238800049,-2.800098419189453,40.350318908691406,-122.11714172363281, 131.60891723632812
308,284696106,0.197594,0.60892373,-0.6414845,0.42268914,17.01624870300293,5.383443832397461,-6.087192058563232,37.38104248046875,-135.2903594970703, 145.9850311279297
309,284712773,0.17809662,0.604279,-0.655143,0.41703278,13.078423500061035,5.527259349822998,-1.3029131889343262,10.79065990447998,-115.22328186035156, 128.5693817138672
310,284729440,0.16121969,0.6009606,-0.6639616,0.4147407,8.6719388961792,0.8045157194137573,-2.8766002655029297,30.593103408813477,-87.36373901367188, 99.14839935302734
311,284746107,0.14424698,0.59950244,-0.66692126,0.41833702,8.023918151855469,0.08530623465776443,-4.322145462036133,76.6410903930664,-62.27309799194336, 73.24633026123047
312,284762774,0.13200942,0.5997196,-0.664864,0.42528343,7.888401985168457,6.64302921295166,0.7221704721450806,88.57825469970703,-26.56695556640625, 34.58561325073242
313,284779441,0.12992442,0.59896684,-0.6648149,0.42705944,5.822638511657715,4.117971420288086,0.3239193856716156,16.35389518737793,-0.48180124163627625, 12.969222068786621
314,284796108,0.13381486,0.5984716,-0.6639597,0.42788196,4.840099811553955,3.612072467803955,-0.9032111763954163,-10.00718879699707,22.864227294921875, -9.913753509521484
315,284812775,0.14508203,0.5981031,-0.66227144,0.42734122,4.526305675506592,3.6467227935791016,-0.658490777015686,-44.00947952270508,51.33292770385742, -36.877296447753906
316,284829442,0.16236402,0.5972474,-0.65936166,0.42682046,4.621695518493652,2.226986885070801,-1.8330957889556885,-65.54801177978516,81.46234893798828, -57.33987045288086
317,284846109,0.18479119,0.5954741,-0.6552086,0.42657316,4.886840343475342,2.7161927223205566,-1.5566385984420776,-82.81781005859375,110.00922393798828, -73.0949935913086
318,284862776,0.21212809,0.5926971,-0.6501075,0.42552578,5.854220867156982,1.9578317403793335,-1.9791309833526611,-105.02729797363281,133.01414489746094, -87.88426971435547
319,284879443,0.24279536,0.5887702,-0.64365846,0.42438647,6.82884407043457,0.9782938361167908,-2.8675689697265625,-116.75521087646484,152.8684844970703, -98.13114929199219
320,284896110,0.27528408,0.58386534,-0.63504845,0.42430347,7.8810858726501465,0.4845353364944458,-3.7832889556884766,-114.79507446289062,171.68109130859375, -106.1214599609375
321,284912777,0.3082939,0.578648,-0.6232338,0.42626408,8.705561637878418,0.1034121960401535,-4.449728965759277,-99.21964263916016,189.1573486328125, -115.29193878173828
322,284929444,0.3405084,0.5738857,-0.60741216,0.4309985,9.568338394165039,0.03757346048951149,-4.666894912719727,-71.46939086914062,203.97039794921875, -124.99244689941406
323,284946111,0.37139103,0.5700355,-0.5876235,0.43798038,10.32927417755127,-0.01685032621026039,-4.816590785980225,-42.94806671142578,213.8909912109375, -135.26092529296875
324,284962778,0.40130785,0.56711024,-0.56445915,0.4457846,11.171758651733398,0.16989092528820038,-5.200425624847412,-23.32484245300293,219.08004760742188, -147.23638916015625
325,284979445,0.43103787,0.56493,-0.5387049,0.45261204,11.778949737548828,0.7431651949882507,-5.408679485321045,-16.407337188720703,219.44894409179688, -162.3665771484375
326,284996112,0.4614439,0.56289697,-0.51147556,0.45673794,12.338648796081543,1.0841448307037354,-5.5549211502075195,-24.030988693237305,215.413330078125, -178.76731872558594
327,285012779,0.49263358,0.56072485,-0.4831928,0.45762938,13.471967697143555,0.8533139228820801,-5.442095756530762,-35.59207534790039,209.47276306152344, -195.0977783203125
328,285029446,0.5247287,0.55742854,-0.4543404,0.45553067,14.649663925170898,-0.15116389095783234,-4.600207805633545,-51.05759048461914,206.4624481201172, -206.5620574951172
329,285046113,0.5538626,0.554789,-0.42346352,0.45400926,15.335816383361816,-2.6355812549591064,-5.511569023132324,-29.2076416015625,204.70494079589844, -205.0475616455078
330,285062780,0.5775029,0.5547591,-0.3897076,0.4548199,15.609504699707031,-2.1107475757598877,-5.9570722579956055,17.445444107055664,200.4674835205078, -197.6539764404297
331,285079447,0.5965739,0.55590326,-0.35626292,0.4562328,15.2022066116333,-3.3312981128692627,-6.91511869430542,40.15583801269531,185.65599060058594, -182.98301696777344
332,285096114,0.6108564,0.5572228,-0.32702103,0.45761883,12.5296049118042,-4.195817470550537,-7.9374189376831055,45.8968391418457,156.07594299316406, -152.49383544921875
333,285112781,0.62083256,0.55804014,-0.306969,0.45708698,9.514208793640137,-4.863979339599609,-9.39240550994873,27.025402069091797,102.06873321533203, -110.71881866455078
334,285129448,0.62585706,0.5597659,-0.29962116,0.452982,9.152779579162598,-7.037881374359131,-11.446821212768555,2.405947685241699,20.876901626586914, -63.63909912109375
335,285146115,0.623767,0.5647807,-0.3020108,0.44802603,9.10084342956543,-8.931541442871094,-10.979792594909668,11.8300142288208,-49.1341438293457, -14.512273788452148
336,285162782,0.6152325,0.5718701,-0.31054452,0.44499007,9.628135681152344,-9.397485733032227,-7.818761348724365,30.78600311279297,-87.74705505371094, 33.049537658691406
337,285179449,0.6017499,0.57942516,-0.3217102,0.44572005,11.647047996520996,-9.12336254119873,-2.6700217723846436,52.184871673583984,-96.03384399414062, 73.4023208618164
338,285196116,0.58571756,0.5866357,-0.3287619,0.45244822,15.367867469787598,5.06657600402832,13.713282585144043,86.79327392578125,-59.704097747802734, 90.33409881591797
339,285212783,0.580639,0.58522123,-0.34294415,0.45029357,11.760505676269531,9.304715156555176,6.55938720703125,-34.3453254699707,-72.75049591064453, 68.75752258300781
340,285229450,0.5740667,0.58286774,-0.36409163,0.44514093,13.856780052185059,-4.737120151519775,-6.7463154792785645,-60.70085525512695,-113.28186798095703, 91.71417236328125
341,285246117,0.5616967,0.5882984,-0.3786407,0.44162604,9.983152389526367,-0.13636414706707,-0.33018022775650024,17.535079956054688,-118.97577667236328, 69.9534912109375
342,285262784,0.5514174,0.5926753,-0.39063513,0.43826866,9.618267059326172,-0.2955114245414734,-3.7067463397979736,13.17362117767334,-99.83815002441406, 56.62443161010742
343,285279451,0.54023933,0.59799683,-0.40034354,0.4361957,10.081027030944824,1.233221411705017,-6.616489887237549,30.74823760986328,-91.19032287597656, 52.35090255737305
344,285296118,0.5283613,0.60386753,-0.40781692,0.43573412,11.706791877746582,1.412368655204773,-5.063028335571289,46.79399108886719,-79.81515502929688, 49.74220657348633
345,285312785,0.52015704,0.6066158,-0.4158944,0.43415004,11.692451477050781,0.7570948004722595,-2.700444221496582,15.234320640563965,-67.00457000732422, 45.92793273925781
346,285329452,0.512383,0.6092375,-0.42306873,0.43278933,10.33670425415039,1.3651331663131714,-1.798703670501709,16.322158813476562,-61.24004364013672, 42.041534423828125
347,285346119,0.5070514,0.6100321,-0.43146464,0.4296491,10.118124008178711,2.1276392936706543,-1.8793036937713623,-9.15394401550293,-60.465110778808594, 38.947723388671875
348,285362786,0.50174063,0.61099327,-0.43907425,0.4267996,10.354769706726074,0.8082048892974854,-2.3902785778045654,-5.470743179321289,-56.943424224853516, 36.123653411865234
349,285379453,0.4963206,0.6122869,-0.44563228,0.42447948,10.438152313232422,1.3099876642227173,-2.3142032623291016,0.8202897906303406,-52.403404235839844, 32.85625076293945
350,285396120,0.49161884,0.61331993,-0.45145145,0.4223053,10.403181076049805,1.3325746059417725,-2.675931692123413,-0.4872226417064667,-46.31283950805664, 28.95468521118164
351,285412787,0.48700017,0.6146845,-0.45582503,0.4209725,10.308401107788086,0.9353166818618774,-3.190340042114258,7.095007419586182,-38.58927536010742, 24.441308975219727
352,285429454,0.48239046,0.6162721,-0.45953977,0.4199186,10.0585298538208,1.235628366470337,-2.9776387214660645,10.58625316619873,-35.8254508972168, 21.871320724487305
353,285446121,0.47831658,0.61738855,-0.46389693,0.41814402,9.956064224243164,1.5971908569335938,-2.3565592765808105,2.6232895851135254,-37.96090316772461, 22.151657104492188
354,285462788,0.47514603,0.61796397,-0.46786484,0.41648468,9.863484382629395,1.759853720664978,-2.4186060428619385,-1.5007578134536743,-31.761886596679688, 20.016761779785156
355,285479455,0.47247002,0.6184383,-0.47114834,0.4151211,9.947793006896973,1.5955541133880615,-2.2932887077331543,-1.0158414840698242,-26.396291732788086, 16.99332046508789
356,285496122,0.46973512,0.61919683,-0.47344843,0.41447687,9.625709533691406,1.7225595712661743,-2.579991102218628,5.298773765563965,-21.15216827392578, 14.40421199798584
357,285512789,0.46670264,0.62036026,-0.47466615,0.41477,9.324679374694824,1.6836034059524536,-2.888251781463623,14.011885643005371,-15.794899940490723, 12.361400604248047
358,285529456,0.46328065,0.62182,-0.47514227,0.41587397,9.228154182434082,2.0884292125701904,-2.7936017513275146,21.38918685913086,-12.077095985412598, 11.951408386230469
359,285546123,0.45986956,0.62306225,-0.4757666,0.41708487,9.191466331481934,2.448059320449829,-2.584794759750366,20.58063316345215,-11.439699172973633, 13.613973617553711
360,285562790,0.4566715,0.62389255,-0.47699925,0.41794884,9.094100952148438,2.4040350914001465,-2.476675033569336,15.491743087768555,-12.976757049560547, 15.871042251586914
361,285579457,0.45341545,0.6245606,-0.47862995,0.41863123,9.081562042236328,2.0245134830474854,-2.5985920429229736,13.498355865478516,-14.735407829284668, 17.71818733215332
362,285596124,0.44985864,0.62524825,-0.48043156,0.41937765,9.194815635681152,1.8380169868469238,-2.6540439128875732,14.573711395263672,-16.045455932617188, 19.462141036987305
363,285612791,0.4459921,0.6259163,-0.48245794,0.42018393,9.353548049926758,1.7621307373046875,-2.6388916969299316,15.400106430053711,-17.455230712890625, 21.57940673828125
364,285629458,0.44174987,0.6265607,-0.48481488,0.42099127,9.533562660217285,1.6328957080841064,-2.6209239959716797,15.997485160827637,-19.648237228393555, 24.175796508789062
365,285646125,0.4372252,0.6271596,-0.48741868,0.42181554,9.509920120239258,1.4134587049484253,-2.7425591945648193,16.422412872314453,-21.14094352722168, 26.26719093322754
366,285662792,0.4322863,0.6278128,-0.49021265,0.4226954,9.5059814453125,1.2632585763931274,-2.736543655395508,18.01055145263672,-23.02405548095703, 28.278240203857422
367,285679459,0.42695907,0.62842715,-0.4934497,0.42342976,9.492855072021484,1.5336189270019531,-2.6846630573272705,17.79620361328125,-26.17072296142578, 31.02291488647461
368,285696126,0.42135173,0.62888926,-0.49729744,0.42385948,9.512992858886719,1.6039916276931763,-2.600040912628174,15.752098083496094,-29.79214096069336, 34.105995178222656
369,285712793,0.41516164,0.6293916,-0.50169027,0.42404518,9.5833158493042,1.3715434074401855,-2.5702035427093506,15.970874786376953,-34.54270935058594, 37.323577880859375
370,285729460,0.40818372,0.6301757,-0.5061811,0.42431775,9.650452613830566,1.1457968950271606,-2.950873613357544,20.201440811157227,-37.99172592163086, 39.326416015625
371,285746127,0.40031493,0.6311289,-0.5110174,0.42460084,9.652453422546387,1.2036010026931763,-2.665590763092041,23.56831169128418,-42.51454162597656, 42.86751937866211
372,285762794,0.39203876,0.6315235,-0.5174612,0.42393142,9.900727272033691,1.6462019681930542,-2.4356014728546143,15.762157440185547,-50.880069732666016, 50.37989807128906
373,285779461,0.38326186,0.6314732,-0.5251783,0.42253992,10.292917251586914,1.2396587133407593,-3.069521427154541,10.463067054748535,-57.941471099853516, 57.013160705566406
374,285796128,0.37312344,0.63164663,-0.53302675,0.4215261,10.388007164001465,0.9999447464942932,-3.38179087638855,17.95000648498535,-62.22087860107422, 61.73228073120117
375,285812795,0.36154008,0.63212115,-0.5408242,0.42097625,10.748917579650879,0.7654621601104736,-3.482912302017212,26.850757598876953,-66.24876403808594, 65.79170989990234
376,285829462,0.34852913,0.6328849,-0.5487436,0.42055294,11.134662628173828,0.4186543822288513,-3.237896680831909,33.89529800415039,-72.15534973144531, 69.69763946533203
377,285846129,0.3339213,0.63373935,-0.55707467,0.42016527,12.474950790405273,0.42356738448143005,-3.0415053367614746,40.00936508178711,-79.28497314453125, 75.85421752929688
378,285862796,0.31851313,0.63334125,-0.56728977,0.41905946,14.717320442199707,0.7896496653556824,-3.058497667312622,32.43156433105469,-86.20269775390625, 89.53196716308594
379,285879463,0.3017544,0.63237023,-0.5785451,0.41753802,16.543964385986328,0.7273286581039429,-1.83010733127594,32.447059631347656,-93.9312973022461, 99.28709411621094
380,285896130,0.28329077,0.6311432,-0.5897167,0.41670048,18.143295288085938,2.659536361694336,-0.09936840832233429,42.29637908935547,-96.86630249023438, 106.26783752441406
381,285912797,0.2639565,0.62925917,-0.6023639,0.4141476,18.888933181762695,2.6689677238464355,0.6627904176712036,33.62603759765625,-108.88407897949219, 114.51426696777344
382,285929464,0.24260877,0.627645,-0.6156019,0.4101675,19.00826072692871,3.425480365753174,-0.19139663875102997,35.246742248535156,-125.2996597290039, 119.12418365478516
383,285946131,0.2185116,0.62508875,-0.6299423,0.40581977,19.171781539916992,5.485405921936035,-2.574167251586914,40.89265060424805,-137.76556396484375, 135.0454864501953
384,285962798,0.19444571,0.62166107,-0.64403147,0.40118867,15.914351463317871,6.491569519042969,-6.1723856925964355,38.948951721191406,-136.08712768554688, 137.2685546875
385,285979465,0.17542596,0.61742425,-0.6581358,0.39353654,12.354516983032227,6.06120491027832,-4.1628737449646,2.9116263389587402,-124.46273803710938, 122.99222564697266
386,285996132,0.16176067,0.6145532,-0.66749144,0.38808978,7.7149577140808105,2.9577157497406006,-2.587855339050293,4.689672470092773,-88.8563232421875, 84.84801483154297
387,286012799,0.14788267,0.61359346,-0.6701398,0.39057264,7.421735763549805,0.13281530141830444,-3.0471315383911133,62.01629638671875,-53.97451400756836, 57.136375427246094
388,286029466,0.138306,0.6146104,-0.66615057,0.39921078,7.104910373687744,6.958887100219727,2.9209704399108887,92.06814575195312,-6.749090194702148, 14.743349075317383
389,286046133,0.13966095,0.6153512,-0.6623346,0.40391973,5.133092403411865,5.488224506378174,2.223301649093628,27.161151885986328,27.278459548950195, -16.966291427612305
390,286062800,0.14734626,0.6159571,-0.65737814,0.4083385,5.029871940612793,3.2915475368499756,0.863434910774231,2.112359046936035,56.331905364990234, -39.012996673583984
391,286079467,0.1614195,0.61654925,-0.6502225,0.4135482,5.041446208953857,3.493849277496338,0.7726714015007019,-15.197813034057617,90.81273651123047, -65.38585662841797
392,286096134,0.18110843,0.61661905,-0.64131826,0.41915652,5.004182815551758,2.95111083984375,-0.3096727728843689,-32.82163619995117,121.02967071533203, -85.97624969482422
393,286112801,0.2061993,0.61573243,-0.6311846,0.42421922,5.3101487159729,2.752506732940674,-1.3997725248336792,-55.77382278442383,146.8275146484375, -103.21127319335938
394,286129468,0.23606092,0.61386216,-0.6198687,0.4280321,6.350528240203857,1.6157790422439575,-2.431720733642578,-79.33964538574219,166.7947540283203, -119.63011932373047
395,286146135,0.26848105,0.61102533,-0.60640615,0.43224758,7.820929050445557,0.16435979306697845,-3.227321147918701,-83.67442321777344,185.73899841308594, -131.4468231201172
396,286162802,0.30164376,0.60755944,-0.5896806,0.43836033,8.8983154296875,-0.7799574136734009,-4.003539562225342,-70.35130310058594,204.71401977539062, -141.2393341064453
397,286179469,0.33437684,0.6039971,-0.56929535,0.4464112,9.772963523864746,-1.1615452766418457,-4.54069185256958,-49.87360763549805,218.96868896484375, -150.8272705078125
398,286196136,0.36591822,0.60082006,-0.5450218,0.4561478,10.743189811706543,-1.5253140926361084,-4.835040092468262,-25.51252555847168,229.08755493164062, -160.95648193359375
399,286212803,0.39570957,0.5986296,-0.5166314,0.46706426,11.687324523925781,-1.3355836868286133,-4.80565071105957,1.5241626501083374,234.6974334716797, -173.212646484375
400,286229470,0.42409563,0.59741247,-0.48465553,0.4778606,12.082210540771484,-0.6349272131919861,-5.044803142547607,21.034751892089844,235.87522888183594, -187.25506591796875
401,286246137,0.45343867,0.59591913,-0.4511549,0.48552397,13.092023849487305,0.19068680703639984,-5.254072189331055,10.850211143493652,231.58639526367188, -204.89039611816406
402,286262804,0.485142,0.59276813,-0.41775402,0.48861578,14.336450576782227,-0.004771081730723381,-5.334014415740967,-18.529523849487305,225.43789672851562, -221.4866943359375
403,286279471,0.51941633,0.58586824,-0.38662115,0.48732898,15.96021556854248,-3.0216119289398193,-4.06730842590332,-61.74412536621094,220.044921875, -224.73873901367188
404,286296138,0.5476066,0.580073,-0.354244,0.48801032,16.565441131591797,-4.049432277679443,-6.682694435119629,-23.903411865234375,212.55979919433594, -205.30419921875
405,286312805,0.5716945,0.5737217,-0.3239684,0.48893142,16.92765998840332,-2.731809139251709,-6.998810768127441,-16.13113021850586,197.51602172851562, -180.94732666015625
406,286329472,0.59275985,0.56445587,-0.30171078,0.48887262,13.69640064239502,-4.065164089202881,-8.682013511657715,-44.83955383300781,165.23410034179688, -136.5602569580078
407,286346139,0.61003435,0.5532235,-0.2905469,0.48722166,9.793519020080566,-6.967238426208496,-11.085390090942383,-78.76837921142578,112.63894653320312, -83.22904205322266
408,286362806,0.61875486,0.5470048,-0.28877425,0.48429152,8.169554710388184,-9.9277982711792,-13.808748245239258,-59.254398345947266,34.56881332397461, -34.30799865722656
409,286379473,0.6170458,0.54884493,-0.29475668,0.48077303,7.540058135986328,-8.92950439453125,-12.814655303955078,-12.778393745422363,-48.0831298828125, 10.990477561950684
410,286396140,0.6091337,0.55338776,-0.30758736,0.47760737,9.302638053894043,-7.634198188781738,-9.273411750793457,0.12897194921970367,-97.22903442382812, 53.27652359008789
411,286412807,0.59549206,0.56019545,-0.3212445,0.47788364,10.180252075195312,-4.5526556968688965,-2.9992446899414062,35.94932556152344,-107.08775329589844, 84.78927612304688
412,286429474,0.58193225,0.56747305,-0.32752946,0.48171997,14.645544052124023,15.147518157958984,16.20359992980957,69.6317138671875,-64.5319595336914, 69.60454559326172
413,286446141,0.5802506,0.5638621,-0.3464856,0.47467574,12.250055313110352,1.6098650693893433,0.313287615776062,-86.70729064941406,-94.96864318847656, 60.77545928955078
414,286462808,0.5688282,0.5664988,-0.36630905,0.47045895,13.903099060058594,-3.861612319946289,-8.426636695861816,-20.115249633789062,-131.05715942382812, 92.32303619384766
415,286479475,0.55574113,0.57321596,-0.3812306,0.46608913,10.50206470489502,-0.5633059740066528,1.1806880235671997,17.765104293823242,-129.80636596679688, 67.68501281738281
416,286496142,0.54152364,0.5808287,-0.3918786,0.4645661,9.627131462097168,-1.9305914640426636,-5.2477216720581055,46.795833587646484,-108.09916687011719, 62.9764289855957
417,286512809,0.5267631,0.58942586,-0.40017852,0.46363294,11.564888000488281,0.776304304599762,-6.177755355834961,61.697425842285156,-101.57794189453125, 54.848777770996094
418,286529476,0.5160523,0.5943474,-0.40927958,0.46144545,11.260257720947266,1.5235347747802734,-3.7602038383483887,25.948598861694336,-86.66519165039062, 50.74463653564453
419,286546143,0.50718355,0.597736,-0.4177006,0.459351,12.32584285736084,-0.7106760144233704,-2.94478440284729,15.392027854919434,-73.80580139160156, 46.76552200317383
420,286562810,0.49943942,0.6005641,-0.42543536,0.4570431,10.233292579650879,1.1567251682281494,-1.7515811920166016,10.358332633972168,-67.2798080444336, 41.24159240722656
421,286579477,0.49489212,0.60118055,-0.43456033,0.4525723,10.473942756652832,1.5843290090560913,-1.5688540935516357,-21.13330078125,-64.6827392578125, 35.98214340209961
422,286596144,0.48968264,0.6026276,-0.4419121,0.44918284,10.424956321716309,0.06861846894025803,-3.109172821044922,-6.822230339050293,-58.74226379394531, 31.919919967651367
423,286612811,0.4839155,0.604707,-0.44717857,0.44742298,10.336992263793945,1.2016490697860718,-2.926666736602783,9.00182056427002,-48.6076545715332, 28.56243324279785
424,286629478,0.4790535,0.6062386,-0.45187375,0.44586226,10.345199584960938,1.554985523223877,-2.576409101486206,5.783339023590088,-41.40586853027344, 25.752334594726562
425,286646145,0.47493613,0.6072513,-0.4562993,0.44437945,10.302671432495117,1.3395670652389526,-2.9274728298187256,2.0396106243133545,-36.28679275512695, 24.220535278320312
426,286662812,0.47104973,0.6079174,-0.4612514,0.44248885,9.916095733642578,1.2479974031448364,-2.7275590896606445,-2.9456870555877686,-37.92041778564453, 25.47467613220215
427,286679479,0.46779296,0.6080014,-0.4666347,0.4401779,9.756291389465332,1.296679973602295,-2.420644998550415,-10.107449531555176,-37.30290222167969, 25.85236930847168
428,286696146,0.46534142,0.60785073,-0.4708219,0.4385228,9.811568260192871,1.0830000638961792,-2.4928438663482666,-8.502737045288086,-27.42019271850586, 21.28460121154785
429,286712813,0.46342438,0.6076037,-0.47416732,0.4372888,9.688665390014648,1.4688042402267456,-2.3494248390197754,-7.143542766571045,-20.946304321289062, 17.81897735595703
430,286729480,0.46190038,0.60731024,-0.47693825,0.43629453,9.528847694396973,1.5691280364990234,-2.360064744949341,-6.420642852783203,-16.69485092163086, 15.160283088684082
431,286746147,0.46044666,0.607082,-0.47946832,0.4353745,9.234780311584473,1.7068146467208862,-2.491112470626831,-5.536667346954346,-15.587158203125, 13.97321605682373
432,286762814,0.4589407,0.60700446,-0.48146802,0.43486574,9.282881736755371,1.2051059007644653,-2.499089479446411,-1.8940609693527222,-12.815250396728516, 12.730863571166992
433,286779481,0.45675674,0.60721266,-0.48324603,0.434902,9.491644859313965,1.2895357608795166,-2.281224250793457,4.306032657623291,-12.940579414367676, 14.611035346984863
434,286796148,0.4544282,0.60741043,-0.48522094,0.43486646,9.370885848999023,1.520257830619812,-2.245485305786133,4.052812576293945,-14.311464309692383, 15.679179191589355
435,286812815,0.45176506,0.60760134,-0.48758563,0.4347296,9.454485893249512,1.50526762008667,-2.183926582336426,3.929387331008911,-17.05243492126465, 18.021883010864258
436,286829482,0.44869736,0.6077949,-0.4903386,0.4345396,9.382976531982422,1.6180516481399536,-2.2038347721099854,4.294512748718262,-19.852563858032227, 20.688467025756836
437,286846149,0.44549155,0.60793513,-0.4934495,0.4341203,9.279905319213867,1.3204106092453003,-2.769514560699463,2.8745040893554688,-22.230260848999023, 22.08090591430664
438,286862816,0.4417852,0.60820293,-0.49640724,0.4341606,9.438044548034668,1.0857807397842407,-2.776731252670288,7.378106117248535,-21.92555046081543, 23.92022132873535
439,286879483,0.4378613,0.60819834,-0.49972478,0.43433604,9.710844039916992,1.4067374467849731,-2.633768320083618,6.8568010330200195,-22.389841079711914, 27.42212677001953
440,286896150,0.43374136,0.60783285,-0.50366074,0.43443552,9.694025039672852,1.3714030981063843,-2.5156402587890625,4.4915771484375,-24.175783157348633, 31.61804962158203
441,286912817,0.42940345,0.6071619,-0.5082204,0.4343731,9.573408126831055,1.1304928064346313,-2.5863840579986572,2.081437110900879,-26.566038131713867, 35.463661193847656
442,286929484,0.42414007,0.60671026,-0.51285124,0.43473244,9.679756164550781,0.927037239074707,-2.6413207054138184,7.859803676605225,-28.918006896972656, 39.01671600341797
443,286946151,0.4177594,0.60648954,-0.5175962,0.4355944,9.73534870147705,1.2262946367263794,-2.49465274810791,14.637557029724121,-31.79692840576172, 43.49360275268555
444,286962818,0.41079667,0.6061519,-0.5231653,0.4360332,9.74718189239502,1.0177454948425293,-2.2615232467651367,12.765023231506348,-37.66517639160156, 47.887332916259766
445,286979485,0.40317857,0.60569566,-0.5294779,0.43615785,10.100067138671875,0.8474159836769104,-2.6175270080566406,11.785707473754883,-43.096038818359375, 52.511226654052734
446,286996152,0.3946304,0.6051996,-0.53629243,0.43633896,10.248431205749512,0.6887531280517578,-2.989955186843872,14.371495246887207,-47.53483581542969, 57.67337417602539
447,287012819,0.3845106,0.6049846,-0.54333526,0.4369587,10.460711479187012,0.8860992193222046,-2.8389670848846436,22.641529083251953,-52.98403549194336, 63.49516677856445
448,287029486,0.37259135,0.60500664,-0.55077064,0.43794453,11.194756507873535,1.4139299392700195,-2.784426689147949,30.84207534790039,-59.948612213134766, 70.6633529663086
449,287046153,0.35954282,0.60424066,-0.55960095,0.43871412,12.904680252075195,1.8633981943130493,-3.0573270320892334,28.526290893554688,-66.34769439697266, 82.31314086914062
450,287062820,0.34516686,0.60338366,-0.5692371,0.43904272,13.410967826843262,0.4981035888195038,-2.793372869491577,29.703205108642578,-75.03118896484375, 88.95075988769531
451,287079487,0.3284859,0.6032969,-0.57846487,0.43989724,15.137432098388672,0.0820903554558754,-2.3763771057128906,44.398738861083984,-83.25839233398438, 92.46403503417969
452,287096154,0.3099102,0.6023179,-0.58918756,0.44048595,17.01599884033203,2.1233608722686768,-0.4103068709373474,44.677799224853516,-92.61835479736328, 107.36102294921875
453,287112821,0.29045403,0.5999981,-0.602182,0.43933666,17.856142044067383,2.9510679244995117,-0.595587968826294,31.568775177001953,-104.23157501220703, 121.20332336425781
454,287129488,0.2696497,0.59704834,-0.6160967,0.43731967,18.98134422302246,4.166452884674072,0.10837793350219727,29.529876708984375,-113.40192413330078, 129.99295043945312
455,287146155,0.24795245,0.59354734,-0.62942255,0.43594667,17.34856605529785,7.195521831512451,-1.2228896617889404,36.70635223388672,-111.8770980834961, 133.84742736816406
456,287162822,0.2269099,0.58923143,-0.64547175,0.4297507,15.22054386138916,5.319556713104248,-5.24815559387207,3.660017490386963,-131.00326538085938, 138.3773193359375
457,287179489,0.20705128,0.5855054,-0.659047,0.42423058,13.073691368103027,2.5166256427764893,-4.309450149536133,10.141496658325195,-120.92704010009766, 123.34243774414062
458,287196156,0.18954004,0.58367383,-0.66713953,0.42228597,8.53817367553711,0.9763354063034058,-3.0403077602386475,35.61130905151367,-93.64436340332031, 90.95479583740234
459,287212823,0.17243694,0.58473605,-0.66830826,0.42628005,7.696743011474609,0.2569744884967804,-3.5789194107055664,85.10171508789062,-67.33232116699219, 56.464447021484375
460,287229490,0.15939474,0.58779407,-0.66404104,0.43375364,7.353209972381592,6.284300327301025,1.5948725938796997,103.0730209350586,-34.09006881713867, 17.676136016845703
461,287246157,0.1574419,0.5904333,-0.6609178,0.4356482,6.055656433105469,5.709482669830322,1.7342710494995117,28.94359588623047,-6.050460338592529, -14.926883697509766
462,287262824,0.162587,0.5932966,-0.65713304,0.43559384,5.0074968338012695,3.315464973449707,0.16546952724456787,-6.473312854766846,18.302812576293945, -41.96485137939453
463,287279491,0.17391603,0.59639156,-0.65124875,0.43582878,5.180415630340576,3.806084156036377,0.13161563873291016,-23.83063316345215,49.06259536743164, -69.7550277709961
464,287296158,0.19149047,0.59896934,-0.6436661,0.43619072,5.454564094543457,2.142634153366089,0.04855436086654663,-44.38477325439453,81.11700439453125, -92.94600677490234
465,287312825,0.21239965,0.6014468,-0.63297546,0.43873867,6.028690814971924,0.42998406291007996,-0.6274683475494385,-39.24930953979492,109.26241302490234, -112.4149169921875
466,287329492,0.2355261,0.6039859,-0.61900324,0.44335622,6.729465484619141,-0.32825717329978943,-0.9856065511703491,-29.427480697631836,132.07801818847656, -129.91647338867188
467,287346159,0.26033595,0.606321,-0.60222095,0.4493678,7.613943099975586,-0.902438759803772,-1.412972092628479,-22.257518768310547,150.208251953125, -143.59178161621094
468,287362826,0.28656432,0.60812694,-0.58283985,0.4564663,8.508153915405273,-1.0761241912841797,-2.053102731704712,-16.598318099975586,166.90919494628906, -154.67466735839844
469,287379493,0.31374723,0.6094272,-0.56070733,0.46451017,9.400532722473145,-1.153111219406128,-2.746229410171509,-9.172222137451172,181.7091827392578, -165.28904724121094
470,287396160,0.3411008,0.6105004,-0.5358,0.47313738,10.117383003234863,-0.8234391808509827,-3.1577649116516113,0.7227380275726318,191.5433349609375, -175.33181762695312
471,287412827,0.36909053,0.6112101,-0.5089772,0.48076782,11.091140747070312,-0.33285295963287354,-3.1107215881347656,-0.2563721835613251,195.40274047851562, -186.44418334960938
472,287429494,0.39821178,0.6111278,-0.48104128,0.48636478,11.868714332580566,-0.43978241086006165,-3.161491632461548,-10.472579002380371,196.28404235839844, -197.25599670410156
473,287446161,0.42840362,0.61013424,-0.45189282,0.48989868,12.987235069274902,-0.9044210910797119,-3.5711841583251953,-20.251991271972656,197.55062866210938, -208.57933044433594
474,287462828,0.45840824,0.60894287,-0.42091832,0.49181244,13.971519470214844,-1.2960584163665771,-4.164141654968262,-18.950576782226562,196.24905395507812, -219.78994750976562
475,287479495,0.48908165,0.60648257,-0.38958743,0.49112198,15.10497760772705,-1.1271718740463257,-3.415177345275879,-32.11325454711914,192.73275756835938, -228.11468505859375
476,287496162,0.5188184,0.6020109,-0.35855317,0.48974612,15.787934303283691,-3.9484078884124756,-4.968038082122803,-37.831565856933594,193.19091796875, -220.66651916503906
477,287512829,0.5433917,0.5975777,-0.32737696,0.49035877,16.172582626342773,-2.956815004348755,-4.9893999099731445,-10.97688102722168,189.1072998046875, -196.92974853515625
478,287529496,0.5640783,0.591851,-0.29930422,0.49188006,15.728283882141113,-5.330929756164551,-6.704299449920654,-8.29466724395752,176.89569091796875, -164.82650756835938
479,287546163,0.5791893,0.58606607,-0.27694,0.49433962,11.573768615722656,-5.625292778015137,-8.23983383178711,-3.252532958984375,147.34474182128906, -119.06722259521484
480,287562830,0.5903174,0.5799625,-0.26539207,0.49470899,9.3914213180542,-6.39111852645874,-10.454928398132324,-29.260953903198242,89.40825653076172, -69.7477798461914
481,287579497,0.5933776,0.5783393,-0.26520672,0.49304467,8.170201301574707,-7.717455863952637,-12.615352630615234,-21.313312530517578,5.305215358734131, -13.518516540527344
482,287596164,0.5895814,0.5809092,-0.27434972,0.48956278,8.44156265258789,-6.270927429199219,-10.385014533996582,-11.937827110290527,-66.59386444091797, 31.659894943237305
483,287612831,0.58146733,0.58499414,-0.2892107,0.48583528,9.830150604248047,-6.361213207244873,-7.6773295402526855,-8.311556816101074,-103.91612243652344, 65.1005859375
484,287629498,0.5690363,0.5901804,-0.30339915,0.4856286,12.397883415222168,1.244374394416809,3.357539653778076,22.664731979370117,-99.26545715332031, 88.62212371826172
485,287646165,0.56269926,0.5910902,-0.3166186,0.48346242,12.72861099243164,12.509723663330078,10.491279602050781,-19.6416072845459,-76.45195770263672, 65.57633972167969
486,287662832,0.56216854,0.58581203,-0.33929008,0.4750519,12.552377700805664,-3.991461992263794,-3.1717092990875244,-112.15179443359375,-105.26463317871094, 74.09589385986328
487,287679499,0.55068105,0.5897089,-0.35584143,0.4715631,12.454641342163086,-3.5274441242218018,-4.504568099975586,-1.1057549715042114,-117.27571868896484, 82.79269409179688
488,287696166,0.5386202,0.5957766,-0.3673841,0.4690081,10.515968322753906,-1.7264595031738281,-0.9288055896759033,27.927854537963867,-102.92686462402344, 62.5089225769043
489,287712833,0.5239697,0.6043013,-0.37405357,0.46942604,10.262511253356934,-1.1834992170333862,-5.267438888549805,70.85082244873047,-87.16514587402344, 55.667572021484375
490,287729500,0.511546,0.6112949,-0.38101342,0.46847534,11.6279878616333,2.608457565307617,-3.8614282608032227,51.593990325927734,-83.19786071777344, 48.66254425048828
491,287746167,0.5038721,0.6141877,-0.38965327,0.4658946,11.422883987426758,1.0982849597930908,-3.225835084915161,7.518545150756836,-70.28175354003906, 45.44024658203125
492,287762834,0.49734384,0.6164994,-0.39736634,0.46333444,10.735542297363281,0.6905052065849304,-2.7318949699401855,3.6789820194244385,-62.036888122558594, 39.481388092041016
493,287779501,0.49205664,0.6182931,-0.40453124,0.46037972,10.426280975341797,1.093677043914795,-1.5377190113067627,-2.694958209991455,-56.783447265625, 33.26631164550781
494,287796168,0.487092,0.62012196,-0.41090477,0.45754638,10.458403587341309,0.6916610598564148,-2.2557804584503174,-1.107327938079834,-52.805320739746094, 29.196603775024414
495,287812835,0.48097697,0.62281644,-0.41550437,0.45619965,10.319225311279297,1.6937024593353271,-2.5921854972839355,16.47042465209961,-46.49634552001953, 27.7822208404541
496,287829502,0.4760169,0.6245077,-0.4202951,0.454699,10.203961372375488,2.5594708919525146,-2.416226387023926,7.1670403480529785,-41.33812713623047, 27.339868545532227
497,287846169,0.47180313,0.6254556,-0.4251414,0.45328033,10.233854293823242,1.7533437013626099,-2.8951661586761475,1.5946009159088135,-36.68466567993164, 27.677244186401367
498,287862836,0.467647,0.6262246,-0.42983013,0.4521021,10.214272499084473,1.4754608869552612,-2.7060706615448,1.9593019485473633,-34.40613555908203, 28.1312198638916
499,287879503,0.4632976,0.6272518,-0.4343511,0.45083335,10.136795997619629,0.9816911816596985,-2.500497817993164,3.876502513885498,-35.626258850097656, 26.960865020751953
500,287896170,0.45883808,0.62854546,-0.43848208,0.44959196,9.999068260192871,1.2864433526992798,-2.13468337059021,6.488399982452393,-35.421051025390625, 24.912456512451172
501,287912837,0.45496452,0.6295666,-0.4423761,0.44828296,9.896159172058105,1.4612544775009155,-2.310777187347412,3.6256706714630127,-32.35987854003906, 22.690731048583984
502,287929504,0.45154077,0.63030326,-0.44573563,0.44738072,9.765007972717285,1.5641169548034668,-2.3829665184020996,3.675265073776245,-26.684114456176758, 21.133811950683594
503,287946171,0.44811392,0.63110864,-0.448264,0.44716486,9.544523239135742,1.5664746761322021,-2.5467464923858643,8.565980911254883,-21.35252571105957, 19.46980094909668
504,287962838,0.44428253,0.63228077,-0.44992238,0.44766647,9.382242202758789,1.4648182392120361,-2.5965070724487305,16.340497970581055,-17.935285568237305, 18.025062561035156
505,287979505,0.44020262,0.6335576,-0.4512997,0.4485044,9.269186973571777,1.6435247659683228,-2.5043797492980957,19.64847183227539,-16.707271575927734, 18.276458740234375
506,287996172,0.4363495,0.6345837,-0.4528481,0.44925773,9.200766563415527,1.712648630142212,-2.491054058074951,17.116619110107422,-16.119800567626953, 18.85160255432129
507,288012839,0.43261415,0.63538545,-0.45477748,0.4497876,9.17912769317627,1.6245871782302856,-2.581843137741089,14.062894821166992,-17.180255889892578, 20.187103271484375
508,288029506,0.4288277,0.6360945,-0.456946,0.4502133,9.060002326965332,1.5617997646331787,-2.7596704959869385,12.951175689697266,-18.222307205200195, 21.377897262573242
509,288046173,0.42487615,0.6367176,-0.45925632,0.450728,9.059259414672852,1.5706884860992432,-2.8227365016937256,13.2660493850708,-18.506038665771484, 23.05312156677246
510,288062840,0.4208073,0.63706243,-0.46201783,0.45123526,9.176872253417969,1.6766198873519897,-2.888310670852661,11.553060531616211,-19.36787986755371, 26.26067543029785
511,288079507,0.41665134,0.6370577,-0.46537563,0.45164782,9.191887855529785,1.7001762390136719,-2.6952052116394043,8.779159545898438,-20.704076766967773, 29.994403839111328
512,288096174,0.41231224,0.6369301,-0.46931267,0.45173594,9.252026557922363,1.4158796072006226,-2.7397310733795166,6.406318187713623,-23.99591064453125, 32.57986068725586
513,288112841,0.40738025,0.6370135,-0.47319868,0.45203918,9.557243347167969,0.9501714110374451,-2.725003719329834,10.463850021362305,-25.4843692779541, 34.14115905761719
514,288129508,0.40195337,0.6371093,-0.4774819,0.45225802,9.810050964355469,1.2350945472717285,-2.4628376960754395,11.165543556213379,-28.62553596496582, 37.15339660644531
515,288146175,0.3962512,0.6371903,-0.48234633,0.45201406,9.926793098449707,1.0681525468826294,-2.3735404014587402,9.01543140411377,-33.13121795654297, 39.339332580566406
516,288162842,0.38995627,0.63753504,-0.48762015,0.4513436,9.876363754272461,0.9109966158866882,-2.513793706893921,9.655719757080078,-38.91689682006836, 40.951839447021484
517,288179509,0.38301694,0.6380217,-0.49340466,0.45031047,9.961852073669434,0.6656690835952759,-2.527100086212158,10.06937026977539,-44.49338912963867, 43.756195068359375
518,288196176,0.37535852,0.6383103,-0.5001154,0.44894525,9.950505256652832,1.1827036142349243,-2.5158355236053467,8.716419219970703,-50.232177734375, 49.856040954589844
519,288212843,0.36698812,0.6381905,-0.50813127,0.44703066,10.251715660095215,1.5353174209594727,-2.8580405712127686,4.884193420410156,-57.21675109863281, 57.786624908447266
520,288229510,0.35722476,0.63805896,-0.51667213,0.44533402,10.671180725097656,1.2483972311019897,-3.2846267223358154,10.130431175231934,-62.43267822265625, 64.98483276367188
521,288246177,0.3456914,0.63811314,-0.5252259,0.44435132,11.623574256896973,1.080533504486084,-3.5130534172058105,20.862483978271484,-66.2048568725586, 71.57666015625
522,288262844,0.33282712,0.63779396,-0.53453237,0.44353268,12.828181266784668,1.0985227823257446,-3.461289167404175,24.124202728271484,-70.95948791503906, 80.70301055908203
523,288279511,0.31873706,0.63751423,-0.5443449,0.4423482,13.582489013671875,-0.11319419741630554,-3.0802042484283447,26.719972610473633,-78.37397766113281, 85.69993591308594
524,288296178,0.30247825,0.63701516,-0.55475444,0.44155103,15.919269561767578,0.6663172245025635,-1.6754364967346191,35.39080810546875,-85.47032165527344, 96.59647369384766
525,288312845,0.2850684,0.6356308,-0.5663446,0.44041428,17.511341094970703,2.525832176208496,0.16205531358718872,33.72930908203125,-91.17744445800781, 107.95864868164062
526,288329512,0.2676459,0.63320947,-0.5787037,0.438765,18.416412353515625,2.2899258136749268,0.9613919258117676,27.459197998046875,-91.92352294921875, 114.43590545654297
527,288346179,0.24881436,0.6309202,-0.5916307,0.4358962,18.62561798095703,3.4736270904541016,1.084424376487732,27.297517776489258,-104.38502502441406, 118.43811798095703
528,288362846,0.22797132,0.6283534,-0.60616535,0.43100566,17.407690048217773,5.260746479034424,-2.1213202476501465,22.5394287109375,-123.36648559570312, 129.1729278564453
529,288379513,0.20781468,0.62435484,-0.6231962,0.4226367,15.413352012634277,4.536959648132324,-5.574343204498291,-4.515718460083008,-135.2840576171875, 138.5096893310547
530,288396180,0.19104107,0.6199759,-0.63900155,0.41329345,11.652679443359375,4.3953857421875,-4.039687633514404,-20.145919799804688,-122.15391540527344, 123.708251953125
531,288412847,0.17761943,0.6166695,-0.6497357,0.40744925,7.309959411621094,0.8975802659988403,-4.457485198974609,-3.1949853897094727,-88.93111419677734, 92.48722076416016
532,288429514,0.1629043,0.615386,-0.65361804,0.40932518,6.69763708114624,-0.9563834071159363,-4.9810357093811035,58.459774017333984,-59.27831268310547, 67.46338653564453
533,288446181,0.15053593,0.6158965,-0.65055203,0.41808325,6.7730841636657715,5.115057945251465,1.0022023916244507,101.02887725830078,-16.87067985534668, 31.11363983154297
534,288462848,0.1479591,0.6159426,-0.64730525,0.423934,4.969673156738281,5.51039981842041,1.0209627151489258,46.6308479309082,16.096431732177734, 1.3201987743377686
535,288479515,0.1523272,0.61574453,-0.64413273,0.4274918,4.120994567871094,4.657546520233154,0.15124037861824036,6.584370136260986,37.900901794433594, -19.811155319213867
536,288496182,0.164442,0.6150465,-0.6407439,0.429098,4.590382099151611,4.790936470031738,0.5172324180603027,-34.716026306152344,65.62602996826172, -43.29495620727539
537,288512849,0.18349706,0.6137743,-0.6366517,0.429285,4.733505725860596,3.8593668937683105,-0.22152751684188843,-68.86685180664062,92.66702270507812, -65.79224395751953
538,288529516,0.20765227,0.6120649,-0.6303868,0.4299659,5.538349628448486,2.6341733932495117,-1.1156549453735352,-82.35134887695312,121.09687805175781, -87.455322265625
539,288546183,0.23508851,0.60986483,-0.6212053,0.43232343,6.0391035079956055,1.6993787288665771,-1.746568202972412,-80.961181640625,147.98260498046875, -104.89546966552734
540,288562850,0.26517433,0.6070071,-0.6093443,0.43580467,6.804016590118408,1.5714287757873535,-1.9062036275863647,-80.36873626708984,170.30093383789062, -119.3702621459961
541,288579517,0.29767552,0.60336626,-0.59471625,0.4400594,7.876194477081299,0.7158342599868774,-2.571840286254883,-80.34734344482422,191.04742431640625, -133.45498657226562
542,288596184,0.33060375,0.5995187,-0.57609105,0.44654098,8.901724815368652,0.010013431310653687,-3.098844051361084,-61.34489440917969,210.8518524169922, -145.9208984375
543,288612851,0.363003,0.5959707,-0.5529158,0.45533845,10.10345458984375,0.2509070038795471,-3.591423511505127,-35.3513069152832,227.75010681152344, -158.97149658203125
544,288629518,0.39509457,0.5926919,-0.5257001,0.46503457,11.546664237976074,0.09273865818977356,-3.9408934116363525,-17.364070892333984,239.53834533691406, -173.34359741210938
545,288646185,0.42598942,0.5903698,-0.49419025,0.47515637,12.943806648254395,-0.25845643877983093,-4.178349494934082,5.366827964782715,245.59420776367188, -189.31776428222656
546,288662852,0.45591608,0.58936304,-0.45856383,0.48426443,14.38021469116211,0.5687708854675293,-4.892096519470215,23.131994247436523,245.99957275390625, -210.31520080566406
547,288679519,0.48670703,0.58834976,-0.42135683,0.4893061,16.040454864501953,0.684948742389679,-5.495774745941162,12.017912864685059,237.27883911132812, -232.33694458007812
548,288696186,0.51897,0.5847697,-0.3859699,0.48963547,17.15013313293457,-3.684821605682373,-6.033304691314697,-22.348066329956055,225.08224487304688, -238.27764892578125
549,288712853,0.5462114,0.58171487,-0.35128945,0.489753,17.24819564819336,-3.737170457839966,-7.016748905181885,0.26678481698036194,207.57672119140625, -220.3737030029297
550,288729520,0.56870407,0.5780402,-0.32158065,0.48890927,16.55579376220703,-4.249105930328369,-8.645174980163574,-5.910497665405273,174.7624969482422, -187.07675170898438
551,288746187,0.58549154,0.57263994,-0.30165714,0.48814672,12.21692180633545,-8.482756614685059,-10.972200393676758,-25.988433837890625,128.85433959960938, -125.65213775634766
552,288762854,0.5971502,0.56585985,-0.294047,0.48657143,9.610697746276855,-9.197742462158203,-13.048762321472168,-51.02432632446289,71.46282958984375, -59.77339553833008
553,288779521,0.59936136,0.5633352,-0.29813677,0.48428845,8.00100040435791,-10.520295143127441,-14.49854850769043,-37.436729431152344,-12.542428016662598, 5.709377288818359
554,288796188,0.5930162,0.5647691,-0.31313965,0.4809496,8.983503341674805,-10.723737716674805,-13.408841133117676,-26.551225662231445,-92.18941497802734, 63.87123107910156
555,288812855,0.5766058,0.57137823,-0.3270832,0.48380837,16.287487030029297,1.8925950527191162,6.481818675994873,50.41456985473633,-102.47008514404297, 107.03510284423828
556,288829522,0.5700044,0.57009286,-0.34696397,0.479277,11.393759727478027,5.597583293914795,8.231599807739258,-55.769493103027344,-106.76187896728516, 86.16058349609375
557,288846189,0.56173736,0.5709082,-0.3672035,0.4729464,10.404757499694824,-4.651567459106445,-4.789098262786865,-46.450035095214844,-126.18316650390625, 81.03396606445312
558,288862856,0.54841727,0.5784401,-0.37964943,0.4695884,9.855522155761719,-0.9352756142616272,-2.187162399291992,32.14588165283203,-118.9604263305664, 61.32777786254883
559,288879523,0.5338635,0.5866469,-0.3888113,0.46868142,11.38550853729248,-2.3826098442077637,-5.282528877258301,56.58067321777344,-102.21282958984375, 59.70162582397461
560,288896190,0.5186235,0.595265,-0.39621735,0.46872443,11.070366859436035,3.110860586166382,-6.215293884277344,69.02774810791016,-95.05626678466797, 57.16925048828125
561,288912857,0.51128,0.59760654,-0.4074515,0.46415943,11.667156219482422,1.3416235446929932,-2.712998151779175,-10.585158348083496,-85.77509307861328, 48.06806945800781
562,288929524,0.5028623,0.60071063,-0.4158046,0.46193552,12.247211456298828,-1.8808523416519165,-3.171119213104248,12.255871772766113,-71.4552993774414, 45.751888275146484
563,288946191,0.4954025,0.60405296,-0.42227757,0.45976043,10.583821296691895,0.6881991028785706,-2.102614641189575,15.214990615844727,-62.758304595947266, 34.39689636230469
564,288962858,0.48945397,0.6065632,-0.4289604,0.45662957,10.136726379394531,1.2538318634033203,-1.9224865436553955,2.6614904403686523,-60.42189025878906, 29.649063110351562
565,288979525,0.4835188,0.6092803,-0.4347848,0.45381835,10.198264122009277,0.5281963348388672,-2.831664800643921,6.93578577041626,-56.81064987182617, 26.49819564819336
566,288996192,0.47735697,0.6120567,-0.43970275,0.45186287,10.058939933776855,2.1002273559570312,-2.7083632946014404,13.461899757385254,-51.06914138793945, 26.07402992248535
567,289012859,0.473074,0.61324257,-0.44551897,0.4490535,9.971253395080566,2.391404867172241,-2.6768476963043213,-5.035059928894043,-46.98494338989258, 26.037824630737305
568,289029526,0.46954957,0.6134843,-0.4521158,0.44581756,10.143058776855469,2.129889488220215,-2.899381160736084,-15.017327308654785,-46.07863998413086, 28.512367248535156
569,289046193,0.46648264,0.61309224,-0.459386,0.44212896,9.941115379333496,1.4270352125167847,-3.073241710662842,-22.461755752563477,-46.7904167175293, 30.47821617126465
570,289062860,0.46344656,0.6128096,-0.4650905,0.43974334,9.805861473083496,0.8204677104949951,-2.6564834117889404,-13.364058494567871,-36.50446319580078, 27.629467010498047
571,289079527,0.46053073,0.6126616,-0.46949157,0.43833393,9.891491889953613,1.5185447931289673,-2.2306017875671387,-6.378516674041748,-28.259069442749023, 24.457706451416016
572,289096194,0.45795995,0.6125026,-0.47331157,0.43714014,10.083725929260254,1.3279222249984741,-2.0673441886901855,-5.414097309112549,-24.368268966674805, 21.698562622070312
573,289112861,0.45544183,0.6124046,-0.47683814,0.43607444,9.892361640930176,1.2773951292037964,-2.3315188884735107,-4.140639781951904,-22.925325393676758, 20.517627716064453
574,289129528,0.4526328,0.61272645,-0.4795782,0.43554184,9.464921951293945,1.1286944150924683,-2.905503273010254,2.5092380046844482,-20.43491554260254, 18.37792205810547
575,289146195,0.4493826,0.6134526,-0.48149064,0.43577495,9.239378929138184,1.2884467840194702,-3.012709856033325,10.632979393005371,-17.299602508544922, 17.266311645507812
576,289162862,0.44602576,0.6141861,-0.4832281,0.43626714,9.251286506652832,1.4479068517684937,-2.734792947769165,12.490250587463379,-16.039749145507812, 17.62960433959961
577,289179529,0.4427164,0.61473906,-0.4852645,0.4365987,9.406085968017578,1.2916208505630493,-2.4566078186035156,10.31113052368164,-16.937620162963867, 18.865129470825195
578,289196196,0.43924606,0.6153653,-0.4875202,0.43670872,9.289095878601074,1.1616528034210205,-2.538299560546875,9.822710990905762,-19.304323196411133, 19.362842559814453
579,289212863,0.4348958,0.6168018,-0.4890886,0.43728194,9.218262672424316,1.1832659244537354,-2.63523530960083,10.656218528747559,-21.493494033813477, 19.544418334960938
580,289229530,0.4308276,0.6177098,-0.49149927,0.43732452,9.334327697753906,1.3556406497955322,-2.7840425968170166,12.513920783996582,-22.8934383392334, 20.70854377746582
581,289246197,0.42592958,0.6190092,-0.49374244,0.43775797,9.536137580871582,1.4458410739898682,-2.6762588024139404,11.87700366973877,-25.29843521118164, 23.845361709594727
582,289262864,0.42057753,0.62025255,-0.49637368,0.43819696,9.50670337677002,1.3901582956314087,-2.7798819541931152,11.36894702911377,-27.819639205932617, 27.390424728393555
583,289279531,0.41473797,0.6215382,-0.49916157,0.43877378,9.469408988952637,0.9745425581932068,-3.0354628562927246,15.365681648254395,-29.299835205078125, 29.45934295654297
584,289296198,0.4079284,0.62306684,-0.5020432,0.43970087,9.612382888793945,1.1487854719161987,-2.816681146621704,21.035715103149414,-32.08247375488281, 33.043643951416016
585,289312865,0.40049845,0.62442034,-0.50577897,0.44032955,10.09877872467041,1.210324764251709,-2.5628347396850586,19.364337921142578,-37.317081451416016, 38.48526382446289
586,289329532,0.39276356,0.6252518,-0.51084584,0.44026753,10.245351791381836,1.050462245941162,-2.6967384815216064,19.597949981689453,-43.15876770019531, 43.362422943115234
587,289346199,0.3840443,0.6264832,-0.5159411,0.44026786,10.345874786376953,0.2771552801132202,-2.910140037536621,25.055221557617188,-47.65365219116211, 45.24148941040039
588,289362866,0.37456545,0.6279563,-0.52114505,0.44020632,10.444964408874512,-0.042383622378110886,-2.9477787017822266,28.424226760864258,-51.652122497558594, 46.99430465698242
589,289379533,0.3645739,0.62910193,-0.5272165,0.43972895,10.473369598388672,0.3207794427871704,-3.148550033569336,25.686479568481445,-56.5479850769043, 52.39973831176758
590,289396200,0.35407433,0.62973106,-0.5343951,0.43874162,10.457756996154785,0.9461976289749146,-3.3548994064331055,21.403488159179688,-61.82920837402344, 59.329593658447266
591,289412867,0.3423748,0.63028395,-0.5420473,0.43784523,10.877572059631348,1.2419097423553467,-3.5566108226776123,25.334901809692383,-66.78668212890625, 65.52184295654297
592,289429534,0.32904664,0.63076043,-0.5500796,0.43736026,12.218877792358398,1.4476408958435059,-3.7955517768859863,32.621707916259766,-71.76031494140625, 73.34796905517578
593,289446201,0.31481925,0.63005316,-0.5596805,0.43667096,13.771841049194336,1.6508017778396606,-3.5431063175201416,28.37632179260254,-76.06478881835938, 86.89867401123047
594,289462868,0.29949,0.6292128,-0.5701455,0.4351247,14.796040534973145,-0.1377713829278946,-2.819791793823242,26.997329711914062,-85.5290298461914, 92.64025115966797
595,289479535,0.28162953,0.62845606,-0.5811792,0.43354437,17.156938552856445,1.034415364265442,-1.35163152217865,36.30067825317383,-97.07604217529297, 102.29762268066406
596,289496202,0.26212546,0.6276026,-0.59292114,0.4311055,18.123310089111328,2.618401527404785,0.05982568860054016,37.70008850097656,-108.52462005615234, 109.01930236816406
597,289512869,0.24269179,0.6267827,-0.6024234,0.4305023,18.443571090698242,4.019375324249268,1.2701852321624756,51.61435317993164,-96.48782348632812, 102.37346649169922
598,289529536,0.22206423,0.62575626,-0.6123,0.42919382,17.337078094482422,4.603281497955322,-1.7034177780151367,52.42761993408203,-104.61299133300781, 107.27372741699219
599,289546203,0.19905882,0.623436,-0.6247856,0.42585015,15.697068214416504,4.5080389976501465,-5.923757076263428,44.46724319458008,-123.64327239990234, 127.93744659423828
600,289562870,0.17956324,0.62005514,-0.63816136,0.41957226,12.325674057006836,5.1845383644104,-3.831526756286621,12.817618370056152,-119.30455780029297, 122.08274841308594
601,289579537,0.16478635,0.6171925,-0.647663,0.41527537,8.064943313598633,2.1676130294799805,-2.7277112007141113,13.266963958740234,-86.91507720947266, 92.18386840820312
602,289596204,0.14992899,0.61620533,-0.65096337,0.41720632,7.152649402618408,-0.6219610571861267,-4.279696464538574,61.19934844970703,-59.2017707824707, 64.83136749267578
603,289612871,0.1379385,0.61696905,-0.6475266,0.4254803,7.720712184906006,6.513538360595703,2.6392462253570557,98.58123779296875,-17.575254440307617, 26.781774520874023
604,289629538,0.13672392,0.6173829,-0.6447197,0.42951545,5.8979973793029785,4.8529582023620605,2.022261381149292,31.865400314331055,12.776724815368652, -4.46355676651001
605,289646205,0.14012627,0.61836797,-0.6397463,0.43441042,5.217966079711914,2.6051671504974365,0.2010502815246582,23.0430908203125,37.19348907470703, -28.972070693969727
606,289662872,0.14982761,0.6196276,-0.63273877,0.43961012,5.286416053771973,4.170468807220459,0.6359431147575378,3.955702304840088,67.31563568115234, -57.31657791137695
607,289679539,0.16611975,0.62058735,-0.6243431,0.44437972,5.314523696899414,2.4329171180725098,-0.6542862057685852,-22.08389663696289,96.46939086914062, -82.25082397460938
608,289696206,0.18687414,0.6210903,-0.61385155,0.45001462,5.724980354309082,1.8223052024841309,-1.1354478597640991,-31.515094757080078,123.09844970703125, -101.85466003417969
609,289712873,0.21146369,0.6212151,-0.6014975,0.45560697,6.228373050689697,1.4586248397827148,-1.5075262784957886,-42.79146957397461,142.66575622558594, -120.1121826171875
610,289729540,0.23962978,0.62053597,-0.58780503,0.46043476,7.496965408325195,0.4008983373641968,-2.455679416656494,-58.204166412353516,158.6586456298828, -134.80372619628906
611,289746207,0.2697458,0.6189196,-0.5719443,0.46589437,8.534071922302246,-0.6710820198059082,-3.2206547260284424,-58.65586853027344,175.78335571289062, -145.38973999023438
612,289762874,0.3006461,0.6166023,-0.55339104,0.47241294,9.528389930725098,-0.6754991412162781,-3.589510202407837,-50.516212463378906,190.62965393066406, -154.63827514648438
613,289779541,0.33131436,0.6139261,-0.5320816,0.47980902,10.389800071716309,-1.2414562702178955,-4.222541809082031,-37.99665832519531,200.35231018066406, -162.38841247558594
614,289796208,0.36071992,0.6114173,-0.50760984,0.48824626,11.350566864013672,-1.1486934423446655,-4.548704624176025,-18.060800552368164,206.81187438964844, -169.8176727294922
615,289812875,0.38940346,0.6090514,-0.4804108,0.4966176,11.870357513427734,-0.6974073052406311,-4.878859043121338,-5.76830530166626,210.3415069580078, -179.52981567382812
616,289829542,0.41820353,0.6066668,-0.451281,0.50339717,12.51237964630127,-0.09696678072214127,-4.977791786193848,-4.996821880340576,209.3450927734375, -192.2234344482422
617,289846209,0.44808915,0.60366726,-0.42120513,0.5073365,13.676812171936035,0.05483797565102577,-5.2991204261779785,-16.86113929748535,205.7701416015625, -206.20237731933594
618,289862876,0.48050085,0.5981504,-0.392519,0.50721407,14.691163063049316,-0.6435982584953308,-4.4294257164001465,-51.75586700439453,200.78578186035156, -214.4931640625
619,289879543,0.51170015,0.5906219,-0.36504722,0.506035,15.264656066894531,-3.777787685394287,-5.89674711227417,-60.54195022583008,196.2163543701172, -203.36831665039062
620,289896210,0.5376478,0.5835333,-0.33735648,0.5065733,15.772589683532715,-2.4637105464935303,-6.034980773925781,-32.642852783203125,189.30955505371094, -181.1244354248047
621,289912877,0.559679,0.57578826,-0.31230673,0.5076356,14.83402156829834,-3.582184076309204,-7.04073429107666,-30.928688049316406,173.803466796875, -154.14573669433594
622,289929544,0.57788795,0.5678151,-0.2921172,0.5082334,11.558440208435059,-4.178014278411865,-8.737524032592773,-33.854278564453125,146.06878662109375, -122.94798278808594
623,289946211,0.59164023,0.5610686,-0.2800919,0.50666994,8.605831146240234,-5.303135871887207,-10.538102149963379,-41.8218994140625,93.0195083618164, -86.01168060302734
624,289962878,0.59861255,0.5586144,-0.27821288,0.50220805,8.514503479003906,-7.360774517059326,-11.787109375,-39.19540023803711,12.668437957763672, -43.412353515625
625,289979545,0.59767985,0.5615909,-0.28399286,0.49673417,8.386446952819824,-7.611408233642578,-11.034628868103027,-14.926942825317383,-56.483421325683594, -1.3785051107406616
626,289996212,0.5904428,0.5676301,-0.2950441,0.49206167,9.03902816772461,-8.028820991516113,-9.173900604248047,5.503261566162109,-97.70401000976562, 37.697509765625
627,290012879,0.5776288,0.57541823,-0.30537426,0.49192232,12.236811637878418,-1.843597173690796,1.7227709293365479,45.955631256103516,-94.2176284790039, 68.47846984863281
628,290029546,0.56953645,0.5781446,-0.31617618,0.49133694,15.206564903259277,14.29410457611084,13.182221412658691,4.6426100730896,-70.82930755615234, 63.164947509765625
629,290046213,0.56950796,0.57131094,-0.34111327,0.48260635,12.6539945602417,-4.460491180419922,-3.8504598140716553,-130.252685546875,-108.85960388183594, 81.13284301757812
630,290062880,0.55893,0.5748124,-0.36014456,0.47695526,11.502119064331055,-1.6855310201644897,-4.3379716873168945,-21.542633056640625,-132.61009216308594, 80.67594146728516
631,290079547,0.54930377,0.579305,-0.37502444,0.4712008,10.51200008392334,-2.537090539932251,0.18894512951374054,-8.167469024658203,-117.90023803710938, 58.25042724609375
632,290096214,0.5341653,0.58837277,-0.38266265,0.471229,10.406562805175781,-3.027827024459839,-6.609970569610596,69.43058013916016,-96.56114196777344, 57.253231048583984
633,290112881,0.52060586,0.59651464,-0.38972512,0.47037923,11.549193382263184,3.901261568069458,-4.479953289031982,59.156494140625,-90.78260803222656, 48.953041076660156
634,290129548,0.5133407,0.5989152,-0.3995571,0.46705303,11.586539268493652,0.9471368789672852,-3.1212687492370605,-2.815579414367676,-75.37840270996094, 46.49604797363281
635,290146215,0.5061512,0.6012035,-0.4079646,0.4646857,10.92758560180664,0.9479990601539612,-2.5170130729675293,3.674626111984253,-65.81059265136719, 44.07303237915039
636,290162882,0.50099754,0.6021534,-0.41687965,0.4611149,10.616775512695312,0.7952632308006287,-1.4525668621063232,-14.401758193969727,-62.55099105834961, 39.230712890625
637,290179549,0.49629977,0.6032259,-0.4248523,0.45750234,10.338833808898926,0.5626315474510193,-2.06829833984375,-13.002361297607422,-58.55978012084961, 33.388118743896484
638,290196216,0.49052915,0.60542154,-0.43077725,0.45528004,10.408902168273926,0.628502368927002,-2.9232232570648193,5.776243686676025,-52.468711853027344, 29.729623794555664
639,290212883,0.48517245,0.60750437,-0.43541688,0.45382962,10.347134590148926,1.7279177904129028,-2.553779125213623,9.975592613220215,-43.3317985534668, 26.016870498657227
640,290229550,0.48114878,0.6086668,-0.43989804,0.45223135,10.316411972045898,1.6232463121414185,-2.5074872970581055,1.389133095741272,-36.55381774902344, 23.465553283691406
641,290246217,0.47783613,0.6093964,-0.44438168,0.4503737,10.052763938903809,0.8568919897079468,-2.894699811935425,-3.8094756603240967,-34.146820068359375, 21.725261688232422
642,290262884,0.4743926,0.61021817,-0.4491742,0.44814187,9.944083213806152,1.0433896780014038,-2.3372530937194824,-5.061295509338379,-37.40780258178711, 21.914661407470703
643,290279551,0.4719012,0.61054796,-0.45343927,0.44602266,9.714738845825195,1.6445164680480957,-1.8125375509262085,-8.689251899719238,-30.75742530822754, 18.659767150878906
644,290296218,0.47004983,0.6108246,-0.45695254,0.44400895,9.633511543273926,1.5261657238006592,-2.0617406368255615,-8.90847110748291,-25.72380256652832, 14.062089920043945
645,290312885,0.4680496,0.61138123,-0.4599227,0.4422858,9.60804557800293,1.5969144105911255,-2.1777501106262207,-4.805261611938477,-24.075204849243164, 12.306170463562012
646,290329552,0.46584946,0.61222917,-0.46242023,0.4408291,9.441914558410645,1.5731844902038574,-2.28324294090271,-0.7438584566116333,-22.957185745239258, 10.874451637268066
647,290346219,0.46292087,0.6136119,-0.4644494,0.43985736,9.429275512695312,1.6016699075698853,-2.181101083755493,7.000051498413086,-23.356279373168945, 10.973641395568848
648,290362886,0.45943496,0.6151951,-0.46648535,0.43914622,9.41150951385498,1.9631682634353638,-2.1058802604675293,10.803964614868164,-24.67099952697754, 12.885604858398438
649,290379553,0.45555374,0.61677223,-0.46892413,0.4383788,9.410097122192383,2.1215322017669678,-2.2134926319122314,11.067770004272461,-27.43981170654297, 15.63850212097168
650,290396220,0.4513926,0.61815196,-0.47171077,0.43775013,9.425251960754395,2.1503007411956787,-2.3888370990753174,11.044059753417969,-28.25792694091797, 19.0452880859375
651,290412887,0.44705433,0.61930156,-0.4747463,0.43729535,9.368772506713867,1.8570570945739746,-2.6005866527557373,10.909110069274902,-28.182506561279297, 21.940937042236328
652,290429554,0.44217733,0.6203636,-0.47787812,0.4373377,9.467117309570312,1.8672703504562378,-2.545008659362793,14.274609565734863,-27.86640739440918, 25.80023765563965
653,290446221,0.43722227,0.6209749,-0.48170894,0.43724912,9.54699420928955,2.185178279876709,-2.4805378913879395,10.721271514892578,-29.461816787719727, 30.11637306213379
654,290462888,0.43211257,0.6212723,-0.4859988,0.43715915,9.56728458404541,1.6474329233169556,-2.7771332263946533,9.071258544921875,-30.429035186767578, 33.598114013671875
655,290479555,0.4262986,0.62178385,-0.49038896,0.43723732,9.387873649597168,1.141714334487915,-2.5838510990142822,12.977411270141602,-33.0184326171875, 35.94720458984375
656,290496222,0.4199424,0.6225649,-0.49479425,0.43731374,9.68850326538086,1.057579755783081,-2.7731993198394775,16.042736053466797,-35.723548889160156, 36.73808670043945
657,290512889,0.41320547,0.62347466,-0.4993517,0.43725497,9.919867515563965,0.7656522393226624,-2.7315783500671387,17.17283821105957,-38.43706512451172, 37.70988464355469
658,290529556,0.40619656,0.6243043,-0.5044745,0.43675792,10.247047424316406,0.8219299912452698,-2.7519478797912598,14.874311447143555,-42.635345458984375, 39.9994010925293
659,290546223,0.3984766,0.6255325,-0.50956845,0.43619832,10.099830627441406,0.3891235589981079,-2.759889602661133,18.9459171295166,-46.506439208984375, 40.45820999145508
660,290562890,0.39037392,0.62687206,-0.5150756,0.43513256,10.166667938232422,0.5600224137306213,-3.1049840450286865,17.941076278686523,-51.510684967041016, 41.60003662109375
661,290579557,0.38180637,0.6280381,-0.52084064,0.43418953,9.976410865783691,0.45072707533836365,-3.3785266876220703,19.09905433654785,-52.82185745239258, 45.0714225769043
662,290596224,0.37258014,0.62888026,-0.5272952,0.43319398,10.080492973327637,1.2805211544036865,-3.3591601848602295,18.853113174438477,-56.26719284057617, 51.0490837097168
663,290612891,0.36229286,0.62958944,-0.5342769,0.43233413,10.424236297607422,1.3605760335922241,-3.4060251712799072,22.04003143310547,-60.501312255859375, 57.340641021728516
664,290629558,0.35002488,0.63082576,-0.5407543,0.4325848,11.160594940185547,1.2016723155975342,-3.392059087753296,37.53584289550781,-63.30424880981445, 61.89542770385742
665,290646225,0.33536264,0.6326605,-0.54685855,0.43384543,12.578888893127441,1.2596499919891357,-3.0199811458587646,54.24859619140625,-68.73848724365234, 67.6261215209961
666,290662892,0.3203003,0.63366014,-0.5522816,0.43688783,14.36593246459961,1.2805352210998535,-2.10614013671875,62.81389617919922,-58.47467041015625, 73.12883758544922
667,290679559,0.30509147,0.63358754,-0.55844283,0.44003543,15.935046195983887,0.015532641671597958,-1.7604360580444336,59.298431396484375,-57.04558563232422, 81.11698913574219
668,290696226,0.2885225,0.6320518,-0.56781167,0.44142804,17.265560150146484,1.9765146970748901,-0.034629687666893005,45.7307243347168,-72.29679107666016, 101.1644058227539
669,290712893,0.27105555,0.629125,-0.5817881,0.43847084,17.552900314331055,1.9269778728485107,0.1359214186668396,15.940080642700195,-99.73909759521484, 120.76980590820312
670,290729560,0.25164673,0.62576187,-0.5984301,0.43241298,17.000337600708008,2.1829006671905518,-2.0520431995391846,3.1196441650390625,-124.69479370117188, 134.1826934814453
671,290746227,0.22939879,0.6215277,-0.61718625,0.42445755,18.557727813720703,4.350988864898682,-4.553872108459473,-0.2285522222518921,-145.71011352539062, 152.0886688232422
672,290762894,0.21070518,0.61581933,-0.63601184,0.4145628,15.322552680969238,6.457709789276123,-0.42810192704200745,-26.111507415771484,-134.80917358398438, 145.29034423828125
673,290779561,0.1938189,0.61156,-0.65060693,0.4063778,10.633707046508789,3.7438995838165283,-2.801769495010376,-12.054948806762695,-117.78520965576172, 118.4521713256836
674,290796228,0.17960037,0.6089788,-0.66029197,0.40113157,8.72430419921875,1.146227240562439,-4.198245048522949,5.8790788650512695,-91.69393157958984, 86.80911254882812
675,290812895,0.16722782,0.6087655,-0.6610915,0.40546396,9.356311798095703,6.190531253814697,3.952833414077759,69.09320068359375,-38.78706741333008, 45.62143325805664
676,290829562,0.16155493,0.6090854,-0.6591182,0.41046545,6.330898284912109,4.8572797775268555,2.2854011058807373,52.48305892944336,-3.9437944889068604, 13.765066146850586
677,290846229,0.16177692,0.61063653,-0.6534258,0.41712037,6.197780609130859,5.951510429382324,2.0752267837524414,47.19063949584961,30.290563583374023, -22.126798629760742
678,290862896,0.17038341,0.6124082,-0.6460435,0.42256013,5.520349979400635,4.129635334014893,1.8971996307373047,11.66876220703125,64.05020904541016, -55.5418815612793
679,290879563,0.18410195,0.6140673,-0.6359546,0.42964292,5.569882392883301,3.202329158782959,0.9327223300933838,5.201249122619629,97.13434600830078, -79.31661224365234
680,290896230,0.20345785,0.61544925,-0.62353337,0.43707785,5.56292200088501,2.783710479736328,0.059637799859046936,-10.499263763427734,127.01952362060547, -104.12239837646484
681,290912897,0.22754338,0.6161422,-0.608867,0.44483405,6.530279159545898,1.59444260597229,-0.23721352219581604,-23.340904235839844,153.86105346679688, -124.39743041992188
682,290929564,0.2541753,0.6162563,-0.59109294,0.454132,7.569624900817871,-0.4746958017349243,-1.3928285837173462,-19.069774627685547,177.68235778808594, -140.4909210205078
683,290946231,0.2817694,0.6162369,-0.56943953,0.46540347,8.37847900390625,-0.4640313684940338,-2.4492557048797607,-3.2568039894104004,197.16647338867188, -155.9313507080078
684,290962898,0.31097013,0.6155413,-0.5448726,0.4769947,9.511711120605469,-0.47292569279670715,-3.260460376739502,-0.8126856684684753,212.6509552001953, -170.13916015625
685,290979565,0.3405401,0.61450607,-0.51721483,0.48878148,10.659615516662598,-0.5393795967102051,-3.9518136978149414,7.755585193634033,222.626220703125, -182.73341369628906
686,290996232,0.3699273,0.6136585,-0.48651063,0.4998878,11.833699226379395,-0.18551324307918549,-4.218860149383545,16.767576217651367,225.65676879882812, -197.24424743652344
687,291012899,0.40014902,0.61223763,-0.45420602,0.50867105,13.23491382598877,0.34679996967315674,-4.5656538009643555,9.497367858886719,224.74679565429688, -210.85491943359375
688,291029566,0.43259132,0.6091474,-0.4222939,0.51329863,14.766485214233398,0.4705717861652374,-4.990119457244873,-18.831771850585938,219.00852966308594, -223.19143676757812
689,291046233,0.46822715,0.6029907,-0.39283004,0.5126924,15.8726224899292,0.4281953275203705,-4.976254463195801,-65.21419525146484,209.9660186767578, -230.89208984375
690,291062900,0.50655705,0.5914391,-0.36767492,0.5083486,16.809221267700195,-4.775253772735596,-5.19665002822876,-119.09738159179688,206.95567321777344, -220.02496337890625
691,291079567,0.5355548,0.5819013,-0.34068638,0.50843704,15.726456642150879,-3.817396879196167,-7.863677024841309,-56.56293487548828,200.78562927246094, -184.61448669433594
692,291096234,0.56031567,0.57203853,-0.31672776,0.508434,15.470459938049316,-4.091158390045166,-9.1809663772583,-51.68290710449219,180.57815551757812, -157.36314392089844
693,291112901,0.5807681,0.5607873,-0.30143481,0.507313,11.452877044677734,-5.961298942565918,-10.989632606506348,-72.88941192626953,138.38670349121094, -109.62102508544922
694,291129568,0.59581196,0.55002725,-0.29773247,0.5038225,8.442326545715332,-9.443060874938965,-13.025636672973633,-95.49252319335938,70.18682098388672, -56.68724060058594
695,291146235,0.5997253,0.547283,-0.30247918,0.4993202,7.967778205871582,-10.89725399017334,-14.738826751708984,-51.98419189453125,-18.633634567260742, -6.908563613891602
696,291162902,0.5945986,0.5504736,-0.3145098,0.49448803,8.078385353088379,-10.13621711730957,-13.323103904724121,-19.271894454956055,-88.89185333251953, 37.64564514160156
697,291179569,0.5794643,0.5592083,-0.32673872,0.49472487,12.77829360961914,-3.6657655239105225,-3.6636250019073486,51.483253479003906,-110.8386001586914, 80.98169708251953
698,291196236,0.56792384,0.5642404,-0.3400218,0.4934409,16.588321685791016,10.186210632324219,10.17746353149414,15.882591247558594,-100.15638732910156, 74.96267700195312
699,291212903,0.5594549,0.56591076,-0.3598367,0.4871101,10.805005073547363,-3.4658665657043457,-6.574947357177734,-43.072166442871094,-126.76477813720703, 78.12823486328125
700,291229570,0.5452615,0.57422113,-0.37362865,0.4830789,10.828489303588867,0.5603726506233215,-2.2879977226257324,30.5636043548584,-130.95565795898438, 66.205810546875
