PacketCounter,SampleTimeFine,Quat_W,Quat_X,Quat_Y,Quat_Z,Acc_X,Acc_Y,Acc_Z,Gyr_X,Gyr_Y,Gyr_Z 
1,1128090982,0.57732034,0.4754171,-0.41876358,0.5150893,-0.0060789999552071095,-0.035828787833452225,0.01243135891854763,0.029987182468175888,-0.031092308461666107, 0.01979927532374859
2,1128107649,0.57748914,0.47540277,-0.41843784,0.51517814,9.56341552734375,1.1630266904830933,1.9852327108383179,-0.757265031337738,0.8546893000602722, -0.15822243690490723
3,1128124316,0.5777223,0.47523776,-0.41805544,0.515379,9.56392765045166,1.1616337299346924,1.9834750890731812,-0.4142213761806488,0.8336997628211975, -0.24447320401668549
4,1128140983,0.5778704,0.47510362,-0.41772085,0.5156079,9.56511402130127,1.1594529151916504,2.0111660957336426,-0.18407846987247467,0.7522001266479492, -0.22764569520950317
5,1128157650,0.5781094,0.4748668,-0.4174853,0.515749,9.553247451782227,1.1677460670471191,1.998019814491272,-0.23221752047538757,0.7507145404815674, -0.2945460379123688
6,1128174317,0.5782476,0.47474158,-0.41722697,0.5159184,9.563060760498047,1.1435387134552002,2.02190899848938,-0.32040202617645264,0.6371862888336182, -0.3662871718406677
7,1128190984,0.578484,0.47450855,-0.41710576,0.5159659,9.556258201599121,1.1351735591888428,2.0275330543518066,-0.6266531348228455,0.6523746252059937, -0.5082327723503113
8,1128207651,0.5787048,0.4742843,-0.4169981,0.5160114,9.562305450439453,1.1692880392074585,2.0107741355895996,-0.9228510856628418,0.6380442976951599, -0.725479781627655
9,1128224318,0.5789125,0.47411188,-0.41690457,0.51601243,9.539993286132812,1.1869035959243774,2.040126323699951,-1.2235954999923706,0.5036929249763489, -0.8491761684417725
10,1128240985,0.5789961,0.47409353,-0.41665125,0.5161402,9.571375846862793,1.1600196361541748,2.0278751850128174,-1.3958537578582764,0.43371906876564026, -1.086542010307312
11,1128257652,0.5792076,0.47398198,-0.41651586,0.51611453,9.572244644165039,1.1429436206817627,1.9807472229003906,-1.359675645828247,0.5374760031700134, -1.1889030933380127
12,1128274319,0.5793411,0.47394103,-0.41635486,0.51613235,9.564026832580566,1.2233624458312988,2.004786729812622,-0.6813490390777588,0.6368277668952942, -1.141404390335083
13,1128290986,0.5794166,0.47394636,-0.41615894,0.5162006,9.534114837646484,1.197014570236206,1.991865873336792,-1.3716880083084106,0.5926138162612915, -1.033370018005371
14,1128307653,0.5795928,0.47388294,-0.41607872,0.5161257,9.536506652832031,1.2029855251312256,2.0042433738708496,-1.23094642162323,0.5161535739898682, -0.9921720623970032
15,1128324320,0.57960796,0.4739431,-0.41585526,0.51623344,9.543959617614746,1.2128338813781738,2.017256736755371,-1.4321597814559937,0.5684674978256226, -0.9383468627929688
16,1128340987,0.5797834,0.47386122,-0.41579482,0.5161605,9.524078369140625,1.197695255279541,1.9764304161071777,-1.991746187210083,0.5177671313285828, -0.9025403261184692
17,1128357654,0.5799936,0.4737379,-0.41579947,0.51603365,9.5250244140625,1.2260798215866089,1.9851516485214233,-2.7036893367767334,0.42004185914993286, -0.9213528037071228
18,1128374321,0.58026326,0.47358456,-0.41586855,0.51581544,9.54592227935791,1.1939623355865479,1.9945296049118042,-2.6423981189727783,0.3082551956176758, -0.9744351506233215
19,1128390988,0.5804674,0.4734657,-0.41588932,0.51567817,9.562151908874512,1.1948091983795166,1.9706681966781616,-2.356675863265991,0.43250247836112976, -0.8037905693054199
20,1128407655,0.58072376,0.47330043,-0.41594672,0.515495,9.569269180297852,1.2404426336288452,2.001025676727295,-2.1052870750427246,0.6253660917282104, -0.7624005079269409
21,1128424322,0.5808008,0.47325432,-0.41586423,0.515517,9.544143676757812,1.2598198652267456,2.0480942726135254,-2.6988232135772705,0.5919414758682251, -0.6506138443946838
22,1128440989,0.58094376,0.47311354,-0.41590047,0.5154557,9.554559707641602,1.2406835556030273,2.016376495361328,-3.596548080444336,0.37008431553840637, -0.4388095736503601
23,1128457656,0.5811842,0.4728948,-0.41606724,0.515251,9.511468887329102,1.231214165687561,1.9965852499008179,-4.176995754241943,0.05353694409132004, -0.5025723576545715
24,1128474323,0.5813897,0.4727559,-0.416189,0.51504827,9.477228164672852,1.2467961311340332,1.9761110544204712,-3.865161895751953,-0.16685394942760468, -0.8017160296440125
25,1128490990,0.5816558,0.47265437,-0.41630802,0.5147448,9.496296882629395,1.325319766998291,2.019923210144043,-3.528764247894287,-0.3387663662433624, -1.3738394975662231
26,1128507657,0.5819427,0.47260785,-0.41639787,0.5143905,9.428315162658691,1.400373101234436,2.090104579925537,-4.1102752685546875,-0.6225038766860962, -1.976954698562622
27,1128524324,0.5825126,0.4724068,-0.41670156,0.5136833,9.390381813049316,1.3525115251541138,2.075963258743286,-6.246171474456787,-1.1942052841186523, -2.889394998550415
28,1128540991,0.5832046,0.47209176,-0.41720194,0.51278114,9.465530395507812,1.0410608053207397,1.9557298421859741,-8.325359344482422,-1.9150620698928833, -3.071911334991455
29,1128557658,0.58357716,0.47203186,-0.4176415,0.51205397,9.795677185058594,0.7445224523544312,1.9008275270462036,-6.931591987609863,-3.06156325340271, -2.629361867904663
30,1128574325,0.58366036,0.47233465,-0.41766277,0.51166254,9.678260803222656,0.9465776085853577,1.944089412689209,-1.9695781469345093,-2.292375087738037, -2.97308349609375
31,1128590992,0.5836837,0.47272334,-0.41760692,0.51132226,9.562850952148438,1.2670235633850098,2.0693984031677246,0.49180862307548523,-2.0605926513671875, -2.899754285812378
32,1128607659,0.58373505,0.472986,-0.41762605,0.51100504,9.563713073730469,1.4312371015548706,2.0256168842315674,-2.3872060775756836,-2.0738730430603027, -2.704688310623169
33,1128624326,0.5839073,0.47310275,-0.4177044,0.51063615,9.576165199279785,1.2207993268966675,1.9428205490112305,-3.631331205368042,-1.625868797302246, -2.6007397174835205
34,1128640993,0.58384824,0.47343963,-0.41743493,0.5106119,9.583965301513672,1.1552199125289917,2.0402145385742188,-1.5361217260360718,-0.7549214959144592, -2.543802499771118
35,1128657660,0.58396137,0.4735835,-0.4172403,0.510508,9.658720016479492,1.2684195041656494,1.9077068567276,-1.130083680152893,0.12120569497346878, -2.2451069355010986
36,1128674327,0.58425874,0.47351998,-0.41714194,0.5103069,9.631062507629395,1.2954704761505127,1.8966420888900757,-1.424616813659668,0.9417598247528076, -1.9995452165603638
37,1128690994,0.584446,0.4735124,-0.4168553,0.510334,9.576543807983398,1.2432512044906616,1.870458960533142,-2.032867193222046,1.6342886686325073, -1.9808093309402466
38,1128707661,0.58468336,0.47344756,-0.41661224,0.5103209,9.574566841125488,1.2636117935180664,1.9048678874969482,-1.661726474761963,1.8440569639205933, -1.801033854484558
39,1128724328,0.58476204,0.47349924,-0.41638428,0.5103687,9.542672157287598,1.281311273574829,1.9713900089263916,-2.44754958152771,0.8882805109024048, -1.68258798122406
40,1128740995,0.58513004,0.4733166,-0.41645375,0.5100594,9.519505500793457,1.3122667074203491,2.0081841945648193,-3.4331650733947754,0.569133460521698, -1.8631833791732788
41,1128757662,0.5855158,0.47313592,-0.41649798,0.5097482,9.508879661560059,1.1681969165802002,1.9099884033203125,-4.215659141540527,0.584244966506958, -2.178168296813965
42,1128774329,0.585819,0.47309667,-0.41633472,0.5095695,9.5565185546875,1.125349760055542,1.9644681215286255,-2.6628758907318115,1.0794923305511475, -2.5482077598571777
43,1128790996,0.58627814,0.47297832,-0.41608518,0.50935537,9.593779563903809,1.2037322521209717,2.045753240585327,-3.040842056274414,2.066771984100342, -3.28222918510437
44,1128807663,0.587045,0.4725606,-0.4159504,0.50896966,9.622220993041992,1.1516852378845215,1.7603663206100464,-6.146153450012207,2.9562125205993652, -3.8430588245391846
45,1128824330,0.58784866,0.47211182,-0.41564894,0.50870454,9.629457473754883,1.1579020023345947,1.776138424873352,-6.317874431610107,4.177426338195801, -4.1535491943359375
46,1128840997,0.5888048,0.47153297,-0.41533485,0.5083921,9.621577262878418,1.128657341003418,1.8362457752227783,-5.848802089691162,5.232207775115967, -4.236776828765869
47,1128857664,0.5894383,0.47124007,-0.41464594,0.5084923,9.550143241882324,1.2752736806869507,1.9373880624771118,-4.5425028800964355,5.734678268432617, -4.243704795837402
48,1128874331,0.5901131,0.47089326,-0.41401824,0.50854224,9.512293815612793,1.451566219329834,2.125293493270874,-3.635441541671753,5.861089706420898, -3.8916454315185547
49,1128890998,0.5906584,0.47061497,-0.413376,0.50868905,9.412818908691406,1.460554599761963,2.1870203018188477,-2.8055903911590576,5.569860935211182, -3.2919371128082275
50,1128907665,0.5909321,0.47058,-0.41267332,0.508974,9.4161376953125,1.4786065816879272,2.2075095176696777,0.6172469258308411,4.730775356292725, -2.4226927757263184
51,1128924332,0.59103155,0.47070763,-0.411998,0.5092875,9.38405990600586,1.5769574642181396,2.267120122909546,2.0156619548797607,3.6383166313171387, -1.992745041847229
52,1128940999,0.59091145,0.47100288,-0.41127974,0.5097343,9.387274742126465,1.5549715757369995,2.2431299686431885,1.5337846279144287,2.6500630378723145, -1.7866780757904053
53,1128957666,0.59103066,0.47112125,-0.41090944,0.5097853,9.479474067687988,1.4960216283798218,2.250946044921875,1.5363202095031738,1.7620065212249756, -1.7001197338104248
54,1128974333,0.5909518,0.47141108,-0.4104843,0.50995135,9.489474296569824,1.5204975605010986,2.1937358379364014,0.8674189448356628,0.8091756105422974, -1.7468886375427246
55,1128991000,0.59101504,0.47158694,-0.4102602,0.50989586,9.44941234588623,1.472609519958496,2.1883649826049805,0.2740366756916046,0.2972033619880676, -1.7720017433166504
56,1129007667,0.5912222,0.47166687,-0.41023225,0.509604,9.482047080993652,1.4346561431884766,2.1479833126068115,-0.1489250212907791,-0.2813938856124878, -1.9117059707641602
57,1129024334,0.5912242,0.47190532,-0.410039,0.5095367,9.51369571685791,1.4081004858016968,2.1196887493133545,-0.5152890682220459,-0.43822047114372253, -1.909016728401184
58,1129041001,0.59112346,0.47220042,-0.4097985,0.5095734,9.531813621520996,1.4565964937210083,2.1482558250427246,-1.8180407285690308,-0.7351997494697571, -1.9655952453613281
59,1129057668,0.59139776,0.4721285,-0.40990132,0.5092391,9.546073913574219,1.487220287322998,2.107814073562622,-3.5418782234191895,-0.5257519483566284, -1.9022682905197144
60,1129074335,0.59161365,0.47207892,-0.40986732,0.50906146,9.538531303405762,1.2568215131759644,1.9332475662231445,-3.2053141593933105,0.17371174693107605, -1.7529205083847046
61,1129091002,0.5916107,0.47229654,-0.40948313,0.5091723,9.600075721740723,1.207541823387146,1.991582989692688,0.9765418171882629,1.0598727464675903, -1.6504440307617188
62,1129107669,0.591667,0.47246853,-0.40910292,0.5092529,9.567136764526367,1.4303792715072632,2.1050260066986084,0.7062254548072815,1.3205204010009766, -1.8263520002365112
63,1129124336,0.5917883,0.47250664,-0.40882784,0.5092976,9.486715316772461,1.468424916267395,2.180838108062744,-1.9333491325378418,1.2207461595535278, -1.8023529052734375
64,1129141003,0.5920914,0.4723573,-0.4087746,0.50912654,9.458497047424316,1.4558346271514893,2.1880745887756348,-4.566693305969238,0.7884805798530579, -2.041614055633545
65,1129157670,0.59256816,0.47205564,-0.40896556,0.5086983,9.413275718688965,1.5242958068847656,2.156327247619629,-5.452124118804932,0.2484111785888672, -2.044674873352051
66,1129174337,0.59301245,0.47176668,-0.4092071,0.5082538,9.415870666503906,1.5582443475723267,2.150067090988159,-5.7865495681762695,-0.19264593720436096, -1.916124701499939
67,1129191004,0.59337443,0.47151855,-0.4094437,0.507871,9.464200973510742,1.577282190322876,2.143314838409424,-5.952699184417725,-0.46862274408340454, -1.670575499534607
68,1129207671,0.5937917,0.47114474,-0.40986502,0.50739026,9.398001670837402,1.632973313331604,2.156069040298462,-8.077582359313965,-1.024444341659546, -1.4104022979736328
69,1129224338,0.59434456,0.47064206,-0.41048747,0.50670576,9.420825004577637,1.4402077198028564,2.0323193073272705,-10.070429801940918,-1.64156973361969, -1.6191201210021973
70,1129241005,0.59475434,0.4703277,-0.4108504,0.5062225,9.502137184143066,1.3036326169967651,2.0105137825012207,-8.711599349975586,-1.1807714700698853, -1.977928638458252
71,1129257672,0.595236,0.47002187,-0.41115445,0.50569326,9.50828742980957,1.3190064430236816,2.002213954925537,-7.560575485229492,-0.7134674787521362, -2.358494520187378
72,1129274339,0.59575075,0.46974742,-0.411379,0.5051594,9.479801177978516,1.2931815385818481,1.9545490741729736,-6.356534957885742,-0.26648736000061035, -2.6411561965942383
73,1129291006,0.5962656,0.46957237,-0.4115182,0.5046009,9.492508888244629,1.3284388780593872,1.9713765382766724,-4.18300199508667,-0.09357600659132004, -2.9649393558502197
74,1129307673,0.5965424,0.46964407,-0.41141093,0.5042943,9.503747940063477,1.425848364830017,2.143707036972046,-2.4426705837249756,-0.024204006418585777, -2.979013442993164
75,1129324340,0.59674424,0.46971297,-0.41123775,0.50413245,9.541369438171387,1.543845772743225,2.2939090728759766,-3.326782464981079,0.2433014214038849, -2.73439884185791
76,1129341007,0.59701365,0.4696488,-0.41112554,0.503965,9.59122371673584,1.5063154697418213,2.082552671432495,-2.9501731395721436,0.8166417479515076, -2.0979232788085938
77,1129357674,0.5971258,0.46966648,-0.41085085,0.5040395,9.540389060974121,1.5446077585220337,2.054546594619751,-1.1238468885421753,1.503459095954895, -1.3731735944747925
78,1129374341,0.597137,0.46971133,-0.4104628,0.5043006,9.542632102966309,1.4802483320236206,2.077148675918579,-0.06319934129714966,2.155635356903076, -0.7615424394607544
79,1129391008,0.5971292,0.46976182,-0.41005394,0.5045953,9.519373893737793,1.432052493095398,2.1066951751708984,1.067966341972351,2.4189083576202393, -0.4380027949810028
80,1129407675,0.5970189,0.46988437,-0.40957788,0.5049982,9.525585174560547,1.4659916162490845,2.1713733673095703,0.9998877048492432,2.319056987762451, -0.3490626811981201
81,1129424342,0.59700406,0.46993676,-0.40919086,0.5052805,9.504889488220215,1.4421848058700562,2.141706943511963,0.9195280075073242,2.2531559467315674, -0.42336514592170715
82,1129441009,0.59689707,0.4700775,-0.4087374,0.505643,9.50074291229248,1.4614135026931763,2.1842634677886963,1.5811680555343628,2.1506409645080566, -0.34720578789711
83,1129457676,0.5968111,0.47016388,-0.4083857,0.5059484,9.481139183044434,1.5714503526687622,2.247992753982544,0.8104690313339233,1.7993112802505493, -0.1670716255903244
84,1129474343,0.5968122,0.47008565,-0.40824482,0.5061334,9.440716743469238,1.63229238986969,2.25848388671875,-1.1673630475997925,1.36135995388031, 0.1988634169101715
85,1129491010,0.596871,0.4699197,-0.40825564,0.5062094,9.418567657470703,1.5672003030776978,2.1662685871124268,-2.2350540161132812,0.8947861194610596, 0.37537333369255066
86,1129507677,0.59689987,0.4697818,-0.40827286,0.50628966,9.444117546081543,1.489717960357666,2.1105849742889404,-1.833561897277832,0.7307879328727722, 0.49471569061279297
87,1129524344,0.5968415,0.4697288,-0.4082386,0.50643516,9.472329139709473,1.470507025718689,2.1359219551086426,-1.2703899145126343,0.552574872970581, 0.5622437000274658
88,1129541011,0.59682935,0.46963868,-0.40828237,0.50649774,9.484902381896973,1.5231668949127197,2.190540313720703,-2.2045109272003174,0.2072131633758545, 0.3862971365451813
89,1129557678,0.5969042,0.4694656,-0.40844652,0.50643754,9.446577072143555,1.5458240509033203,2.2120532989501953,-3.375241756439209,-0.11738300323486328, 0.2551729381084442
90,1129574345,0.59697044,0.46927997,-0.408663,0.50635666,9.46131706237793,1.5345468521118164,2.182906150817871,-3.536973237991333,-0.36622321605682373, 0.43628033995628357
91,1129591012,0.59691155,0.46919197,-0.4088322,0.5063711,9.426372528076172,1.4957231283187866,2.1782724857330322,-2.476440668106079,-0.5822791457176208, 0.8003007769584656
92,1129607679,0.59679973,0.4691661,-0.40899816,0.50639296,9.454604148864746,1.4492779970169067,2.2271316051483154,-1.397223711013794,-0.8159308433532715, 0.9793846607208252
93,1129624346,0.5966237,0.46919495,-0.4091277,0.506469,9.508371353149414,1.4748806953430176,2.1794843673706055,-1.1526739597320557,-0.9374119639396667, 1.0440568923950195
94,1129641013,0.5964125,0.46922445,-0.40926108,0.506583,9.527311325073242,1.4510620832443237,2.10823392868042,-1.0866186618804932,-0.9531894326210022, 1.299018383026123
95,1129657680,0.59617466,0.46924883,-0.4093628,0.50675786,9.55577564239502,1.4626537561416626,2.104982614517212,-0.5820742249488831,-0.6529830098152161, 1.5902477502822876
96,1129674347,0.59591687,0.46927217,-0.40943024,0.50698495,9.520161628723145,1.4605451822280884,2.094435930252075,-0.22677482664585114,-0.38303789496421814, 1.7738906145095825
97,1129691014,0.5956606,0.4692862,-0.4094459,0.5072604,9.495341300964355,1.4414414167404175,2.089338779449463,0.1380588412284851,0.043394312262535095, 1.8476295471191406
98,1129707681,0.59545374,0.4692602,-0.40952003,0.50746757,9.491137504577637,1.4708284139633179,2.1173174381256104,-0.11384846270084381,-0.06071490794420242, 1.8066623210906982
99,1129724348,0.5952013,0.46926588,-0.4095722,0.5077161,9.501078605651855,1.4160715341567993,2.127666473388672,-0.002458818955346942,-0.12487471103668213, 1.8939374685287476
100,1129741015,0.5949327,0.46929082,-0.40957925,0.50800216,9.516424179077148,1.401381015777588,2.1241965293884277,0.276969313621521,0.054369356483221054, 1.8757524490356445
101,1129757682,0.594612,0.46938214,-0.40952387,0.5083378,9.524027824401855,1.390939474105835,2.1314756870269775,1.436891794204712,0.1498022824525833, 1.9539992809295654
102,1129774349,0.5942487,0.4695195,-0.40939495,0.5087394,9.530679702758789,1.4607309103012085,2.1206297874450684,2.1820290088653564,0.38381272554397583, 1.9989879131317139
103,1129791016,0.5938722,0.4696228,-0.4092481,0.50920165,9.532729148864746,1.4231178760528564,2.0554444789886475,2.3249287605285645,0.7399508357048035, 2.334559202194214
104,1129807683,0.5933941,0.46981806,-0.4089653,0.50980586,9.526239395141602,1.3439347743988037,2.0583221912384033,3.749616861343384,1.1340728998184204, 2.5366244316101074
105,1129824350,0.59283054,0.47010738,-0.40859392,0.5104918,9.509773254394531,1.3882890939712524,2.1237332820892334,5.036256790161133,1.2103090286254883, 2.633683681488037
106,1129841017,0.5923462,0.47030658,-0.40832403,0.5110865,9.490291595458984,1.4456976652145386,2.1511893272399902,3.4797732830047607,0.9972368478775024, 2.4882030487060547
107,1129857684,0.5919237,0.470457,-0.40811983,0.5116004,9.486444473266602,1.4220004081726074,2.1631081104278564,2.818260908126831,0.8442649841308594, 2.3401105403900146
108,1129874351,0.5914556,0.47066706,-0.4078938,0.5121287,9.455938339233398,1.4114055633544922,2.1629104614257812,3.179989814758301,0.6222798228263855, 2.29024338722229
109,1129891018,0.59100056,0.4708909,-0.4077005,0.51260185,9.467140197753906,1.4725401401519775,2.161785125732422,3.633321762084961,0.40116533637046814, 2.2544620037078857
110,1129907685,0.5904875,0.47112113,-0.4075119,0.5131313,9.48523998260498,1.4067281484603882,2.100245714187622,3.476123809814453,0.3059501349925995, 2.571777820587158
111,1129924352,0.5900302,0.47132662,-0.40737885,0.5135738,9.478386878967285,1.4252971410751343,2.202066421508789,3.5777292251586914,0.16582302749156952, 2.464946985244751
112,1129941019,0.58959335,0.4714724,-0.40730566,0.51399976,9.493475914001465,1.4054988622665405,2.1558377742767334,2.2641818523406982,0.02757847309112549, 2.5155577659606934
113,1129957686,0.58930546,0.47146493,-0.407388,0.5142713,9.499155044555664,1.422187089920044,2.1899266242980957,0.48552075028419495,-0.09941568970680237, 2.369258165359497
114,1129974353,0.5891758,0.47130793,-0.40762413,0.51437664,9.497069358825684,1.420224666595459,2.166134834289551,-1.4874192476272583,-0.26883092522621155, 2.094369649887085
115,1129991020,0.5890998,0.47109348,-0.4079356,0.51441336,9.452214241027832,1.4047802686691284,2.167235851287842,-2.1104226112365723,-0.4083176553249359, 2.094741106033325
116,1130007687,0.58908606,0.47084913,-0.4083214,0.51434666,9.457709312438965,1.3743064403533936,2.1470017433166504,-2.4559502601623535,-0.6910946369171143, 1.9066157341003418
117,1130024354,0.58902675,0.47065428,-0.40869176,0.5142988,9.506505012512207,1.386502742767334,2.1039764881134033,-2.8617966175079346,-0.9901102185249329, 1.7564997673034668
118,1130041021,0.5889919,0.4704556,-0.40907577,0.5142154,9.5171537399292,1.2931890487670898,2.0335545539855957,-2.5051653385162354,-0.9906865358352661, 1.7224347591400146
119,1130057688,0.58878094,0.47046274,-0.4092461,0.5143148,9.511276245117188,1.3007136583328247,2.042898416519165,-0.7380683422088623,-0.8733673691749573, 1.602695345878601
120,1130074355,0.5885408,0.47055373,-0.40937415,0.51440454,9.471538543701172,1.3533400297164917,2.0653514862060547,0.6547950506210327,-0.9884068369865417, 1.4860038757324219
121,1130091022,0.5882438,0.4707386,-0.40942082,0.5145377,9.452597618103027,1.3647359609603882,2.0601673126220703,0.8095086812973022,-1.1178407669067383, 1.148095726966858
122,1130107689,0.5879206,0.47102764,-0.40944254,0.5146251,9.442681312561035,1.4210840463638306,2.124404191970825,1.0289453268051147,-1.6356780529022217, 0.6290926337242126
123,1130124356,0.5876594,0.47134805,-0.40952316,0.514566,9.369504928588867,1.4507077932357788,2.2033932209014893,0.5711184144020081,-2.2511770725250244, -0.017378218472003937
124,1130141023,0.5876191,0.47156,-0.40986195,0.51414794,9.372576713562012,1.3437228202819824,2.184391975402832,-1.255598545074463,-3.2878639698028564, -0.810219407081604
125,1130157690,0.5875117,0.47189564,-0.41022292,0.51367474,9.501559257507324,1.2684600353240967,2.1318299770355225,-1.566895604133606,-4.298067569732666, -1.251334309577942
126,1130174357,0.58739376,0.47227398,-0.41058365,0.51317346,9.608381271362305,1.02584707736969,1.9729901552200317,-1.4912482500076294,-4.576887130737305, -1.4651745557785034
127,1130191024,0.5870469,0.47293296,-0.41062126,0.51293343,9.670323371887207,1.1215070486068726,1.9871777296066284,2.2568180561065674,-4.051058292388916, -1.467812418937683
128,1130207691,0.5867853,0.47350836,-0.41062647,0.5126975,9.637565612792969,1.3956167697906494,1.969733476638794,1.6368372440338135,-3.38031268119812, -1.6661957502365112
129,1130224358,0.58665997,0.47385246,-0.4106973,0.5124663,9.604802131652832,1.3942737579345703,1.915121078491211,-0.12174997478723526,-2.443272352218628, -1.2934414148330688
130,1130241025,0.58651805,0.47412786,-0.410645,0.512416,9.605441093444824,1.3866229057312012,1.971451759338379,0.5762153267860413,-1.154185175895691, -0.7148376107215881
131,1130257692,0.5863731,0.47433534,-0.4105032,0.5125035,9.614660263061523,1.408875823020935,1.8959380388259888,1.1862331628799438,-0.08222958445549011, -0.2079751342535019
132,1130274359,0.5862489,0.47445253,-0.41034037,0.51266736,9.53453254699707,1.425655722618103,1.9450548887252808,0.8124156594276428,0.6081287264823914, 0.16518272459506989
133,1130291026,0.5861688,0.47449344,-0.41018438,0.5128458,9.519866943359375,1.3475024700164795,1.9476410150527954,0.22971388697624207,1.0097358226776123, 0.2775583863258362
134,1130307693,0.5861146,0.4745302,-0.4099953,0.51302505,9.511113166809082,1.32223641872406,1.988479733467102,0.1376490443944931,1.2242549657821655, 0.06937839090824127
135,1130324360,0.58614314,0.4745058,-0.4098763,0.51311,9.532785415649414,1.3344509601593018,2.0118513107299805,-0.09641899913549423,1.1987191438674927, -0.028097130358219147
136,1130341027,0.5861952,0.47445902,-0.4098052,0.5131505,9.508859634399414,1.3973522186279297,2.0363552570343018,-1.0528483390808105,0.9405943155288696, -0.1803262084722519
137,1130357694,0.5863371,0.4743378,-0.4098622,0.5130552,9.482694625854492,1.4139870405197144,2.083160877227783,-1.904470682144165,0.5786868929862976, -0.2876562178134918
138,1130374361,0.58648795,0.47420967,-0.40994135,0.51293766,9.488215446472168,1.3782172203063965,2.0470657348632812,-2.685978412628174,0.3837486505508423, -0.44078177213668823
139,1130391028,0.5865595,0.47418663,-0.4099758,0.51284987,9.511035919189453,1.3757778406143188,2.064652681350708,-1.6418894529342651,0.0836958959698677, -0.4551889896392822
140,1130407695,0.58652127,0.47428262,-0.4099257,0.51284486,9.52351188659668,1.3803731203079224,2.0987579822540283,-0.5551808476448059,-0.07308583706617355, -0.4063454866409302
141,1130424362,0.5865098,0.474358,-0.40993252,0.51278275,9.535101890563965,1.4301644563674927,1.9948475360870361,-0.6549935340881348,-0.28248244524002075, -0.39010700583457947
142,1130441029,0.58656955,0.47434995,-0.41003826,0.5126373,9.5315580368042,1.387569546699524,2.0193519592285156,-1.3236641883850098,-0.3863547146320343, -0.307198703289032
143,1130457696,0.5866234,0.4743325,-0.41011503,0.5125305,9.566813468933105,1.3372581005096436,1.9754661321640015,-1.915676236152649,-0.23395919799804688, -0.3696424663066864
144,1130474363,0.58665776,0.47435474,-0.4101155,0.5124701,9.555317878723145,1.366205096244812,2.000725269317627,-1.3170435428619385,0.03291872516274452, -0.4815700054168701
145,1130491030,0.5867793,0.47431278,-0.41017687,0.51232076,9.525952339172363,1.385339617729187,1.990824818611145,-0.950935423374176,0.16474726796150208, -0.46516501903533936
146,1130507697,0.58686703,0.47430882,-0.41020185,0.5122038,9.499297142028809,1.3923542499542236,1.999146819114685,-1.343104362487793,0.0712481290102005, -0.6321086287498474
147,1130524364,0.5870525,0.47423103,-0.4102899,0.51199263,9.500809669494629,1.358829140663147,2.0372633934020996,-2.474775791168213,0.04468775540590286, -0.9450445175170898
148,1130541031,0.5872728,0.47413203,-0.41038662,0.5117543,9.522658348083496,1.315623164176941,2.033071517944336,-2.941964626312256,0.07291296124458313, -1.1248714923858643
149,1130557698,0.58754784,0.4740016,-0.41047898,0.51148534,9.54188346862793,1.3541654348373413,2.038930654525757,-3.774415969848633,0.1930365264415741, -1.4696568250656128
150,1130574365,0.5879106,0.4737911,-0.4105795,0.5111828,9.59264850616455,1.2847594022750854,1.9314311742782593,-4.321093559265137,0.6072195768356323, -1.6211433410644531
151,1130591032,0.5883139,0.47357273,-0.4105963,0.5109074,9.603658676147461,1.2897309064865112,1.9246032238006592,-4.109366416931152,1.184773325920105, -1.9093117713928223
152,1130607699,0.5886184,0.47346506,-0.4103647,0.5108427,9.566739082336426,1.2269076108932495,1.8997974395751953,-3.0642776489257812,2.0487661361694336, -2.1008687019348145
153,1130624366,0.5888881,0.473453,-0.4100138,0.51082474,9.522619247436523,1.3839704990386963,1.987614631652832,-1.1022937297821045,2.389619827270508, -2.2552876472473145
154,1130641033,0.5892744,0.47330815,-0.409755,0.51072115,9.450356483459473,1.4686048030853271,2.0740773677825928,-2.727445363998413,2.5171327590942383, -2.3695971965789795
155,1130657700,0.5896933,0.47307584,-0.4095778,0.510595,9.518462181091309,1.4734258651733398,2.0674753189086914,-3.9350202083587646,2.4545867443084717, -2.146421432495117
156,1130674367,0.59012437,0.47278166,-0.4094536,0.51046884,9.517436981201172,1.4735137224197388,2.0994722843170166,-4.058217525482178,2.541618824005127, -1.7591571807861328
157,1130691034,0.5904521,0.4725623,-0.4092667,0.51044285,9.49709701538086,1.4469449520111084,2.0283043384552,-3.5573863983154297,2.475294589996338, -1.5447660684585571
158,1130707701,0.59073824,0.47233853,-0.40915313,0.51040995,9.496703147888184,1.4110634326934814,2.1086325645446777,-3.152104139328003,2.1390256881713867, -1.0452672243118286
159,1130724368,0.5909364,0.47219485,-0.40900704,0.5104308,9.485688209533691,1.4744120836257935,2.0790772438049316,-2.593426465988159,1.8707194328308105, -0.9212504029273987
160,1130741035,0.5911765,0.4719957,-0.40893534,0.5103944,9.500341415405273,1.5124685764312744,2.1202473640441895,-2.6811628341674805,1.7977232933044434, -0.7416669130325317
161,1130757702,0.59144074,0.47175044,-0.40892053,0.51032686,9.52142333984375,1.4801404476165771,2.0862314701080322,-3.42106294631958,1.6668299436569214, -0.6756118535995483
162,1130774369,0.5915424,0.47167486,-0.40875226,0.51041377,9.541914939880371,1.4104655981063843,2.094850540161133,-1.2114038467407227,1.7446796894073486, -0.442280113697052
163,1130791036,0.5916532,0.47159508,-0.4086192,0.5104653,9.483498573303223,1.5132919549942017,2.142470121383667,-0.9768683910369873,1.6031564474105835, -0.3771085739135742
164,1130807703,0.5916273,0.47159535,-0.40847328,0.51061195,9.476582527160645,1.5093247890472412,2.14762544631958,-0.8711903095245361,1.1554847955703735, 0.006038193590939045
165,1130824370,0.5916296,0.47155008,-0.40845188,0.51066816,9.48648738861084,1.529030203819275,2.1727664470672607,-1.1892873048782349,0.68852698802948, 0.2256927192211151
166,1130841037,0.59146196,0.4716859,-0.40827987,0.51087457,9.467279434204102,1.418520450592041,2.125247001647949,0.14036399126052856,0.5408057570457458, 0.23598898947238922
167,1130857704,0.5913533,0.4718003,-0.40818456,0.51097095,9.457087516784668,1.5148169994354248,2.160987615585327,-0.09161663055419922,0.20325598120689392, 0.03303397819399834
168,1130874371,0.59146726,0.47167632,-0.40835643,0.51081616,9.459487915039062,1.5099267959594727,2.138021945953369,-3.4010589122772217,-0.23293466866016388, -0.22107599675655365
169,1130891038,0.59166443,0.4714376,-0.40862912,0.5105899,9.517120361328125,1.3786226511001587,2.0131185054779053,-4.930047035217285,-0.2745552957057953, -0.20355691015720367
170,1130907705,0.5917142,0.47136676,-0.40871218,0.5105313,9.528777122497559,1.4140691757202148,2.065155029296875,-3.383962392807007,-0.06499221920967102, -0.26432305574417114
171,1130924372,0.59174144,0.47131908,-0.40875664,0.5105082,9.499253273010254,1.410553216934204,2.061842679977417,-1.8556526899337769,0.23080241680145264, 0.027053412050008774
172,1130941039,0.5915676,0.47143003,-0.40863302,0.51070607,9.504597663879395,1.4452064037322998,2.0610146522521973,-1.3503655195236206,0.22188924252986908, 0.1827273964881897
173,1130957706,0.59164435,0.47130537,-0.4087779,0.51061636,9.499865531921387,1.4808459281921387,2.1536002159118652,-2.6401443481445312,0.057442884892225266, 0.17961545288562775
174,1130974373,0.5917239,0.47108948,-0.4090405,0.510513,9.510225296020508,1.4857460260391235,2.1264781951904297,-4.6083784103393555,-0.30303671956062317, 0.49536892771720886
175,1130991040,0.59178966,0.4708703,-0.40930995,0.51042306,9.480172157287598,1.4231810569763184,2.101508140563965,-4.4906110763549805,-0.3039587438106537, 0.651580810546875
176,1131007707,0.59174484,0.47079575,-0.409467,0.5104176,9.469738006591797,1.3783879280090332,2.1210193634033203,-2.8303568363189697,-0.37855568528175354, 0.6328321099281311
177,1131024374,0.591778,0.47067052,-0.40971705,0.510294,9.471224784851074,1.4582706689834595,2.113910675048828,-3.5764806270599365,-0.6871376037597656, 0.4064415693283081
178,1131041041,0.5917674,0.47053525,-0.41002345,0.51018524,9.471614837646484,1.4657657146453857,2.1383419036865234,-5.406418800354004,-1.210866093635559, 0.4293777346611023
179,1131057708,0.5919234,0.47025222,-0.4105074,0.50987566,9.530780792236328,1.3633198738098145,2.075244188308716,-6.259872913360596,-1.383406162261963, 0.3616833984851837
180,1131074375,0.5920039,0.47009203,-0.4109011,0.5096128,9.492828369140625,1.3471672534942627,2.051920175552368,-4.7269392013549805,-1.4570297002792358, 0.2547374963760376
181,1131091042,0.5919723,0.4700341,-0.41121525,0.50944966,9.534358978271484,1.3750501871109009,2.107079267501831,-4.471261024475098,-1.63677978515625, 0.2585538327693939
182,1131107709,0.5920816,0.46983632,-0.41172993,0.5090891,9.538619995117188,1.4328817129135132,2.080822467803955,-5.419442176818848,-2.011122226715088, 0.3098304271697998
183,1131124376,0.59222174,0.46957693,-0.41231364,0.50869286,9.490535736083984,1.4015167951583862,2.045821189880371,-6.022866249084473,-2.0893564224243164, 0.4779907166957855
184,1131141043,0.5923245,0.46934128,-0.41286576,0.5083428,9.522706031799316,1.3952033519744873,2.04103422164917,-6.140863418579102,-2.0788934230804443, 0.4990571141242981
185,1131157710,0.5922798,0.46923605,-0.41329512,0.50814325,9.495180130004883,1.384403944015503,2.111788749694824,-5.251141548156738,-2.1006898880004883, 0.6437176465988159
186,1131174377,0.59208965,0.46926013,-0.41364497,0.5080579,9.527289390563965,1.378345251083374,2.1028594970703125,-4.512022972106934,-2.3938398361206055, 0.8026828169822693
187,1131191044,0.59187496,0.46930856,-0.41400903,0.50796664,9.550800323486328,1.3851779699325562,2.0796682834625244,-4.193746566772461,-2.5953986644744873, 0.8898299336433411
188,1131207711,0.59168774,0.46930745,-0.41443524,0.5078382,9.56417465209961,1.346407175064087,2.006129741668701,-3.9147989749908447,-2.5914673805236816, 1.1862586736679077
189,1131224378,0.59140193,0.4693728,-0.41475445,0.5078502,9.553318977355957,1.4018580913543701,2.0006284713745117,-2.7073910236358643,-2.232146978378296, 1.5338743925094604
190,1131241045,0.5910041,0.46952417,-0.4149925,0.50797904,9.528883934020996,1.38889741897583,2.025099277496338,-1.7929400205612183,-2.196314573287964, 1.8052277565002441
191,1131257712,0.5904022,0.46982095,-0.4150734,0.5083381,9.555166244506836,1.4101440906524658,2.0235860347747803,-0.47977709770202637,-2.0579802989959717, 2.2824180126190186
192,1131274379,0.589809,0.4700923,-0.41519785,0.5086743,9.540996551513672,1.4171733856201172,2.017699718475342,0.833328366279602,-1.9635462760925293, 2.744560718536377
193,1131291046,0.58916926,0.4703767,-0.41536075,0.5090194,9.505242347717285,1.4357271194458008,2.062366485595703,1.325719952583313,-2.211733818054199, 3.1230275630950928
194,1131307713,0.5885904,0.47053653,-0.41573966,0.5092321,9.532864570617676,1.4211500883102417,2.053901195526123,-0.1714514195919037,-2.859440326690674, 3.5094971656799316
195,1131324380,0.5879875,0.47066435,-0.41617885,0.50945187,9.532824516296387,1.3011503219604492,1.9725037813186646,-1.223749041557312,-3.1459436416625977, 3.738640785217285
196,1131341047,0.58735776,0.470858,-0.4166056,0.50965035,9.55197811126709,1.3375147581100464,2.0104057788848877,-0.14920678734779358,-3.3690435886383057, 3.680039405822754
197,1131357714,0.58668,0.47110155,-0.41697183,0.5099066,9.516695976257324,1.366235375404358,1.9948644638061523,-0.02155308611690998,-3.3284339904785156, 3.6149699687957764
198,1131374381,0.5860781,0.4712495,-0.41744557,0.5100743,9.534897804260254,1.3457868099212646,1.942270278930664,-0.28879600763320923,-3.3637800216674805, 3.8325369358062744
199,1131391048,0.5853661,0.471478,-0.41784754,0.51035136,9.55563735961914,1.2983657121658325,1.9376503229141235,0.2333124876022339,-3.410907506942749, 4.044866561889648
200,1131407715,0.5846314,0.4717202,-0.4182672,0.51062596,9.5382661819458,1.3019919395446777,2.005018472671509,0.30350416898727417,-3.597163677215576, 4.137392520904541
201,1131424382,0.58388275,0.47200215,-0.41869745,0.51086944,9.549556732177734,1.2606024742126465,1.9920916557312012,1.2041747570037842,-3.8162927627563477, 4.157370567321777
202,1131441049,0.58299524,0.47240812,-0.4190347,0.51123095,9.581897735595703,1.2423574924468994,2.010578155517578,2.4038352966308594,-3.9477882385253906, 4.374989032745361
203,1131457716,0.5821611,0.47274902,-0.41947174,0.51150775,9.599564552307129,1.2960737943649292,1.9714080095291138,1.7223327159881592,-4.20095682144165, 4.430159091949463
204,1131474383,0.58128977,0.47308448,-0.41994944,0.5117968,9.668684959411621,1.1193084716796875,1.9056819677352905,2.4629368782043457,-4.322092533111572, 4.914341449737549
205,1131491050,0.5801823,0.47365844,-0.42017686,0.5123356,9.65282917022705,1.1578843593597412,1.8803825378417969,4.892788887023926,-4.13650369644165, 5.0537261962890625
206,1131507717,0.57899153,0.4743193,-0.4203144,0.51295835,9.586955070495605,1.2142490148544312,1.851846694946289,6.228734493255615,-4.029621124267578, 5.167407989501953
207,1131524384,0.5779143,0.474872,-0.42055237,0.5134661,9.576133728027344,1.2141096591949463,1.8925198316574097,5.1291046142578125,-4.045655727386475, 5.027358055114746
208,1131541051,0.57695335,0.47532564,-0.4209473,0.5138033,9.62215518951416,1.1366506814956665,1.8632324934005737,3.6562840938568115,-4.5012664794921875, 4.806089401245117
209,1131557718,0.5760659,0.47574648,-0.4214115,0.5140287,9.548673629760742,1.125195026397705,1.8293654918670654,2.408945322036743,-4.847985744476318, 4.362055778503418
210,1131574385,0.57516336,0.47627148,-0.4218646,0.51418185,9.568480491638184,1.0439651012420654,1.8607182502746582,3.1652112007141113,-5.4010009765625, 3.8765528202056885
211,1131591052,0.5743027,0.47682738,-0.42240435,0.5141855,9.569555282592773,1.1565303802490234,1.8873095512390137,2.603691339492798,-6.201411724090576, 3.362236976623535
212,1131607719,0.5734163,0.4774117,-0.42298818,0.51415265,9.585522651672363,1.0632413625717163,1.8021328449249268,2.2609167098999023,-6.704445838928223, 3.319080114364624
213,1131624386,0.57248646,0.4781092,-0.42354712,0.5140805,9.542389869689941,1.087778091430664,1.8050590753555298,2.43827223777771,-7.306203842163086, 2.8292243480682373
214,1131641053,0.5716448,0.47875306,-0.42425993,0.51383007,9.551581382751465,1.1521438360214233,1.706341028213501,1.5664280652999878,-7.977114677429199, 2.6032302379608154
215,1131657720,0.5708549,0.47937408,-0.4250854,0.5134468,9.592384338378906,1.17156183719635,1.7317932844161987,0.7634572386741638,-8.598186492919922, 2.378223180770874
216,1131674387,0.5701765,0.47989962,-0.42605743,0.5129038,9.616233825683594,1.1307299137115479,1.676761507987976,-0.6990603804588318,-9.012331008911133, 2.1649844646453857
217,1131691054,0.56958306,0.4803792,-0.42715138,0.5122039,9.62028694152832,1.0915342569351196,1.7510758638381958,-1.051657795906067,-9.485512733459473, 1.9615684747695923
218,1131707721,0.56888944,0.48099884,-0.428184,0.5115305,9.613530158996582,1.0546941757202148,1.7291356325149536,-1.5854523181915283,-10.13576889038086, 1.5042407512664795
219,1131724388,0.56816995,0.48172224,-0.42924708,0.5107582,9.642745018005371,1.0064929723739624,1.7098037004470825,-0.7901393175125122,-10.950996398925781, 1.1219840049743652
220,1131741055,0.567293,0.48267412,-0.4302548,0.5099856,9.66884994506836,0.9405705332756042,1.7412214279174805,0.4115258455276489,-12.05289363861084, 0.7391251921653748
221,1131757722,0.566284,0.48385963,-0.43125808,0.50913554,9.672096252441406,0.9032185077667236,1.7811415195465088,1.7626863718032837,-13.488232612609863, 0.21670278906822205
222,1131774389,0.5651252,0.48531753,-0.43227607,0.5081711,9.649296760559082,0.8986269235610962,1.8145091533660889,3.0368683338165283,-15.324140548706055, -0.4594922363758087
223,1131791056,0.5638094,0.48703024,-0.43333215,0.5070934,9.681814193725586,0.883001446723938,1.78549325466156,3.462181329727173,-17.290550231933594, -1.0922291278839111
224,1131807723,0.5623618,0.48897794,-0.43444964,0.5058689,9.730461120605469,0.9459494948387146,1.6890062093734741,5.085825443267822,-19.147775650024414, -1.5749272108078003
225,1131824390,0.56066096,0.49122837,-0.43550286,0.50466955,9.828861236572266,0.9346073269844055,1.535429835319519,7.07250452041626,-20.671737670898438, -1.7770122289657593
226,1131841057,0.5586338,0.49389777,-0.43637457,0.503558,9.858549118041992,0.9674657583236694,1.6518785953521729,10.30864143371582,-22.157697677612305, -2.242499351501465
227,1131857724,0.55642873,0.49682584,-0.43734342,0.50227696,9.969206809997559,0.8525253534317017,1.6205899715423584,12.00076675415039,-24.446258544921875, -2.6181371212005615
228,1131874391,0.5539288,0.50003606,-0.4385202,0.5008262,10.090496063232422,0.8385375738143921,1.766830325126648,12.410284042358398,-27.749197006225586, -2.465768337249756
229,1131891058,0.55108124,0.50348467,-0.44006652,0.49915355,10.342124938964844,0.606215238571167,1.67429780960083,12.390840530395508,-31.832462310791016, -1.6017478704452515
230,1131907725,0.5475135,0.50754774,-0.44178647,0.49744275,10.45632553100586,0.5065496563911438,1.739169716835022,16.0582218170166,-36.980838775634766, -0.6014536023139954
231,1131924392,0.54311436,0.51220745,-0.4438443,0.49565402,10.631638526916504,0.395524263381958,1.8402962684631348,19.979183197021484,-43.10377502441406, 1.293867826461792
232,1131941059,0.5380761,0.5174531,-0.44611374,0.4936589,10.614816665649414,0.7931135296821594,2.185983180999756,22.7769718170166,-48.64335632324219, 1.5954890251159668
233,1131957726,0.5326627,0.5229489,-0.4488766,0.49122778,10.875412940979004,0.5386258363723755,2.0627381801605225,22.01740837097168,-54.0860595703125, 2.2239456176757812
234,1131974393,0.52692276,0.5287244,-0.45241234,0.4879815,10.811640739440918,0.732344388961792,2.053769826889038,19.09262466430664,-61.8656005859375, 2.223849296569824
235,1131991060,0.52102983,0.53466094,-0.4566554,0.48387134,10.79705810546875,0.7701981663703918,1.9296655654907227,15.151398658752441,-68.66121673583984, 1.654538631439209
236,1132007727,0.515579,0.5403334,-0.46148148,0.47880378,10.838430404663086,0.8991360664367676,1.5424160957336426,7.641941070556641,-72.07779693603516, -0.29428258538246155
237,1132024394,0.5106142,0.5457896,-0.466498,0.4730395,10.62391185760498,1.3201706409454346,1.298641324043274,2.2376766204833984,-73.15376281738281, -2.985677480697632
238,1132041061,0.50616753,0.55101925,-0.47143537,0.4668203,10.359414100646973,1.8506293296813965,0.9312809705734253,-1.6980384588241577,-72.24890899658203, -5.833144664764404
239,1132057728,0.50223964,0.5562841,-0.47554702,0.4606066,10.195040702819824,2.4518377780914307,0.6420558094978333,-0.8671067357063293,-67.8414306640625, -10.69251823425293
240,1132074395,0.49864417,0.5618044,-0.47822475,0.4550065,10.060827255249023,2.6104226112365723,0.0021876096725463867,5.300448417663574,-60.31574249267578, -15.889888763427734
241,1132091062,0.4977982,0.56511223,-0.4802399,0.44968337,9.264978408813477,1.3040977716445923,3.4191205501556396,-9.911063194274902,-41.04221725463867, -18.76540184020996
242,1132107729,0.49863333,0.5651971,-0.48134154,0.4474679,8.24027156829834,-3.105787754058838,4.011934757232666,-14.360672950744629,-10.509428024291992, -6.233574390411377
243,1132124396,0.49804378,0.56481135,-0.47953516,0.4505403,7.56503438949585,-3.5209312438964844,5.235180854797363,16.021318435668945,16.53769874572754, 6.348753452301025
244,1132141063,0.49795237,0.56230485,-0.47602126,0.45745018,7.551702499389648,-2.0853331089019775,5.325145721435547,24.78534507751465,45.24513626098633, 18.11799430847168
245,1132157730,0.4996321,0.55657905,-0.4717979,0.46689868,8.064521789550781,-1.7609792947769165,5.118532657623291,17.479700088500977,73.15967559814453, 28.914342880249023
246,1132174397,0.5026979,0.5480505,-0.4669355,0.47844216,8.509787559509277,-1.6225225925445557,5.118356704711914,11.41872787475586,96.63187408447266, 38.20524978637695
247,1132191064,0.5068498,0.5372798,-0.46133342,0.49153352,9.154440879821777,-0.8646717071533203,4.5961151123046875,7.002091407775879,115.66162109375, 44.29964828491211
248,1132207731,0.51229703,0.52436167,-0.45522684,0.50533676,9.866250038146973,-0.11531984061002731,3.7491910457611084,-1.2809020280838013,131.2306365966797, 47.292572021484375
249,1132224398,0.518625,0.5098963,-0.44862565,0.5193929,10.453630447387695,0.19295699894428253,3.154216766357422,-6.5158371925354,141.94866943359375, 48.20423126220703
250,1132241065,0.5255784,0.49453306,-0.44119865,0.5334305,10.990745544433594,0.9166958332061768,2.526049852371216,-9.120015144348145,149.864501953125, 45.79607391357422
251,1132257732,0.53326035,0.4783253,-0.43333054,0.5468667,11.54463005065918,1.4234217405319214,1.5415756702423096,-14.929596900939941,154.67654418945312, 42.059837341308594
252,1132274399,0.54089785,0.462332,-0.42511985,0.55942106,12.111227035522461,1.9141030311584473,0.4876295030117035,-16.005083084106445,152.10047912597656, 37.17974090576172
253,1132291066,0.54844475,0.4472507,-0.4171191,0.57025164,11.823591232299805,2.53853440284729,-0.07576102018356323,-18.182889938354492,142.17172241210938, 29.19019317626953
254,1132307733,0.5565764,0.4326924,-0.4102162,0.5785524,11.255120277404785,2.771214246749878,-0.6618306636810303,-29.59104347229004,130.02479553222656, 19.330097198486328
255,1132324400,0.5653492,0.4185356,-0.40490454,0.5841752,10.764647483825684,2.4034173488616943,-1.4837629795074463,-43.874080657958984,116.36275482177734, 10.232930183410645
256,1132341067,0.57348734,0.40561855,-0.4010311,0.58801377,10.45180606842041,1.539729356765747,-2.539153814315796,-48.00174331665039,99.11348724365234, 6.617292881011963
257,1132357734,0.58033586,0.394723,-0.3988194,0.5902095,9.891985893249512,1.4263916015625,-3.349463701248169,-47.70182418823242,76.51956176757812, 4.465670585632324
258,1132374401,0.5865097,0.38483846,-0.3992934,0.5903141,9.136025428771973,1.1625994443893433,-3.8069722652435303,-58.490535736083984,54.473541259765625, 3.426985263824463
259,1132391068,0.5909414,0.3774474,-0.4016434,0.5890708,8.715169906616211,1.2759183645248413,-4.680578708648682,-55.15830993652344,28.74237823486328, 3.2259440422058105
260,1132407735,0.5934643,0.37381905,-0.40460402,0.586818,8.548212051391602,1.8267040252685547,-4.613044261932373,-40.19809341430664,3.4591104984283447, -1.8957858085632324
261,1132424402,0.5939984,0.37385124,-0.40789506,0.58397174,8.871209144592285,1.9945377111434937,-3.2569468021392822,-23.164152145385742,-19.399356842041016, -5.5451555252075195
262,1132441069,0.59283364,0.37649342,-0.4110971,0.5812059,9.765609741210938,1.333053708076477,-1.6818821430206299,-7.5879225730896,-33.808204650878906, -5.855728626251221
263,1132457736,0.5901455,0.3802645,-0.4109474,0.5815922,10.764098167419434,-1.2203270196914673,6.530704975128174,23.237567901611328,-20.592491149902344, 1.2738456726074219
264,1132474403,0.5882308,0.3829521,-0.4084522,0.58352304,8.5773344039917,-0.4563694894313812,7.036065101623535,30.574996948242188,-0.6061521768569946, 1.3405154943466187
265,1132491070,0.5855754,0.3871044,-0.40415198,0.586441,9.472426414489746,0.4954829812049866,3.333951473236084,48.463783264160156,1.1977941989898682, -0.5734730958938599
266,1132507737,0.58374625,0.391707,-0.40051028,0.58770555,10.96959400177002,3.4517195224761963,3.622875690460205,40.81654739379883,-5.3585309982299805, -10.037193298339844
267,1132524404,0.5847473,0.39325953,-0.40199193,0.5846539,11.435049057006836,0.9453563690185547,2.7529141902923584,-11.690074920654297,-17.40195083618164, -16.46634292602539
268,1132541071,0.58528835,0.39593622,-0.40435156,0.58066535,10.9050874710083,-1.0843784809112549,1.9675354957580566,-12.061205863952637,-29.19408416748047, -19.077964782714844
269,1132557738,0.58572376,0.40029502,-0.4061112,0.57599074,10.695279121398926,0.2222878336906433,2.717545509338379,-4.502475738525391,-35.5770263671875, -27.763442993164062
270,1132574405,0.5875795,0.40352595,-0.409218,0.5696121,10.184863090515137,0.6558322906494141,2.4074320793151855,-23.051420211791992,-37.21759796142578, -33.38420867919922
271,1132591072,0.5894102,0.40646112,-0.41247576,0.56324863,9.851222038269043,0.4224323332309723,2.207045555114746,-24.735952377319336,-36.65728759765625, -31.950443267822266
272,1132607739,0.591129,0.40930814,-0.41536924,0.557227,9.621114730834961,1.2758804559707642,2.4248452186584473,-22.40711784362793,-34.16298294067383, -30.886484146118164
273,1132624406,0.59247607,0.41177365,-0.41801167,0.55197936,9.43220329284668,1.069263219833374,2.3591134548187256,-19.754777908325195,-30.54225730895996, -25.89235496520996
274,1132641073,0.59311366,0.41445377,-0.41974103,0.5479614,9.657610893249512,0.5375159382820129,2.1094253063201904,-9.88422679901123,-26.176036834716797, -21.362119674682617
275,1132657740,0.59299576,0.4176653,-0.4203158,0.54520303,10.019341468811035,0.07300170511007309,1.9197529554367065,2.416213035583496,-22.031991958618164, -18.196863174438477
276,1132674407,0.5928578,0.4207993,-0.42031452,0.5429396,9.95149040222168,0.0782628282904625,2.050513744354248,5.748764514923096,-17.991554260253906, -17.547992706298828
277,1132691074,0.59313464,0.42350793,-0.4202401,0.5405836,10.03162670135498,0.07314686477184296,2.1807639598846436,2.8213534355163574,-15.145983695983887, -18.47304344177246
278,1132707741,0.5941897,0.42546982,-0.42064953,0.5375575,9.725205421447754,0.5879767537117004,2.2761683464050293,-6.222965717315674,-14.024229049682617, -20.54910659790039
279,1132724408,0.59594107,0.42666328,-0.42150873,0.5339882,9.55393123626709,0.8231992721557617,2.360142946243286,-14.636177062988281,-12.584029197692871, -21.802566528320312
280,1132741075,0.59801334,0.4274147,-0.42247018,0.53029776,9.240537643432617,1.091347575187683,2.51041841506958,-18.121070861816406,-10.80001449584961, -21.885883331298828
281,1132757742,0.5999359,0.4281606,-0.42330858,0.52684474,9.13826847076416,0.9679765701293945,2.7174289226531982,-16.5728702545166,-10.016129493713379, -20.691980361938477
282,1132774409,0.60143244,0.42932713,-0.42391455,0.5236924,9.049452781677246,1.0992835760116577,3.104046106338501,-11.87121868133545,-10.948967933654785, -19.805503845214844
283,1132791076,0.6028679,0.4306809,-0.42470327,0.52028024,8.767062187194824,1.2409844398498535,3.240175247192383,-12.335057258605957,-13.353279113769531, -20.652009963989258
284,1132807743,0.6043897,0.43206066,-0.42596477,0.5163243,8.918842315673828,1.0967220067977905,3.2082223892211914,-15.765823364257812,-16.800886154174805, -21.872539520263672
285,1132824410,0.6062053,0.43334508,-0.42799684,0.51141596,9.238253593444824,1.0115879774093628,3.0117647647857666,-22.559661865234375,-21.670358657836914, -24.29319190979004
286,1132841077,0.60781044,0.43510595,-0.43035975,0.50600386,9.40282154083252,1.0100325345993042,2.9629552364349365,-22.59220314025879,-26.872129440307617, -26.06305503845215
287,1132857744,0.6093182,0.4371536,-0.43304297,0.500102,9.44112491607666,1.5370501279830933,2.6773972511291504,-23.66399574279785,-30.98842430114746, -27.656469345092773
288,1132874411,0.6107738,0.43915072,-0.4363691,0.49364364,9.323053359985352,1.725257396697998,2.1293084621429443,-27.588720321655273,-35.35483932495117, -27.704980850219727
289,1132891078,0.6120091,0.44105482,-0.4403082,0.48687193,9.708712577819824,1.2695413827896118,1.6078401803970337,-30.339588165283203,-39.22513198852539, -26.117326736450195
290,1132907745,0.61263645,0.44330454,-0.44419208,0.48046985,10.209176063537598,0.6436923742294312,1.2562998533248901,-25.73802375793457,-40.855316162109375, -23.73415756225586
291,1132924412,0.612505,0.4462907,-0.44730672,0.47495157,10.19057559967041,0.6010417342185974,1.4625651836395264,-15.08080005645752,-39.64479064941406, -22.11827850341797
292,1132941079,0.611799,0.4496159,-0.44946453,0.47066897,10.141508102416992,0.38490384817123413,1.5162688493728638,-4.9607086181640625,-34.68191909790039, -19.0416259765625
293,1132957746,0.6103047,0.4538449,-0.4501259,0.46791005,10.067734718322754,0.642801821231842,1.4594812393188477,10.834635734558105,-29.026016235351562, -17.53567123413086
294,1132974413,0.60840964,0.45851743,-0.45009583,0.46584725,9.588047981262207,1.730617642402649,1.7307629585266113,18.32912826538086,-26.609107971191406, -16.88567352294922
295,1132991080,0.6069005,0.4623906,-0.4505253,0.46356642,9.653061866760254,1.643028736114502,1.582006812095642,11.62079906463623,-25.469079971313477, -15.103377342224121
296,1133007747,0.6060935,0.46532595,-0.45106447,0.46115425,9.621914863586426,1.3718817234039307,1.6163296699523926,4.719017028808594,-21.1831111907959, -14.632250785827637
297,1133024414,0.60629666,0.46711686,-0.45138392,0.45875794,9.788748741149902,1.0788580179214478,2.1706976890563965,-2.5338680744171143,-13.462553024291992, -14.928650856018066
298,1133041081,0.6070554,0.4685199,-0.45118368,0.4565155,9.505971908569336,1.3815960884094238,1.5332026481628418,-3.8128771781921387,-7.881036281585693, -16.523052215576172
299,1133057748,0.6068076,0.47098622,-0.45087004,0.4546129,9.559612274169922,1.4650503396987915,1.1255983114242554,5.278740882873535,-12.780104637145996, -15.616291999816895
300,1133074415,0.60600626,0.4739599,-0.44987676,0.45357412,9.953968048095703,0.9365108609199524,1.0283344984054565,14.001365661621094,-10.440868377685547, -14.062087059020996
301,1133091082,0.60475636,0.47758582,-0.44750473,0.45378542,10.014991760253906,1.355387568473816,1.0950827598571777,26.322649002075195,-4.037740230560303, -13.999396324157715
302,1133107749,0.6029011,0.4818211,-0.44484904,0.454388,9.615986824035645,1.9213230609893799,0.894171953201294,32.938819885253906,-5.327709197998047, -13.309316635131836
303,1133124416,0.60072803,0.48615265,-0.44314992,0.45431244,9.367846488952637,2.1114542484283447,1.0727782249450684,29.482471466064453,-12.771171569824219, -12.231125831604004
304,1133141083,0.5984878,0.49043193,-0.44216773,0.4536263,9.452874183654785,2.18481707572937,1.1034730672836304,25.177913665771484,-17.850685119628906, -12.011185646057129
305,1133157750,0.59618056,0.49458486,-0.44165182,0.4526568,9.56083869934082,2.24503493309021,1.1089717149734497,22.62919044494629,-20.521957397460938, -10.996378898620605
306,1133174417,0.59369254,0.4987651,-0.44143176,0.45155364,9.359970092773438,2.4635825157165527,1.2310210466384888,22.021503448486328,-22.826496124267578, -10.051806449890137
307,1133191084,0.59111106,0.5028521,-0.44157568,0.4502653,9.430190086364746,2.434817314147949,1.22193443775177,20.27066421508789,-24.949247360229492, -8.971675872802734
308,1133207751,0.5883173,0.5070614,-0.44198114,0.4488032,9.5813627243042,2.1115810871124268,1.2104076147079468,20.174745559692383,-27.64484405517578, -8.47472858428955
309,1133224418,0.58538413,0.51144344,-0.44257805,0.447075,9.653623580932617,2.1382577419281006,1.0935122966766357,20.63035774230957,-30.175506591796875, -8.914826393127441
310,1133241085,0.5823831,0.51584876,-0.4433524,0.44516155,9.752161026000977,2.073371171951294,0.9497764706611633,19.811965942382812,-31.83777618408203, -8.909897804260254
311,1133257752,0.579323,0.5202827,-0.4442205,0.44312406,9.809974670410156,2.0593557357788086,0.693467378616333,19.4585018157959,-32.93220520019531, -8.991822242736816
312,1133274419,0.5760088,0.5249833,-0.4449601,0.44115415,9.766763687133789,1.9860979318618774,0.4536520838737488,21.992958068847656,-33.77733612060547, -9.23742961883545
313,1133291086,0.5723911,0.52992284,-0.44564733,0.43925956,9.697084426879883,2.1259751319885254,0.40452608466148376,24.4055118560791,-34.95497131347656, -8.954272270202637
314,1133307753,0.56846523,0.5349845,-0.44635215,0.4375029,9.881911277770996,2.196201801300049,0.41750863194465637,25.836618423461914,-35.95769500732422, -7.823429584503174
315,1133324420,0.5638181,0.5405663,-0.44683293,0.4361622,10.111042976379395,2.1707377433776855,0.5169377326965332,32.4770393371582,-37.33576583862305, -6.453239917755127
316,1133341087,0.5585524,0.54662335,-0.44719508,0.4350158,10.19845962524414,2.159632921218872,0.5385323762893677,37.57558059692383,-39.49121856689453, -5.7552595138549805
317,1133357754,0.55236757,0.5533248,-0.4473248,0.4343068,10.623534202575684,1.6361150741577148,0.4798666834831238,45.55128479003906,-41.724281311035156, -4.1922149658203125
318,1133374421,0.54532474,0.5607139,-0.4473114,0.4337434,10.869138717651367,1.6244970560073853,0.6306506991386414,52.30854415893555,-45.33793258666992, -3.766834020614624
319,1133391088,0.53794485,0.5681033,-0.4478849,0.43275076,11.152802467346191,1.444288730621338,0.7105092406272888,50.54724884033203,-50.2598762512207, -2.1422972679138184
320,1133407755,0.5302192,0.5755029,-0.44903868,0.43131012,11.453591346740723,0.9543471932411194,0.5127894282341003,48.83872985839844,-55.289058685302734, -0.5729158520698547
321,1133424422,0.5219762,0.58309,-0.45053795,0.42960784,11.856425285339355,0.7726948857307434,0.7447482347488403,49.74573516845703,-59.77639389038086, 0.7420220971107483
322,1133441089,0.5133172,0.59072983,-0.45223874,0.42781287,12.448860168457031,0.5217159390449524,0.4467476010322571,50.72724151611328,-62.36902618408203, 2.2223429679870605
323,1133457756,0.5034208,0.59898853,-0.45383057,0.4264015,12.425463676452637,0.13740406930446625,0.7280354499816895,59.45631790161133,-66.14948272705078, 4.779572486877441
324,1133474423,0.49230644,0.60770667,-0.45599824,0.4247265,11.970489501953125,0.48718488216400146,1.3027948141098022,63.55663299560547,-74.44678497314453, 8.299429893493652
325,1133491090,0.4799224,0.61685205,-0.45875007,0.42274857,11.616656303405762,-0.24399490654468536,1.6863560676574707,67.65946197509766,-83.01419830322266, 12.022689819335938
326,1133507757,0.466053,0.6266048,-0.46169132,0.4207164,11.382144927978516,0.08947040140628815,2.864130735397339,75.24626922607422,-90.43408966064453, 14.975828170776367
327,1133524424,0.45137253,0.6367946,-0.46558827,0.41711268,10.753479957580566,0.5062888860702515,2.867276668548584,72.39743041992188,-104.26258850097656, 14.961270332336426
328,1133541091,0.43764845,0.6463973,-0.47054625,0.4113643,10.815400123596191,2.148226022720337,3.8519721031188965,56.4869499206543,-112.35881042480469, 12.053637504577637
329,1133557758,0.42759588,0.65444225,-0.476517,0.40224215,10.620796203613281,4.146467685699463,1.5997997522354126,21.72657012939453,-114.30613708496094, 1.0710527896881104
330,1133574425,0.42027003,0.66174525,-0.48381984,0.38908207,11.66629695892334,4.6233062744140625,0.5333671569824219,-9.603893280029297,-125.5362319946289, -9.853411674499512
331,1133591092,0.41530746,0.66827613,-0.49194205,0.3727198,12.572332382202148,4.400378227233887,0.20195436477661133,-35.392398834228516,-132.66366577148438, -19.073354721069336
332,1133607759,0.40992916,0.675345,-0.49882063,0.35643393,12.940237045288086,4.451063632965088,-0.08798272907733917,-28.456222534179688,-131.67071533203125, -25.285287857055664
333,1133624426,0.404819,0.6821535,-0.50449383,0.34099016,12.414214134216309,3.683006763458252,-0.5694257020950317,-24.54231071472168,-122.93526458740234, -28.241268157958984
334,1133641093,0.3987979,0.68883526,-0.5091819,0.32741442,10.994596481323242,2.410590887069702,-1.910187005996704,-11.789780616760254,-114.41636657714844, -25.078475952148438
335,1133657760,0.39116558,0.6955861,-0.51267034,0.3167311,10.06788444519043,1.2371504306793213,-3.1519222259521484,8.877140045166016,-103.3022689819336, -19.457244873046875
336,1133674427,0.3824854,0.70213234,-0.5133538,0.31174254,8.01694393157959,1.2896896600723267,2.227374315261841,39.517181396484375,-71.81671142578125, -14.58039665222168
337,1133691094,0.37719375,0.7056797,-0.51238525,0.3117732,8.085616111755371,0.6645195484161377,6.681978702545166,36.55958557128906,-25.00723648071289, -6.0389275550842285
338,1133707761,0.37509334,0.706398,-0.50999564,0.31656155,5.348717212677002,-0.4404991865158081,5.944124698638916,33.59419250488281,18.807613372802734, 2.515775680541992
339,1133724428,0.37472135,0.7050673,-0.5059643,0.32628852,5.5393290519714355,-1.451554775238037,4.836143970489502,40.83091354370117,57.34793472290039, 10.685534477233887
340,1133741095,0.37588087,0.7015379,-0.50019,0.34112796,6.144019603729248,-0.7856779098510742,3.9592459201812744,49.4409065246582,96.7100601196289, 19.59239959716797
341,1133757762,0.37943146,0.6954869,-0.49274033,0.35991248,6.770864486694336,-0.22235271334648132,3.0987961292266846,48.89295196533203,134.0512237548828, 24.764108657836914
342,1133774429,0.38493916,0.6870922,-0.4837978,0.38166198,7.495595932006836,0.005756737664341927,1.6724145412445068,47.165008544921875,164.41778564453125, 28.468103408813477
343,1133791096,0.39162052,0.67659134,-0.473698,0.40554658,8.408736228942871,0.6806052327156067,0.509865939617157,46.18327331542969,186.89772033691406, 32.59685516357422
344,1133807763,0.4006333,0.66327447,-0.4630939,0.4302373,9.263416290283203,1.4284580945968628,-0.23076853156089783,31.779985427856445,207.37925720214844, 35.123435974121094
345,1133824430,0.41163334,0.6472299,-0.45222223,0.45513353,10.2673921585083,1.4026857614517212,-1.0674211978912354,16.641876220703125,223.40420532226562, 37.315391540527344
346,1133841097,0.4232949,0.62955344,-0.44060424,0.4799498,11.222295761108398,1.2700068950653076,-1.6949008703231812,11.149922370910645,232.30601501464844, 36.80330276489258
347,1133857764,0.43558112,0.6106126,-0.42825845,0.50399995,11.855863571166992,1.3597259521484375,-2.167336940765381,4.827516555786133,237.18331909179688, 33.2139892578125
348,1133874431,0.44913965,0.58992743,-0.41590756,0.5265741,12.534154891967773,2.1086764335632324,-2.0133273601531982,-10.091644287109375,240.8468780517578, 29.51614761352539
349,1133891098,0.4652341,0.5669412,-0.40451697,0.5463525,13.01789379119873,3.3732964992523193,-2.201139450073242,-38.982032775878906,242.22012329101562, 22.197402954101562
350,1133907765,0.48384374,0.5415226,-0.39492965,0.56274253,13.826001167297363,3.7344422340393066,-2.6868910789489746,-72.79914855957031,239.51834106445312, 15.737466812133789
351,1133924432,0.5031674,0.5151655,-0.38619187,0.5764401,14.610674858093262,3.0739312171936035,-2.802206039428711,-89.21241760253906,232.42417907714844, 9.753586769104004
352,1133941099,0.52163,0.4890063,-0.37831366,0.5879235,14.558252334594727,2.743877649307251,-3.24358868598938,-94.79613494873047,218.75389099121094, 8.030481338500977
353,1133957766,0.53873295,0.4629581,-0.37207824,0.5974903,14.087860107421875,2.225032091140747,-3.8159396648406982,-101.4869155883789,202.6791229248047, 11.88554859161377
354,1133974433,0.5538133,0.437668,-0.36713007,0.60576665,13.775184631347656,1.78530752658844,-3.984683036804199,-100.86153411865234,185.7816619873047, 17.567520141601562
355,1133991100,0.5668474,0.41338235,-0.36343172,0.61295724,13.14815616607666,1.9819319248199463,-3.8239808082580566,-98.8528823852539,168.67527770996094, 23.17715835571289
356,1134007767,0.57825935,0.39055765,-0.36092857,0.6187176,12.085851669311523,2.33495831489563,-5.792332172393799,-97.18623352050781,149.99569702148438, 24.194854736328125
357,1134024434,0.5869603,0.37226757,-0.35895267,0.6229345,10.151385307312012,1.71533203125,-7.320756912231445,-77.97455596923828,118.0028305053711, 19.780757904052734
358,1134041101,0.5921741,0.36159566,-0.3570149,0.62539506,8.36604118347168,0.8270561695098877,-8.354181289672852,-42.81816864013672,72.37641906738281, 8.947643280029297
359,1134057768,0.59350204,0.35890135,-0.35563996,0.6264705,8.561530113220215,2.0924298763275146,-8.999985694885254,-6.500592231750488,23.038198471069336, 1.8470953702926636
360,1134074435,0.5936977,0.36062887,-0.3566463,0.6247184,8.254457473754883,4.352869033813477,-7.9568867683410645,-2.848097324371338,-15.246529579162598, -9.717124938964844
361,1134091102,0.59447455,0.3629658,-0.36068687,0.6202908,9.855568885803223,3.8761985301971436,-5.622372150421143,-21.428133010864258,-35.28279113769531, -17.041479110717773
362,1134107769,0.5936923,0.36784664,-0.36656195,0.6146957,8.917724609375,1.778338074684143,-4.24601411819458,-17.881990432739258,-60.280914306640625, -16.84450912475586
363,1134124436,0.59275013,0.37068063,-0.3703546,0.6116215,12.426798820495605,0.0013284403830766678,12.827964782714844,-10.681131362915039,-37.074073791503906, -5.972837448120117
364,1134141103,0.5949944,0.36844644,-0.37575677,0.6074832,10.126677513122559,-1.3253229856491089,5.439541339874268,-48.92497634887695,-17.06316375732422, -6.714869022369385
365,1134157770,0.59190315,0.3748783,-0.37481266,0.60715103,15.147425651550293,-0.9963251948356628,-0.19815407693386078,36.399478912353516,-31.484779357910156, -7.357539653778076
366,1134174437,0.59091705,0.38130656,-0.37703803,0.60271454,15.929512977600098,2.888782262802124,0.2417239546775818,7.164698600769043,-49.458045959472656, -24.69621467590332
367,1134191104,0.5919379,0.3864699,-0.38194034,0.5952917,13.527363777160645,-1.9632922410964966,0.27705731987953186,-22.083454132080078,-57.66935729980469, -34.82221603393555
368,1134207771,0.5926661,0.39273593,-0.38589147,0.58787197,11.320562362670898,-1.2908935546875,0.971965491771698,-12.902362823486328,-59.047054290771484, -39.06879425048828
369,1134224438,0.59436905,0.39698866,-0.39006346,0.5804965,10.058341979980469,0.5353269577026367,1.7727696895599365,-24.505313873291016,-49.10488510131836, -36.914947509765625
370,1134241105,0.5978587,0.3981615,-0.3951108,0.5726431,9.67483139038086,2.388871669769287,2.17099928855896,-46.74456787109375,-36.92268371582031, -35.35017776489258
371,1134257772,0.6009349,0.3981758,-0.39982,0.5661071,9.933816909790039,1.4247061014175415,2.1289358139038086,-45.471920013427734,-28.515295028686523, -26.065628051757812
372,1134274439,0.6016948,0.4001626,-0.40199056,0.5623495,9.17953109741211,1.2542369365692139,2.7528135776519775,-13.462881088256836,-24.48794937133789, -17.93730926513672
373,1134291106,0.6009634,0.4037168,-0.4025064,0.5602181,8.79282283782959,1.36714768409729,3.7075114250183105,8.017071723937988,-23.381065368652344, -14.330971717834473
374,1134307773,0.6006655,0.40705225,-0.4036424,0.5572991,8.399514198303223,1.7958157062530518,4.402971267700195,1.3436917066574097,-26.12601661682129, -16.92967987060547
375,1134324440,0.6026246,0.4079209,-0.40784034,0.55146223,8.15047836303711,1.859567403793335,4.0581207275390625,-34.989864349365234,-31.26664924621582, -22.208341598510742
376,1134341107,0.6068448,0.4063975,-0.4145933,0.5428562,8.375266075134277,1.098665714263916,4.0905351638793945,-68.69483184814453,-34.24992752075195, -28.37494468688965
377,1134357774,0.61173105,0.40504986,-0.42156518,0.53291893,8.035715103149414,1.1842364072799683,3.9517788887023926,-74.43221282958984,-37.67742919921875, -36.30488586425781
378,1134374441,0.616112,0.4046722,-0.42808113,0.52287006,8.363602638244629,1.1253852844238281,2.7654266357421875,-67.5953369140625,-41.124107360839844, -39.00395584106445
379,1134391108,0.619449,0.40460187,-0.43480304,0.5133486,9.995074272155762,-0.7581993341445923,0.8915272951126099,-62.57346725463867,-44.727630615234375, -33.35037612915039
380,1134407775,0.6203295,0.40709645,-0.43955296,0.5062186,11.558453559875488,-2.5478696823120117,0.2235751450061798,-30.699474334716797,-46.072601318359375, -27.667198181152344
381,1134424442,0.61937547,0.41270316,-0.4411327,0.5014501,11.048267364501953,-1.6371372938156128,1.2099624872207642,5.888805389404297,-42.30854415893555, -29.522727966308594
382,1134441109,0.6177551,0.4192317,-0.441711,0.49750873,10.110245704650879,0.8611032962799072,2.171982526779175,17.672420501708984,-40.898406982421875, -29.367416381835938
383,1134457776,0.6166799,0.42410207,-0.4436337,0.49298334,10.004701614379883,2.144585132598877,2.438671827316284,2.6874659061431885,-40.97659683227539, -24.80673599243164
384,1134474443,0.6154571,0.42816433,-0.44580907,0.48902178,9.77688217163086,1.2622570991516113,2.165837526321411,0.5552420020103455,-38.13004684448242, -18.710298538208008
385,1134491110,0.6128094,0.43363306,-0.44622242,0.4871473,9.678627967834473,1.1232974529266357,2.210853099822998,23.024627685546875,-33.6384162902832, -14.588845252990723
386,1134507777,0.6094708,0.43952513,-0.4458236,0.4864201,9.699431419372559,1.740921974182129,2.126516342163086,33.110164642333984,-30.346294403076172, -11.16620922088623
387,1134524444,0.60637796,0.44463864,-0.44595152,0.48551995,9.609447479248047,1.5361618995666504,1.6424087285995483,26.815185546875,-29.729665756225586, -8.735492706298828
388,1134541111,0.6036878,0.4491424,-0.44688416,0.48386663,9.49854850769043,1.482599139213562,1.6514832973480225,18.04781723022461,-32.12518310546875, -8.892364501953125
389,1134557778,0.60143995,0.45310193,-0.44834763,0.48161522,9.543130874633789,1.3424444198608398,1.526371717453003,10.820781707763672,-33.013893127441406, -9.536664962768555
390,1134574445,0.5995651,0.45649725,-0.45020565,0.47900635,9.524587631225586,1.188275933265686,1.342064380645752,4.919649600982666,-32.74828338623047, -9.284333229064941
391,1134591112,0.5975391,0.46003684,-0.45190972,0.47654033,9.557769775390625,0.8502960205078125,1.1289756298065186,6.9390788078308105,-32.614383697509766, -9.130875587463379
392,1134607779,0.595203,0.46400914,-0.45314828,0.4744318,9.473491668701172,1.3541780710220337,1.223091959953308,12.335675239562988,-31.95734977722168, -9.468057632446289
393,1134624446,0.59278625,0.46801314,-0.45437217,0.47234973,9.382905006408691,1.6604210138320923,1.3198914527893066,12.853616714477539,-32.17302322387695, -9.24450969696045
394,1134641113,0.59043384,0.47180438,-0.4559091,0.47003785,9.485390663146973,1.6855015754699707,1.3029918670654297,10.04603099822998,-33.30215072631836, -8.718921661376953
395,1134657780,0.58813673,0.47548622,-0.45753077,0.46762592,9.763282775878906,1.1415659189224243,1.0694268941879272,8.836209297180176,-33.449893951416016, -8.686111450195312
396,1134674447,0.58558726,0.479532,-0.45879462,0.4654509,9.908858299255371,1.0882396697998047,0.9281669855117798,13.029401779174805,-33.19699478149414, -9.234882354736328
397,1134691114,0.5827885,0.483962,-0.4597707,0.46341044,9.754056930541992,1.3614121675491333,1.0404810905456543,16.744474411010742,-33.61452865600586, -10.06011962890625
398,1134707781,0.5799837,0.48834008,-0.46087676,0.46123254,9.79428482055664,1.5947753190994263,1.1485834121704102,15.709100723266602,-34.450313568115234, -9.996726989746094
399,1134724448,0.5770021,0.49275646,-0.46212757,0.45901853,9.795801162719727,1.4024832248687744,0.8505736589431763,15.882941246032715,-35.83594512939453, -9.21711540222168
400,1134741115,0.573602,0.4974196,-0.4633089,0.45705497,10.052502632141113,1.278234839439392,0.6364239454269409,19.295494079589844,-36.82379913330078, -7.923723220825195
401,1134757782,0.56967866,0.502387,-0.46432588,0.45549423,10.204341888427734,1.2921578884124756,0.5104740262031555,24.085166931152344,-37.4239387512207, -6.225364685058594
402,1134774449,0.5654477,0.5074445,-0.46540755,0.45405385,10.19970417022705,1.3793230056762695,0.3796464800834656,25.682798385620117,-38.52812194824219, -4.85728120803833
403,1134791116,0.56088185,0.5126947,-0.46641433,0.45278406,10.114728927612305,1.4686096906661987,0.4664570093154907,28.381380081176758,-39.3173713684082, -4.029001235961914
404,1134807783,0.5562831,0.51790315,-0.4673462,0.4515673,10.109615325927734,1.7293413877487183,0.5914517641067505,28.739038467407227,-38.820030212402344, -3.8542308807373047
405,1134824450,0.551267,0.5235304,-0.46806195,0.45048708,10.019180297851562,1.7386904954910278,0.6489027738571167,32.937767028808594,-40.15262985229492, -4.152038097381592
406,1134841117,0.5454145,0.52996904,-0.46858427,0.44953826,10.104782104492188,1.8470277786254883,0.6302754878997803,40.0474853515625,-44.15565490722656, -4.370989799499512
407,1134857784,0.53874576,0.53721195,-0.4693929,0.448137,10.2579927444458,2.2951302528381348,0.7728086709976196,43.69577407836914,-51.9990119934082, -5.092580318450928
408,1134874451,0.5317336,0.5446099,-0.47100204,0.44588858,10.766494750976562,1.767680048942566,0.4435647130012512,40.339515686035156,-59.684181213378906, -4.714263439178467
409,1134891118,0.52387166,0.55271304,-0.47298285,0.4431185,11.286188125610352,1.0908814668655396,0.7651057243347168,43.271846771240234,-67.91637420654297, -4.909388542175293
410,1134907785,0.5155259,0.5613843,-0.47564697,0.4391365,11.489245414733887,1.0382864475250244,1.0758575201034546,41.13530731201172,-78.29484558105469, -7.055597305297852
411,1134924452,0.5070816,0.5700548,-0.47968128,0.43337268,11.577096939086914,0.8177675008773804,1.202897071838379,31.54933738708496,-90.35874938964844, -7.7868475914001465
412,1134941119,0.49828464,0.5787623,-0.48485678,0.42621675,12.453961372375488,1.29007887840271,0.811188817024231,25.070653915405273,-101.07928466796875, -7.243869781494141
413,1134957786,0.48949692,0.5871914,-0.49020615,0.41868508,13.356671333312988,0.71441650390625,0.9279348850250244,22.318944931030273,-102.33470153808594, -6.942052841186523
414,1134974453,0.4803474,0.5955698,-0.49585205,0.41072348,13.61119556427002,0.6871841549873352,1.8800816535949707,21.30784797668457,-106.15534973144531, -5.985743045806885
415,1134991120,0.46966523,0.60443467,-0.50159657,0.4030812,13.319164276123047,0.7650152444839478,2.372206926345825,30.001258850097656,-111.79293823242188, -1.8645387887954712
416,1135007787,0.4588091,0.61303824,-0.5070381,0.39571574,12.628742218017578,1.322830080986023,2.1461057662963867,31.676515579223633,-109.56159973144531, -0.8518277406692505
417,1135024454,0.4468045,0.6222629,-0.51164997,0.3890617,11.423676490783691,0.9969271421432495,2.114753007888794,43.21674346923828,-109.66148376464844, -1.147607684135437
418,1135041121,0.43333173,0.6323114,-0.5151128,0.38349047,11.04830551147461,1.8550060987472534,1.2771997451782227,58.91305160522461,-108.88973999023438, -1.709151029586792
419,1135057788,0.4186895,0.6432479,-0.517695,0.37805185,11.136713981628418,3.2854626178741455,0.27748236060142517,69.43804168701172,-112.19163513183594, -5.2010674476623535
420,1135074455,0.40454745,0.6541657,-0.5198514,0.37170312,11.101142883300781,3.7426249980926514,-0.7089323997497559,65.04389190673828,-113.17658233642578, -10.92907428741455
421,1135091122,0.3923028,0.66397375,-0.5218183,0.36461392,11.395612716674805,3.879448175430298,0.5263804197311401,51.26703643798828,-106.37188720703125, -14.713245391845703
422,1135107789,0.38105723,0.672879,-0.52317625,0.3582121,10.474858283996582,2.092289924621582,-1.4889039993286133,48.27053451538086,-95.7613754272461, -14.89438533782959
423,1135124456,0.36699983,0.6832108,-0.52299905,0.35356238,9.718801498413086,2.0285110473632812,-1.9687130451202393,75.1047592163086,-97.27161407470703, -15.609543800354004
424,1135141123,0.35295323,0.6933686,-0.5216487,0.3500666,9.059504508972168,1.6960171461105347,-1.7775166034698486,81.61952209472656,-88.43528747558594, -17.604129791259766
425,1135157790,0.33750665,0.7034922,-0.5183678,0.34997553,7.457229137420654,0.07653069496154785,-2.7762393951416016,105.07313537597656,-72.46521759033203, -15.048042297363281
426,1135174457,0.32062027,0.71376294,-0.511951,0.35447365,7.631674766540527,3.354485273361206,0.056888312101364136,136.28236389160156,-48.47652816772461, -16.625165939331055
427,1135191124,0.31520352,0.7191948,-0.5063795,0.3563505,7.288454532623291,5.449071407318115,4.201209545135498,58.04301834106445,-11.04842472076416, -29.16185188293457
428,1135207791,0.32130462,0.7185844,-0.50335264,0.3564215,6.461824417114258,1.9543840885162354,4.5100932121276855,-24.51079750061035,29.382610321044922, -27.657127380371094
429,1135224458,0.33147326,0.7146687,-0.50054204,0.35893184,6.3638763427734375,-0.23286700248718262,3.663767099380493,-43.991024017333984,63.10538101196289, -19.727746963500977
430,1135241125,0.3419276,0.7090432,-0.49653977,0.3657756,6.7421875,-0.8595937490463257,2.791837692260742,-31.43902587890625,92.29373168945312, -10.535743713378906
431,1135257792,0.35169208,0.7023929,-0.49024734,0.37764344,7.3450822830200195,0.11445991694927216,2.105074405670166,-7.57707405090332,122.37484741210938, -4.663564205169678
432,1135274459,0.36259046,0.6941358,-0.48231328,0.3925274,7.54410457611084,1.2409058809280396,1.3935102224349976,-2.5109708309173584,148.89048767089844, -2.829848051071167
433,1135291126,0.37629867,0.68345517,-0.4737192,0.40850788,8.26266860961914,1.6979165077209473,0.5590035319328308,-16.546207427978516,171.61911010742188, -2.7915515899658203
434,1135307793,0.39181054,0.67016876,-0.46465984,0.4259692,9.40864372253418,0.8078352808952332,-0.10928955674171448,-25.63543701171875,192.97120666503906, 2.2771642208099365
435,1135324460,0.406863,0.65550333,-0.45432097,0.44538805,10.035968780517578,0.21739712357521057,-0.6241464614868164,-17.235475540161133,208.00730895996094, 7.404788970947266
436,1135341127,0.4212523,0.6399794,-0.4425634,0.4659513,10.324862480163574,0.8635226488113403,-0.8929757475852966,-8.731910705566406,217.69093322753906, 8.920202255249023
437,1135357794,0.43661267,0.62265563,-0.43057913,0.48607734,10.918604850769043,2.0819931030273438,-1.03594172000885,-18.82838249206543,225.1488800048828, 9.020606994628906
438,1135374461,0.45454815,0.6024597,-0.41929147,0.5046021,11.728382110595703,2.3512959480285645,-1.2711670398712158,-45.551788330078125,233.43324279785156, 7.0943732261657715
439,1135391128,0.4740189,0.5798668,-0.40834323,0.5218396,12.502538681030273,1.699741244316101,-0.8778197765350342,-64.29827880859375,239.79531860351562, 6.06186580657959
440,1135407795,0.49405348,0.5556289,-0.39746362,0.5377829,13.163848876953125,1.8846735954284668,-0.5303239822387695,-75.79438781738281,241.9080352783203, 4.708110809326172
441,1135424462,0.51511645,0.5292466,-0.38753027,0.5517005,13.703025817871094,2.5081729888916016,-0.8267973065376282,-96.05168914794922,241.7082977294922, 3.4942967891693115
442,1135441129,0.5367639,0.5006162,-0.37873307,0.5637635,14.835723876953125,2.440650701522827,-1.2841074466705322,-115.4017562866211,241.0419921875, 4.830510139465332
443,1135457796,0.55765533,0.47067028,-0.37072775,0.57450074,15.679166793823242,1.7512925863265991,-1.5040760040283203,-124.18218231201172,236.71165466308594, 9.016361236572266
444,1135474463,0.5768248,0.44026282,-0.36351815,0.5842059,16.047245025634766,1.7252479791641235,-1.6022214889526367,-126.15795135498047,227.78346252441406, 15.6060209274292
445,1135491130,0.5943816,0.40978947,-0.35691407,0.59278625,15.218910217285156,2.0559442043304443,-3.079206943511963,-126.7850341796875,218.2458038330078, 19.61563491821289
446,1135507797,0.60916436,0.38157946,-0.35099268,0.6000999,13.277596473693848,1.3443753719329834,-5.975184917449951,-115.60966491699219,195.89352416992188, 22.114013671875
447,1135524464,0.6190836,0.3600229,-0.34481162,0.6068148,11.1392822265625,0.5074025392532349,-6.59830379486084,-75.35240173339844,156.26651000976562, 22.934722900390625
448,1135541131,0.62496775,0.3459459,-0.33897445,0.6122362,9.064456939697266,0.6663286685943604,-7.845032691955566,-38.02552032470703,110.88252258300781, 17.382129669189453
449,1135557798,0.6259434,0.3421297,-0.33314463,0.6165686,8.270153999328613,2.249852418899536,-8.625673294067383,15.169962882995605,53.68986892700195, 9.471291542053223
450,1135574465,0.6256068,0.34366038,-0.33151123,0.61693937,8.464998245239258,4.269097328186035,-7.932931900024414,14.394842147827148,0.7049325108528137, -4.382156848907471
451,1135591132,0.62485117,0.34736088,-0.3330316,0.6148101,10.588957786560059,2.8433926105499268,-5.59072208404541,5.630619525909424,-28.862855911254883, -10.83105754852295
452,1135607799,0.62396467,0.3536462,-0.33525744,0.61090505,7.97844934463501,2.4381725788116455,-10.843881607055664,9.990218162536621,-47.303009033203125, -22.12810707092285
453,1135624466,0.61892885,0.3647493,-0.33595926,0.60911125,12.487298965454102,0.48251470923423767,1.2289592027664185,52.008331298828125,-65.35709381103516, -10.444490432739258
454,1135641133,0.6178701,0.3686208,-0.3385447,0.6064181,12.158124923706055,1.7937065362930298,11.898552894592285,1.2931853532791138,-36.12754440307617, -9.50233268737793
455,1135657800,0.6188103,0.36918113,-0.34440488,0.60180104,12.235713958740234,-0.7319105863571167,1.5182037353515625,-35.97217559814453,-36.486141204833984, -9.995875358581543
456,1135674467,0.6170354,0.37612653,-0.34715348,0.5977297,16.331666946411133,0.866830050945282,-0.2591635584831238,12.253056526184082,-54.68758010864258, -19.46388053894043
457,1135691134,0.6181877,0.38189358,-0.35236844,0.58977765,14.73055362701416,-0.2888905107975006,1.375958800315857,-19.717987060546875,-63.312583923339844, -38.765602111816406
458,1135707801,0.61881393,0.38913798,-0.35674435,0.5816996,11.956336975097656,-1.6180435419082642,1.2723090648651123,-8.963457107543945,-67.31317901611328, -42.95444869995117
459,1135724468,0.6198174,0.39481446,-0.36139423,0.57388353,10.85733413696289,1.3530070781707764,1.443822979927063,-17.0966739654541,-60.560604095458984, -38.78074645996094
460,1135741135,0.62348783,0.39523822,-0.36849436,0.5650325,10.214845657348633,2.545353889465332,2.2621281147003174,-58.967655181884766,-46.44492721557617, -34.004337310791016
461,1135757802,0.62599623,0.39528537,-0.37418926,0.55844486,9.834609985351562,1.4932808876037598,2.012580156326294,-46.236568450927734,-35.742977142333984, -22.63483428955078
462,1135774469,0.6249971,0.3993261,-0.3752204,0.555992,8.91507625579834,1.0633068084716797,2.8827695846557617,9.025201797485352,-28.780668258666992, -14.314327239990234
463,1135791136,0.62127846,0.40644184,-0.37305427,0.5564611,8.72492790222168,1.9906458854675293,3.2802162170410156,49.464046478271484,-25.788511276245117, -8.076287269592285
464,1135807803,0.6179948,0.41288707,-0.37184486,0.55618197,8.49095344543457,2.45776104927063,4.161313533782959,39.802574157714844,-28.2860107421875, -8.542830467224121
465,1135824470,0.6173421,0.4158252,-0.37412223,0.5531824,8.64355754852295,1.6556897163391113,4.125450611114502,-2.8577733039855957,-30.693513870239258, -11.290236473083496
466,1135841137,0.61764604,0.41781822,-0.37746787,0.5490533,9.184843063354492,0.047050461173057556,3.5593175888061523,-16.573822021484375,-32.4100456237793, -14.232603073120117
467,1135857804,0.6168027,0.4220054,-0.3791942,0.5455984,9.380210876464844,0.1867634803056717,3.3644421100616455,3.9036457538604736,-34.86073303222656, -17.390283584594727
468,1135874471,0.6153322,0.427264,-0.38009042,0.54253393,9.152239799499512,1.7402461767196655,3.0747807025909424,14.399518966674805,-35.86479568481445, -18.590211868286133
469,1135891138,0.61460125,0.4312334,-0.381896,0.5389423,9.088271141052246,2.2897486686706543,3.0240163803100586,2.0003304481506348,-34.52022171020508, -17.536069869995117
470,1135907805,0.61425525,0.43444505,-0.38412598,0.5351592,9.128541946411133,1.8249061107635498,3.1081371307373047,-4.419850826263428,-33.06826400756836, -16.516170501708984
471,1135924472,0.61356795,0.43798435,-0.3860323,0.5316795,9.320975303649902,1.5354483127593994,3.003765821456909,-0.02515178918838501,-32.909053802490234, -15.808053016662598
472,1135941139,0.6123398,0.44205144,-0.3875537,0.52861404,9.601217269897461,1.3042025566101074,2.6031060218811035,6.337182998657227,-33.410804748535156, -14.643620491027832
473,1135957806,0.61097723,0.44618663,-0.38918525,0.5255087,9.468537330627441,1.7043699026107788,2.5288889408111572,6.526142120361328,-34.608245849609375, -14.171807289123535
474,1135974473,0.6101901,0.4495942,-0.39153504,0.5217601,9.342242240905762,1.9428740739822388,2.813262701034546,-2.611164093017578,-35.438472747802734, -14.802680015563965
475,1135991140,0.6099924,0.45231584,-0.39443725,0.51743513,9.152994155883789,2.416609287261963,3.0378522872924805,-10.842724800109863,-35.50189971923828, -15.777997970581055
476,1136007807,0.61052,0.45406,-0.39802012,0.51251817,9.085992813110352,2.2583510875701904,2.3397552967071533,-21.223968505859375,-34.76806640625, -16.067659378051758
477,1136024474,0.610589,0.45578942,-0.4014256,0.5082268,9.969968795776367,0.8908790946006775,1.610024333000183,-17.515687942504883,-33.285255432128906, -12.334607124328613
478,1136041141,0.60929084,0.45904166,-0.40350336,0.5052035,10.011238098144531,0.5258430242538452,1.6329095363616943,1.3018540143966675,-32.83769226074219, -10.603740692138672
479,1136057808,0.60731274,0.463181,-0.40488735,0.5026937,9.70395565032959,1.2131438255310059,1.7977583408355713,11.001147270202637,-33.2846565246582, -10.751659393310547
480,1136074475,0.6056985,0.46675235,-0.4067785,0.4998031,9.585515022277832,1.4731924533843994,1.6686383485794067,4.659631252288818,-33.64775085449219, -10.409100532531738
481,1136091142,0.60414237,0.4700687,-0.4088227,0.496902,9.698369979858398,1.5529898405075073,1.5372607707977295,2.8583574295043945,-33.288272857666016, -9.451881408691406
482,1136107809,0.6022215,0.47365186,-0.41057482,0.49438012,9.60612678527832,1.7293291091918945,1.5197780132293701,7.210357666015625,-32.79403305053711, -8.327108383178711
483,1136124476,0.59999645,0.47750765,-0.41198286,0.4922,9.379310607910156,2.0484700202941895,1.5581763982772827,11.465849876403809,-32.0502815246582, -7.77110481262207
484,1136141143,0.5976367,0.4813702,-0.41334918,0.4901587,9.3783540725708,2.1613242626190186,1.571384310722351,12.472009658813477,-31.83563232421875, -6.898924350738525
485,1136157810,0.5954185,0.48499456,-0.41498563,0.48789763,9.358759880065918,2.1065239906311035,1.5920060873031616,9.492279052734375,-32.47760009765625, -6.7083659172058105
486,1136174477,0.5932154,0.48853347,-0.41683134,0.48547107,9.596540451049805,1.747398853302002,1.416299819946289,7.9197821617126465,-33.56611633300781, -6.494986057281494
487,1136191144,0.5908494,0.49223417,-0.41867563,0.48302495,9.755818367004395,1.723296880722046,1.3373032808303833,9.077086448669434,-34.64186096191406, -6.502697467803955
488,1136207811,0.5884106,0.49602804,-0.4206059,0.4804372,9.650679588317871,1.8225847482681274,1.374327540397644,9.010650634765625,-35.997344970703125, -6.816879749298096
489,1136224478,0.58603936,0.4998324,-0.42273965,0.47751102,9.47519588470459,2.013688564300537,1.3759304285049438,7.173932075500488,-37.82400131225586, -7.747000217437744
490,1136241145,0.58370835,0.50356007,-0.42519352,0.4742599,9.569599151611328,2.023988723754883,1.195551872253418,4.733299255371094,-39.870357513427734, -7.866435527801514
491,1136257812,0.5813876,0.50717884,-0.4277943,0.47090346,9.77523422241211,1.9112632274627686,0.891158938407898,3.4758365154266357,-40.44889831542969, -7.496419429779053
492,1136274479,0.5783407,0.5115829,-0.42965093,0.46819335,9.748412132263184,1.6420344114303589,0.6440504789352417,13.459168434143066,-39.90479278564453, -7.4683661460876465
493,1136291146,0.5748036,0.5165596,-0.43106347,0.46578026,9.7153902053833,2.220214366912842,0.8209721446037292,19.768198013305664,-40.391212463378906, -7.966772079467773
494,1136307813,0.5715687,0.52117187,-0.43291602,0.46289614,9.613916397094727,2.4029343128204346,0.7502850294113159,14.450909614562988,-41.74655532836914, -8.154257774353027
495,1136324480,0.5684315,0.5255673,-0.43510887,0.45972288,9.684237480163574,2.1252083778381348,0.5286966562271118,11.306775093078613,-43.14598846435547, -7.735295295715332
496,1136341147,0.5647735,0.53039336,-0.43710846,0.4567824,10.012203216552734,1.9248082637786865,0.4665224850177765,16.180255889892578,-44.474853515625, -7.167489528656006
497,1136357814,0.56048596,0.5356575,-0.43898442,0.4541139,10.46205997467041,1.9971204996109009,0.5654020309448242,21.384361267089844,-46.277095794677734, -5.904537200927734
498,1136374481,0.5557808,0.5411118,-0.4410621,0.45140883,10.68257999420166,1.7844704389572144,0.5523039102554321,22.91768455505371,-49.04942321777344, -4.57565450668335
499,1136391148,0.55052215,0.5468646,-0.44342953,0.44859204,11.015504837036133,1.3254164457321167,0.6860241889953613,24.880361557006836,-53.18452835083008, -3.11633563041687
500,1136407815,0.5450667,0.5526416,-0.44657958,0.44503528,11.118086814880371,1.3520270586013794,0.8897241353988647,21.042978286743164,-59.61275863647461, -2.449030876159668
501,1136424482,0.54011875,0.55776894,-0.45101547,0.44017112,11.312251091003418,1.2541016340255737,0.731630265712738,8.7340726852417,-65.8641128540039, -2.027519941329956
502,1136441149,0.5351401,0.5628462,-0.45581976,0.43480778,11.59266471862793,0.7459871768951416,0.4618067741394043,6.004403591156006,-69.10090637207031, -2.226818799972534
503,1136457816,0.5294,0.56851023,-0.4601629,0.4298628,11.868327140808105,0.7738003134727478,0.23533481359481812,13.80096435546875,-69.9358139038086, -2.0443525314331055
504,1136474483,0.5228177,0.5745038,-0.46412927,0.42566538,12.293336868286133,1.0581450462341309,0.2695382237434387,21.771678924560547,-69.29108428955078, 0.6402590274810791
505,1136491150,0.5148606,0.5811644,-0.46772206,0.42237714,12.045494079589844,0.7990520596504211,1.0902512073516846,33.59524917602539,-70.7078628540039, 4.318836212158203
506,1136507817,0.50532806,0.58889514,-0.4712432,0.41925675,11.561366081237793,0.7582355737686157,1.414686918258667,44.427459716796875,-77.9752426147461, 5.751399040222168
507,1136524484,0.49404833,0.5977163,-0.4746667,0.41634482,11.155506134033203,0.1464233696460724,1.617238163948059,56.248741149902344,-85.61653137207031, 7.574947834014893
508,1136541151,0.48135957,0.60726166,-0.47843373,0.41307095,10.832535743713379,0.6099587082862854,2.3076047897338867,62.3372802734375,-94.96590423583984, 9.416640281677246
509,1136557818,0.46892095,0.6166126,-0.4825844,0.40867433,10.4765625,0.8827914595603943,1.9257376194000244,55.86819076538086,-99.57537078857422, 7.225131511688232
510,1136574485,0.45621836,0.6260675,-0.48662916,0.403852,10.426162719726562,1.0835729837417603,1.862427830696106,56.209007263183594,-102.23212432861328, 5.795811176300049
511,1136591152,0.44431487,0.6354425,-0.4905863,0.39764625,10.638467788696289,2.6563878059387207,1.1296939849853516,48.13475036621094,-105.04296112060547, -0.8742795586585999
512,1136607819,0.43386707,0.6446337,-0.4948037,0.3890709,11.472293853759766,3.696990728378296,1.4498310089111328,32.51346206665039,-110.8011474609375, -10.330130577087402
513,1136624486,0.4258603,0.65274924,-0.4995786,0.3781309,12.089621543884277,3.842144012451172,1.2764371633529663,8.957327842712402,-111.78958892822266, -17.773061752319336
514,1136641153,0.4179623,0.6609157,-0.50404406,0.36665747,12.738228797912598,3.610647678375244,0.003972411155700684,7.600316047668457,-113.06470489501953, -21.173446655273438
515,1136657820,0.40873772,0.66970116,-0.5083694,0.35495713,13.000243186950684,2.984917402267456,-0.34561625123023987,14.982373237609863,-119.87650299072266, -21.25665855407715
516,1136674487,0.39844483,0.67844033,-0.5121664,0.34445027,12.149397850036621,2.2611474990844727,-0.27061694860458374,25.23891258239746,-116.54227447509766, -17.563552856445312
517,1136691154,0.38716188,0.6870555,-0.5148304,0.33616978,10.839599609375,1.7694257497787476,-2.20733380317688,40.0450439453125,-106.2710952758789, -13.967877388000488
518,1136707821,0.3745505,0.69569767,-0.51490206,0.33255515,7.944824695587158,0.16551223397254944,-2.3812813758850098,68.90306091308594,-82.10585021972656, -10.818644523620605
519,1136724488,0.36126667,0.70391285,-0.51094407,0.3360498,10.091010093688965,2.776905059814453,4.638624668121338,105.39974212646484,-39.13392639160156, -8.738125801086426
520,1136741155,0.35847124,0.7054809,-0.50836813,0.3396425,6.391594886779785,0.8828317523002625,6.128283500671387,35.28846740722656,10.062873840332031, -2.678767681121826
521,1136757822,0.357107,0.7043771,-0.5049535,0.34835282,5.299771308898926,-1.7999777793884277,3.7742881774902344,41.613731384277344,48.148902893066406, 11.865968704223633
522,1136774489,0.3545849,0.7025346,-0.49880534,0.3631917,5.910758972167969,-0.786378026008606,2.650911569595337,73.22935485839844,82.26296997070312, 19.00657844543457
523,1136791156,0.3538697,0.69875354,-0.4905611,0.38192892,6.373344421386719,0.4650956690311432,2.501667022705078,78.37833404541016,117.22035217285156, 20.523263931274414
524,1136807823,0.35706156,0.6921124,-0.48132798,0.40225753,6.647900581359863,1.1447783708572388,2.1826062202453613,60.61365509033203,147.93997192382812, 19.039371490478516
525,1136824490,0.3640348,0.6824961,-0.47169358,0.42330024,7.227231502532959,1.2405986785888672,0.9301132559776306,38.79140853881836,173.04933166503906, 18.279199600219727
526,1136841157,0.37347797,0.6704534,-0.46108967,0.44542444,8.330838203430176,1.496305227279663,-0.29252615571022034,27.45551300048828,195.61549377441406, 17.127105712890625
527,1136857824,0.38465923,0.6564527,-0.44908705,0.46843147,9.394242286682129,1.8808808326721191,-0.8906430602073669,21.49785614013672,214.784423828125, 13.839229583740234
528,1136874491,0.3976366,0.64068735,-0.43608242,0.49115905,10.078777313232422,2.161541223526001,-1.0709481239318848,11.086071968078613,227.40484619140625, 8.2506103515625
529,1136891158,0.41273263,0.6228825,-0.42286527,0.51269305,11.047234535217285,2.3977158069610596,-1.3063197135925293,-6.6869587898254395,235.97328186035156, 3.02091383934021
530,1136907825,0.43082383,0.6022654,-0.41056132,0.53207755,11.897438049316406,2.2950737476348877,-1.8835382461547852,-36.970008850097656,242.80718994140625, -1.5432243347167969
531,1136924492,0.4513659,0.57879055,-0.3992999,0.5493907,12.763832092285156,2.046853542327881,-2.144904613494873,-65.25418090820312,248.53384399414062, -4.258322238922119
532,1136941159,0.47380343,0.55261517,-0.38898265,0.564641,13.691217422485352,2.075129985809326,-2.1074719429016113,-90.4195556640625,252.82418823242188, -6.650825023651123
533,1136957826,0.49684095,0.52464837,-0.37962475,0.57773554,13.986739158630371,2.2728583812713623,-2.625778913497925,-108.03299713134766,250.09295654296875, -7.571188926696777
534,1136974493,0.51950747,0.4952529,-0.37130052,0.5890438,14.904440879821777,2.5285403728485107,-2.546940803527832,-120.35198974609375,244.85818481445312, -4.744358539581299
535,1136991160,0.54083425,0.46486735,-0.36422604,0.5989461,15.35976791381836,1.9246203899383545,-3.0636019706726074,-127.98522186279297,236.23304748535156, 2.4427473545074463
536,1137007827,0.5594859,0.4353117,-0.35790804,0.6077675,14.883886337280273,1.8964320421218872,-4.037450790405273,-122.1724853515625,219.88870239257812, 9.777213096618652
537,1137024494,0.5753942,0.40703207,-0.35262036,0.615553,13.621678352355957,1.914835810661316,-4.558244705200195,-115.90946197509766,200.79397583007812, 17.20130157470703
538,1137041161,0.5888621,0.38055864,-0.34880415,0.621894,12.242392539978027,1.777361273765564,-4.242591857910156,-111.66890716552734,177.42630004882812, 21.557186126708984
539,1137057828,0.5982482,0.3593241,-0.34417626,0.6281146,11.714247703552246,0.7578803300857544,-4.805471420288086,-76.59540557861328,148.2594451904297, 23.840438842773438
540,1137074495,0.60331076,0.3462588,-0.33792043,0.6339802,10.24578857421875,1.0705105066299438,-7.4339094161987305,-26.120561599731445,108.62744140625, 17.7010498046875
541,1137091162,0.60311633,0.34450647,-0.33086994,0.6388201,7.913760662078857,2.264221668243408,-9.230454444885254,34.39849090576172,48.03325653076172, 8.190461158752441
542,1137107829,0.60175425,0.34841043,-0.32728332,0.63983417,8.347467422485352,4.027451038360596,-8.36330509185791,36.69482421875,-2.8081774711608887, -7.195808410644531
543,1137124496,0.60021514,0.35391775,-0.32810634,0.6378325,9.246441841125488,2.0891764163970947,-7.826977252960205,17.55474853515625,-35.64861297607422, -11.916675567626953
544,1137141163,0.59869236,0.36155498,-0.329286,0.63436294,11.082669258117676,2.873471975326538,-4.150752067565918,21.422382354736328,-49.91740798950195, -21.97173500061035
545,1137157830,0.5974439,0.367613,-0.33266258,0.63028336,9.078508377075195,0.5962018966674805,2.684060573577881,3.26731276512146,-52.90467834472656, -16.626445770263672
546,1137174497,0.5991348,0.36797783,-0.3365069,0.626413,10.061137199401855,1.4454585313796997,12.565982818603516,-29.0977783203125,-22.892107009887695, -14.298932075500488
547,1137191164,0.6027297,0.36291614,-0.34511077,0.6212147,10.995004653930664,-4.257282733917236,4.469640254974365,-79.84183502197266,-18.131786346435547, -3.3600046634674072
548,1137207831,0.6011867,0.36703697,-0.34645936,0.6195356,14.165435791015625,-1.99057936668396,1.6332359313964844,10.384075164794922,-30.687602996826172, -6.749471664428711
549,1137224498,0.6003898,0.37264743,-0.34888563,0.61558497,15.721076965332031,0.052640147507190704,0.8613929748535156,4.6617255210876465,-45.40647506713867, -20.160585403442383
550,1137241165,0.60006565,0.38002107,-0.35129768,0.6099963,13.830963134765625,0.15613752603530884,0.4044133722782135,6.85688591003418,-55.827064514160156, -33.19194793701172
551,1137257832,0.6014969,0.38583198,-0.35551906,0.60244626,11.703119277954102,-0.3043701946735382,1.4461839199066162,-16.506855010986328,-57.58269500732422, -40.14389419555664
552,1137274499,0.60427266,0.38897192,-0.361343,0.5941268,9.549549102783203,1.3310753107070923,2.1966042518615723,-39.643375396728516,-51.87691116333008, -38.11668395996094
553,1137291166,0.60796577,0.3898891,-0.36768556,0.58580863,8.94822883605957,3.4061975479125977,2.8836915493011475,-53.453094482421875,-42.659934997558594, -34.93540573120117
554,1137307833,0.6117179,0.38881463,-0.37478352,0.5780674,9.569814682006836,2.5457561016082764,2.9668450355529785,-63.529415130615234,-36.098148345947266, -25.671344757080078
555,1137324500,0.6132543,0.38944215,-0.37926525,0.5730725,8.973727226257324,0.46630293130874634,3.0751757621765137,-32.98080062866211,-30.223909378051758, -16.672502517700195
556,1137341167,0.611819,0.39396295,-0.37935755,0.5714531,8.64846420288086,-0.17841635644435883,3.4250714778900146,17.48836326599121,-25.765901565551758, -12.636690139770508
557,1137357834,0.6089167,0.4006586,-0.37724155,0.5712985,8.703004837036133,0.1949818730354309,4.13762903213501,43.10895538330078,-24.881317138671875, -12.374687194824219
558,1137374501,0.6070353,0.4062389,-0.3762748,0.56999594,8.566275596618652,0.9510080218315125,4.857595920562744,28.135669708251953,-25.83238983154297, -15.140113830566406
559,1137391168,0.6074316,0.40911302,-0.3780051,0.5663617,8.747605323791504,1.1085553169250488,4.480878829956055,-6.122548580169678,-27.11646842956543, -19.263595581054688
560,1137407835,0.6090868,0.41055158,-0.38131884,0.56129915,9.350631713867188,0.4053973853588104,3.5378031730651855,-25.539058685302734,-28.8984317779541, -21.941373825073242
561,1137424502,0.6097727,0.41358522,-0.3833813,0.5569054,9.507316589355469,0.026302900165319443,3.49416184425354,-9.540693283081055,-30.47301483154297, -23.114011764526367
562,1137441169,0.6096582,0.41796374,-0.3842382,0.55315834,9.157272338867188,1.164401888847351,2.8204963207244873,4.693622589111328,-30.845718383789062, -24.319374084472656
563,1137457836,0.6095047,0.4221064,-0.38527247,0.5494501,9.65116024017334,1.5139769315719604,2.35849928855896,3.244767904281616,-30.687551498413086, -22.87393569946289
564,1137474503,0.6097217,0.42532092,-0.38702857,0.54548186,9.934804916381836,1.1664663553237915,1.9812663793563843,-5.138085842132568,-29.97979736328125, -20.80792236328125
565,1137491170,0.6095342,0.4286312,-0.38873756,0.54187316,10.03441333770752,1.0857267379760742,2.0413920879364014,-2.4215247631073,-30.165536880493164, -18.176334381103516
566,1137507837,0.60889184,0.43208396,-0.39028993,0.53872794,9.881610870361328,1.268190860748291,2.0750341415405273,1.3378143310546875,-29.890512466430664, -15.384074211120605
567,1137524504,0.60789156,0.43555492,-0.3916996,0.536033,9.523244857788086,1.4668071269989014,2.1563453674316406,4.213874340057373,-28.985761642456055, -12.64808177947998
568,1137541171,0.60659695,0.43893936,-0.39302745,0.53376186,9.479766845703125,1.548153042793274,2.417097806930542,6.177347660064697,-27.853988647460938, -9.804034233093262
569,1137557838,0.6052235,0.44209692,-0.39444834,0.5316628,9.376084327697754,1.676391839981079,2.5940871238708496,5.594002723693848,-27.111005783081055, -7.903946876525879
570,1137574505,0.6038559,0.44502774,-0.39598313,0.52962816,9.366769790649414,1.412345290184021,2.54667592048645,4.3918023109436035,-26.555522918701172, -6.696509838104248
571,1137591172,0.6024089,0.4478778,-0.39756346,0.52768606,9.527290344238281,1.2838413715362549,2.278876781463623,4.388523578643799,-26.395275115966797, -5.665493011474609
572,1137607839,0.6008726,0.45069548,-0.39914227,0.52584344,9.600909233093262,1.2299683094024658,2.0756165981292725,4.80900764465332,-26.218841552734375, -4.848714351654053
573,1137624506,0.5993673,0.4534542,-0.40068722,0.5240114,9.516026496887207,1.279463768005371,2.0314438343048096,4.6225972175598145,-25.756319046020508, -4.865015983581543
574,1137641173,0.5979605,0.4560785,-0.40224853,0.52214146,9.412535667419434,1.4497908353805542,1.9713859558105469,3.600968837738037,-25.194339752197266, -4.957183361053467
575,1137657840,0.5966753,0.45861182,-0.4038787,0.5201307,9.305864334106445,1.6039091348648071,2.097935438156128,2.2104134559631348,-25.265989303588867, -5.507435321807861
576,1137674507,0.59553933,0.46095532,-0.40575227,0.517898,9.271992683410645,1.7571145296096802,2.0939643383026123,-0.5232943296432495,-25.88134765625, -5.65726900100708
577,1137691174,0.594548,0.463188,-0.40779307,0.5154363,9.246308326721191,1.6866475343704224,2.0053699016571045,-2.669144868850708,-26.505359649658203, -6.270606994628906
578,1137707841,0.59345824,0.46551383,-0.40980247,0.51299745,9.441837310791016,1.5254193544387817,1.855149507522583,-1.7951605319976807,-26.92024803161621, -6.188774585723877
579,1137724508,0.5921666,0.4680385,-0.4116549,0.51070446,9.581555366516113,1.6024904251098633,1.9457372426986694,0.6274296045303345,-27.093416213989258, -5.946568012237549
580,1137741175,0.59089416,0.47049522,-0.41354513,0.5083884,9.548345565795898,1.597651720046997,1.941853642463684,0.09309601038694382,-27.03855323791504, -5.794952869415283
581,1137757842,0.58952475,0.47292352,-0.41541907,0.50619274,9.799866676330566,1.1696052551269531,1.6673794984817505,0.69280606508255,-26.76856231689453, -4.940343379974365
582,1137774509,0.5874997,0.47623008,-0.41658312,0.50448775,9.687347412109375,1.2112278938293457,1.6694772243499756,10.258563041687012,-27.232948303222656, -5.491788387298584
583,1137791176,0.58529615,0.47987208,-0.4176137,0.50274247,9.53612232208252,1.5988471508026123,1.8443067073822021,12.547104835510254,-28.509140014648438, -6.438274383544922
584,1137807843,0.58331096,0.48328358,-0.41909608,0.50054365,9.498398780822754,1.6302903890609741,1.9147368669509888,8.037979125976562,-30.409774780273438, -6.867673873901367
585,1137824510,0.5813773,0.4868113,-0.42086998,0.49787933,9.436789512634277,1.712975025177002,1.8801289796829224,5.989331245422363,-33.38844680786133, -8.27996826171875
586,1137841177,0.57940483,0.49063703,-0.4227579,0.4948142,9.425256729125977,1.8049808740615845,1.766996145248413,5.7626118659973145,-36.32874298095703, -10.230545997619629
587,1137857844,0.57744414,0.49458936,-0.42489612,0.49132776,9.431678771972656,2.026097059249878,1.6540368795394897,4.15302848815918,-39.154109954833984, -11.4728422164917
588,1137874511,0.5755932,0.49838638,-0.42750484,0.48738402,9.58401107788086,1.8335341215133667,1.200721263885498,0.24002456665039062,-41.74159622192383, -11.603985786437988
589,1137891178,0.57290375,0.50274605,-0.429927,0.48393244,10.211724281311035,1.2716549634933472,0.7114454507827759,7.413079261779785,-43.673667907714844, -9.140341758728027
590,1137907845,0.5689895,0.5080885,-0.4318084,0.48128828,10.32036018371582,1.3216099739074707,0.7699195146560669,19.70406723022461,-45.646575927734375, -6.665237903594971
591,1137924512,0.5642517,0.514,-0.4336429,0.47893393,10.134593963623047,1.593366265296936,1.0986604690551758,25.82549285888672,-48.782894134521484, -4.665544509887695
592,1137941179,0.55867016,0.52056724,-0.4356998,0.47651157,10.157145500183105,1.705193042755127,1.437727689743042,30.417442321777344,-54.56801986694336, -3.3239214420318604
593,1137957846,0.55243254,0.5277973,-0.4380055,0.4737084,10.349562644958496,1.4705264568328857,1.3268741369247437,33.359130859375,-61.03495407104492, -3.736572504043579
594,1137974513,0.54550475,0.5358814,-0.44037014,0.47045723,10.712959289550781,1.2486982345581055,1.3182127475738525,37.568702697753906,-67.75492858886719, -5.553925037384033
595,1137991180,0.5380266,0.5444515,-0.44326097,0.46649733,11.121045112609863,1.198577642440796,1.2939929962158203,37.57453918457031,-75.5899429321289, -5.9716620445251465
596,1138007847,0.5305674,0.5526634,-0.4474706,0.46133706,11.443439483642578,1.314513921737671,1.3147926330566406,28.292898178100586,-83.76824951171875, -4.4521484375
597,1138024514,0.523144,0.5606542,-0.45263374,0.4550935,11.623851776123047,1.0976696014404297,1.1844481229782104,20.99574851989746,-90.5666732788086, -4.220871448516846
598,1138041181,0.51569873,0.56847924,-0.4582154,0.44824672,12.147591590881348,0.6707169413566589,0.27306997776031494,17.300020217895508,-93.96183013916016, -4.200860977172852
599,1138057848,0.50775284,0.57625836,-0.4637333,0.4416615,12.737030029296875,-0.029829485341906548,0.19709615409374237,20.115007400512695,-94.15977478027344, -1.8469922542572021
600,1138074515,0.4990746,0.5841911,-0.46941447,0.43508115,12.39478874206543,0.2895025610923767,0.9800747632980347,23.07093620300293,-97.52655792236328, 0.5356253385543823
601,1138091182,0.4896705,0.5920919,-0.474971,0.42901355,12.089391708374023,-0.21595489978790283,1.054858684539795,27.905899047851562,-97.30654907226562, 4.055834770202637
602,1138107849,0.47950256,0.6000689,-0.48045516,0.42327002,11.539445877075195,0.8142738938331604,1.7868821620941162,32.544189453125,-98.48612976074219, 6.840214252471924
603,1138124516,0.4690516,0.6079935,-0.48574433,0.41759714,10.73003101348877,0.7182642817497253,1.7208572626113892,34.342350006103516,-98.36300659179688, 7.258540153503418
604,1138141183,0.45718664,0.6164267,-0.49086618,0.41237015,10.153959274291992,0.5109934210777283,1.7107499837875366,43.86479949951172,-102.17293548583984, 10.351604461669922
605,1138157850,0.4441176,0.62528193,-0.4958019,0.4073853,10.565032958984375,1.4957959651947021,1.7412773370742798,51.63957214355469,-105.85230255126953, 12.30762004852295
606,1138174517,0.4309741,0.6341426,-0.50088555,0.40154487,11.069733619689941,3.0574114322662354,1.5882782936096191,48.65044403076172,-110.28402709960938, 10.521515846252441
607,1138191184,0.42009383,0.6419387,-0.5065056,0.39355832,11.490729331970215,4.246251106262207,-0.32371121644973755,26.765369415283203,-110.5301284790039, 3.928097724914551
608,1138207851,0.41017854,0.6497218,-0.512323,0.3835891,12.086318969726562,4.161203861236572,-1.0461560487747192,15.037274360656738,-116.4803695678711, -3.4749538898468018
609,1138224518,0.40121123,0.65724593,-0.5181553,0.3722534,11.975518226623535,3.9216105937957764,-1.5431243181228638,5.232839584350586,-118.62493896484375, -8.837026596069336
610,1138241185,0.3921755,0.6644691,-0.5233438,0.36164987,11.495227813720703,2.7843515872955322,-2.0003247261047363,8.97488784790039,-113.03487396240234, -8.465319633483887
611,1138257852,0.3827518,0.6714301,-0.5272477,0.3531188,10.34358024597168,2.0003371238708496,-1.7720181941986084,20.700685501098633,-100.86420440673828, -6.832597732543945
612,1138274519,0.37181467,0.6786042,-0.529411,0.3478139,9.066781997680664,1.4940266609191895,-2.714468002319336,44.173526763916016,-87.41197967529297, -3.473750591278076
613,1138291186,0.3599448,0.6857222,-0.5293337,0.34645438,6.183554172515869,1.002907156944275,-2.2122995853424072,68.10420989990234,-66.54705047607422, -1.4056442975997925
614,1138307853,0.34709176,0.6926308,-0.5257994,0.35117668,7.941727161407471,3.1314384937286377,2.3457183837890625,102.59428405761719,-32.40092468261719, 0.45420214533805847
615,1138324520,0.3445126,0.69402456,-0.52313864,0.3549185,6.442749977111816,3.4114463329315186,5.3943400382995605,34.86472702026367,11.261950492858887, -2.5794670581817627
616,1138341187,0.34784847,0.6914205,-0.5211769,0.35960245,5.418512344360352,0.6966347694396973,3.821178674697876,-1.131922960281372,45.076839447021484, 2.951225519180298
617,1138357854,0.35300878,0.687299,-0.5177448,0.36734936,5.851742267608643,0.35159724950790405,2.424900531768799,1.1754084825515747,73.40304565429688, 4.215950012207031
618,1138374521,0.36097398,0.6808949,-0.5133123,0.37761164,6.580142498016357,0.5036695003509521,2.052619218826294,-6.137331008911133,103.4375228881836, 6.632257461547852
619,1138391188,0.37114957,0.67251945,-0.5073108,0.39064237,7.372927188873291,0.40957334637641907,1.6398423910140991,-7.530004501342773,133.18389892578125, 7.373085021972656
620,1138407855,0.3826357,0.66276175,-0.49956354,0.40592253,7.670529842376709,0.49620601534843445,1.1983437538146973,-4.589423656463623,156.29774475097656, 6.343091011047363
621,1138424522,0.395238,0.6515541,-0.49044928,0.42275754,8.338556289672852,0.9769546985626221,0.2671656310558319,-4.340065956115723,174.83969116210938, 6.06988525390625
622,1138441189,0.4090291,0.6384991,-0.48005992,0.4410857,9.360186576843262,1.4996819496154785,-0.21970677375793457,-5.942107200622559,194.3621063232422, 7.190643310546875
623,1138457856,0.42451912,0.6233193,-0.46895397,0.45971587,10.092308044433594,1.6417593955993652,-0.5095055103302002,-16.2056884765625,209.74830627441406, 6.758819103240967
624,1138474523,0.44145733,0.60609996,-0.45756432,0.47790518,10.74840259552002,1.6983684301376343,-0.4671992063522339,-28.902027130126953,219.7994384765625, 6.260554313659668
625,1138491190,0.46000567,0.5864326,-0.4463009,0.4952852,11.972281455993652,1.5251069068908691,-0.6888236403465271,-46.00662612915039,229.1541748046875, 6.742773532867432
626,1138507857,0.4794217,0.56477684,-0.43503135,0.511791,12.842935562133789,1.09993577003479,-1.0330125093460083,-58.46139144897461,235.08766174316406, 7.0970258712768555
627,1138524524,0.498509,0.5420108,-0.42313623,0.527891,13.474003791809082,0.973439633846283,-0.8327803611755371,-59.865631103515625,238.50982666015625, 7.801736831665039
628,1138541191,0.51762664,0.517962,-0.41115448,0.5428907,13.908944129943848,1.3618226051330566,-0.3563174605369568,-67.26727294921875,239.4675750732422, 7.3201518058776855
629,1138557858,0.53675306,0.49236837,-0.39966226,0.55654263,14.422918319702148,1.2891134023666382,-0.336331844329834,-78.44132995605469,238.7363739013672, 8.594855308532715
630,1138574525,0.5546857,0.4659988,-0.38832638,0.56953627,14.905071258544922,0.8847834467887878,-0.7732259035110474,-79.67569732666016,235.64736938476562, 13.388837814331055
631,1138591192,0.57059604,0.43968356,-0.3768039,0.58233804,15.334229469299316,0.9321067333221436,-0.8746604323387146,-72.7747802734375,230.1690216064453, 19.825082778930664
632,1138607859,0.58465105,0.41333503,-0.36591563,0.59451073,15.16353988647461,1.463309407234192,-0.8387935757637024,-71.47114562988281,221.15240478515625, 26.783533096313477
633,1138624526,0.59741926,0.386823,-0.35690415,0.6050435,13.665634155273438,1.670645833015442,-1.8067901134490967,-80.2774887084961,206.43031311035156, 31.19538688659668
634,1138641193,0.6079018,0.36311582,-0.34936723,0.6136325,11.432252883911133,1.339246153831482,-4.4045023918151855,-73.58497619628906,177.98190307617188, 29.763010025024414
635,1138657860,0.614654,0.3461726,-0.3415755,0.6210404,9.501727104187012,1.8874465227127075,-5.788835048675537,-37.766357421875,138.67135620117188, 23.684843063354492
636,1138674527,0.61830413,0.33568045,-0.3348586,0.6268081,9.174882888793945,1.554621696472168,-6.1965413093566895,-11.57011890411377,95.47628021240234, 17.418981552124023
637,1138691194,0.6181063,0.33351126,-0.3292142,0.63113624,8.280324935913086,2.5570223331451416,-5.847083568572998,24.750076293945312,42.955711364746094, 11.207930564880371
638,1138707861,0.617393,0.33534366,-0.32737944,0.6318176,8.326096534729004,4.0117950439453125,-5.764838218688965,18.140199661254883,-0.043477613478899, -2.3571653366088867
639,1138724528,0.6165089,0.3389542,-0.32826418,0.6302932,8.921977996826172,2.5968544483184814,-6.259779453277588,9.285557746887207,-24.696805953979492, -8.681166648864746
640,1138741195,0.6141639,0.3453966,-0.32855934,0.62892985,8.9656343460083,1.3396177291870117,-5.394416809082031,27.60255241394043,-37.30072021484375, -9.413866996765137
641,1138757862,0.6113879,0.35339952,-0.32831296,0.62731516,10.308115005493164,2.7096874713897705,-1.8167775869369507,36.98295974731445,-43.2486686706543, -13.417218208312988
642,1138774529,0.6119846,0.35734984,-0.33220968,0.6224248,8.402886390686035,2.5762875080108643,-2.240091323852539,-13.52366828918457,-43.468936920166016, -22.50084686279297
643,1138791196,0.61216766,0.36060476,-0.33401036,0.6193966,11.37297248840332,2.849766731262207,11.46677303314209,-2.221628427505493,-27.990354537963867, -16.436281204223633
644,1138807863,0.61972034,0.35201165,-0.34389806,0.6113665,10.714489936828613,0.40885892510414124,9.43865966796875,-116.29930114746094,-7.094594955444336, -21.587326049804688
645,1138824530,0.6231239,0.34963718,-0.3515405,0.6048884,14.198789596557617,-5.1601104736328125,1.5190887451171875,-66.64806365966797,-29.756771087646484, -17.658823013305664
646,1138841197,0.624396,0.35334858,-0.3569053,0.59824175,15.155427932739258,-0.9345359802246094,1.925348162651062,-26.369274139404297,-50.815608978271484, -29.741390228271484
647,1138857864,0.6260946,0.36049536,-0.36149904,0.5893788,13.598750114440918,1.1676316261291504,0.6540108919143677,-14.92575454711914,-65.92442321777344, -51.32151794433594
648,1138874531,0.6294014,0.36576775,-0.36884904,0.57794315,11.212242126464844,-1.7251074314117432,2.2358460426330566,-44.555137634277344,-72.52210998535156, -57.4097900390625
649,1138891198,0.6315106,0.371082,-0.3759709,0.5675726,9.165871620178223,0.5308690667152405,1.8462481498718262,-37.754058837890625,-72.03596496582031, -48.73216247558594
650,1138907865,0.63429284,0.37470874,-0.38327065,0.55710834,9.515722274780273,3.0294125080108643,2.803264856338501,-47.74235153198242,-64.70667266845703, -46.939449310302734
651,1138924532,0.6358878,0.3781275,-0.38990098,0.54830986,9.169816970825195,1.7293050289154053,2.181654691696167,-38.648094177246094,-59.81924057006836, -36.270999908447266
652,1138941199,0.6345134,0.3844778,-0.39309764,0.54317975,9.165149688720703,2.2319562435150146,2.4360458850860596,4.660526752471924,-54.26991271972656, -25.809925079345703
653,1138957866,0.6324264,0.3907575,-0.39537576,0.53946614,9.604695320129395,0.7147448062896729,2.3833353519439697,13.489084243774414,-48.17060852050781, -19.19195556640625
654,1138974533,0.62995374,0.39747822,-0.39755395,0.535836,9.411437034606934,0.8204531669616699,2.5882205963134766,17.039466857910156,-50.18596649169922, -18.869596481323242
655,1138991200,0.6291858,0.40148708,-0.40242004,0.53008634,9.93700122833252,0.5282382369041443,2.171164035797119,-15.060615539550781,-52.96707534790039, -19.5717716217041
656,1139007867,0.628994,0.40469933,-0.40794122,0.5236116,10.062746047973633,-0.04974382743239403,2.21588397026062,-24.490354537963867,-53.300357818603516, -20.796144485473633
657,1139024534,0.6285171,0.40873915,-0.41209656,0.5177598,9.75407600402832,0.33516988158226013,2.557795286178589,-13.452658653259277,-49.43826675415039, -23.204891204833984
658,1139041201,0.6275933,0.41332033,-0.4150128,0.5128913,9.460567474365234,1.4239246845245361,2.495213747024536,-2.6596715450286865,-44.5201416015625, -22.387704849243164
659,1139057868,0.62659895,0.4173685,-0.41779187,0.5085542,9.486795425415039,1.8715444803237915,2.2207634449005127,-2.7585201263427734,-40.74645233154297, -18.712425231933594
660,1139074535,0.62564135,0.42078134,-0.42061296,0.5045797,9.730759620666504,1.3717122077941895,2.0424551963806152,-4.707756996154785,-37.56753921508789, -15.326958656311035
661,1139091202,0.62441057,0.4242965,-0.42294002,0.5012043,10.084716796875,0.8029776215553284,1.9710031747817993,-0.029813328757882118,-34.86156463623047, -13.527861595153809
662,1139107869,0.6229281,0.4280747,-0.4248271,0.49823165,9.909199714660645,1.1160322427749634,2.16896390914917,4.5235371589660645,-33.44293212890625, -12.988157272338867
663,1139124536,0.6213135,0.431825,-0.42659703,0.49549136,9.726720809936523,1.2958106994628906,2.1394472122192383,5.874138355255127,-32.55827713012695, -11.809568405151367
664,1139141203,0.6196261,0.43549702,-0.42841277,0.49281684,9.529975891113281,1.4331833124160767,2.1517395973205566,5.796069622039795,-32.517330169677734, -10.919649124145508
665,1139157870,0.61792594,0.4391131,-0.43043244,0.48997456,9.35029125213623,1.5547642707824707,2.3503265380859375,4.413106918334961,-33.75118637084961, -10.81849479675293
666,1139174537,0.61640495,0.44255596,-0.4326557,0.48682487,9.322796821594238,1.6149623394012451,2.2069311141967773,1.5443952083587646,-34.44831466674805, -11.602734565734863
667,1139191204,0.6150099,0.44587284,-0.43505478,0.4834125,9.326772689819336,1.7752938270568848,1.8184916973114014,-0.7403643131256104,-35.214393615722656, -12.228829383850098
668,1139207871,0.61385536,0.4488157,-0.43766317,0.47978845,9.290916442871094,1.8799264430999756,1.5893691778182983,-4.385364055633545,-34.799312591552734, -12.16205883026123
669,1139224538,0.61302894,0.4513025,-0.4404543,0.47594294,9.34852409362793,1.8267368078231812,1.3314939737319946,-8.59051513671875,-33.77603530883789, -12.241544723510742
670,1139241205,0.61212295,0.4535879,-0.4433607,0.47222325,9.564285278320312,1.4271928071975708,1.0920355319976807,-9.1865234375,-33.46480941772461, -10.48226261138916
671,1139257872,0.6108233,0.45613024,-0.44594428,0.46901372,9.740311622619629,1.1710445880889893,1.0159060955047607,-4.271664619445801,-32.55906295776367, -8.85049057006836
672,1139274539,0.609236,0.45911667,-0.44790468,0.46628848,9.662057876586914,1.1782610416412354,1.343538522720337,1.9936676025390625,-30.74524688720703, -9.212945938110352
673,1139291206,0.607544,0.46214715,-0.4495644,0.46389896,9.904057502746582,1.3622283935546875,1.2602368593215942,4.508227348327637,-28.902860641479492, -8.563582420349121
674,1139307873,0.6055277,0.46546298,-0.4507373,0.46207836,9.998520851135254,1.0514252185821533,1.1769570112228394,10.04450798034668,-26.986114501953125, -7.588953495025635
675,1139324540,0.60293114,0.4696531,-0.45091566,0.46105903,9.90013599395752,1.2361019849777222,1.4437129497528076,21.187490463256836,-24.867990493774414, -8.313324928283691
676,1139341207,0.6000799,0.4741806,-0.45068136,0.4603731,9.861968994140625,1.7262520790100098,1.5704948902130127,25.75287437438965,-23.954118728637695, -8.512663841247559
677,1139357874,0.59706056,0.47884473,-0.45034066,0.4598041,9.876802444458008,1.788230538368225,1.4206929206848145,27.566041946411133,-24.102067947387695, -8.274953842163086
678,1139374541,0.594054,0.48349535,-0.44988617,0.45927605,9.983199119567871,1.7903623580932617,1.3007116317749023,27.95813751220703,-23.431665420532227, -8.484940528869629
679,1139391208,0.59092206,0.4882815,-0.4490975,0.45902494,10.006040573120117,1.7709578275680542,0.9939749240875244,30.84299659729004,-21.975465774536133, -8.493818283081055
680,1139407875,0.587468,0.49328092,-0.44823334,0.45895797,9.814146041870117,1.8579834699630737,0.8710761070251465,33.59996795654297,-22.727819442749023, -7.648074626922607
681,1139424542,0.5836956,0.49833602,-0.44784626,0.45868772,9.638452529907227,2.1625070571899414,0.8517149686813354,32.774505615234375,-26.51087188720703, -6.023068904876709
682,1139441209,0.5793631,0.50368655,-0.44796196,0.45822313,9.425947189331055,2.1054134368896484,0.8774358630180359,33.697792053222656,-31.860008239746094, -4.226102352142334
683,1139457876,0.57457393,0.5092891,-0.448808,0.4572318,9.413824081420898,2.148944616317749,1.0352048873901367,32.363773345947266,-38.805213928222656, -3.1345741748809814
684,1139474543,0.5695202,0.51484513,-0.45069346,0.45547423,9.682147979736328,2.0756032466888428,0.9464988708496094,27.477874755859375,-46.27714157104492, -1.5485469102859497
685,1139491210,0.5641922,0.520486,-0.45325524,0.45314598,9.884828567504883,1.8614606857299805,0.748460590839386,24.898595809936523,-52.07381820678711, -0.795027494430542
686,1139507877,0.55860806,0.526449,-0.45626426,0.4501463,9.903786659240723,1.8458219766616821,0.7516385912895203,23.581907272338867,-58.02592849731445, -2.0092415809631348
687,1139524544,0.552849,0.53263307,-0.45973954,0.44643015,10.386987686157227,1.8119776248931885,0.46044036746025085,21.378549575805664,-63.655696868896484, -3.2284810543060303
688,1139541211,0.54651564,0.53920907,-0.4634019,0.44253033,10.888608932495117,1.5552514791488647,0.49470311403274536,23.81899070739746,-68.06988525390625, -2.722308874130249
689,1139557878,0.53965235,0.546229,-0.467138,0.4383963,11.225334167480469,1.4672907590866089,0.7995127439498901,26.485065460205078,-72.26799774169922, -3.139158010482788
690,1139574545,0.53239226,0.55339354,-0.47116706,0.43395376,11.414341926574707,1.0131241083145142,0.36289066076278687,26.64225959777832,-76.24215698242188, -2.461270570755005
691,1139591212,0.5250249,0.56040096,-0.47591043,0.42872968,11.640748977661133,1.1760497093200684,0.6240320801734924,21.814687728881836,-81.72596740722656, -1.7882213592529297
692,1139607879,0.5181035,0.56673497,-0.4816335,0.4223856,11.901848793029785,1.0812709331512451,0.44429993629455566,11.116264343261719,-86.15573120117188, -1.1779594421386719
693,1139624546,0.5113358,0.57267094,-0.4874721,0.41587836,12.182538032531738,0.46182122826576233,-0.0569460466504097,8.226737976074219,-85.55909729003906, -0.44857972860336304
694,1139641213,0.5036762,0.5791067,-0.49258783,0.41024756,12.806539535522461,0.25462010502815247,0.4602980613708496,18.50031280517578,-84.00540161132812, 0.6450278162956238
695,1139657880,0.49512088,0.58579123,-0.49756795,0.40512994,12.784280776977539,0.6749585270881653,1.613844871520996,25.04837417602539,-85.25559997558594, 3.5455942153930664
696,1139674547,0.4858364,0.59250265,-0.5025871,0.40038761,12.41239070892334,-0.09682361036539078,1.5195835828781128,29.25656509399414,-86.48734283447266, 6.904664039611816
697,1139691214,0.4736114,0.6003904,-0.50799143,0.39644462,12.057095527648926,-0.08977865427732468,2.456785202026367,46.86739730834961,-97.9605712890625, 15.15313720703125
