PacketCounter,SampleTimeFine,Quat_W,Quat_X,Quat_Y,Quat_Z,Acc_X,Acc_Y,Acc_Z,Gyr_X,Gyr_Y,Gyr_Z 
1,67938818,0.68554735,0.116071634,-0.71856236,0.014849444,0,0,0,0,0, 0
2,67955485,0.6855316,0.11587266,-0.7186014,0.015236957,9.65195083618164,1.2943434715270996,-0.5526437163352966,0.5022842288017273,0.5422271490097046, 1.3787890672683716
3,67972152,0.6857011,0.11553196,-0.718483,0.015772182,9.664645195007324,1.2990177869796753,-0.6094321608543396,0.493306964635849,0.5816964507102966, 1.3703243732452393
4,67988819,0.6856939,0.115217835,-0.7185308,0.016201148,9.634918212890625,1.3005045652389526,-0.5596795678138733,0.521724283695221,0.6110613346099854, 1.4076675176620483
5,68005486,0.6857469,0.11491742,-0.7185223,0.01646274,9.663475036621094,1.3490419387817383,-0.5814018845558167,0.40195927023887634,0.4666826128959656, 1.2850596904754639
6,68022153,0.6857859,0.1147871,-0.7185015,0.016655441,9.657597541809082,1.3274970054626465,-0.5260935425758362,0.3660503327846527,0.4603178799152374, 1.4437174797058105
7,68038820,0.68585527,0.1146709,-0.7184509,0.016782109,9.655983924865723,1.347794532775879,-0.5608372092247009,0.2545582056045532,0.09204563498497009, 1.3515501022338867
8,68055487,0.6859188,0.114623524,-0.7183948,0.016907185,9.672191619873047,1.2614266872406006,-0.5725776553153992,0.29487258195877075,0.17268723249435425, 1.36664879322052
9,68072154,0.6859889,0.114557564,-0.7183339,0.01710049,9.663430213928223,1.294057846069336,-0.617231547832489,0.36991778016090393,0.44980388879776, 1.2594467401504517
10,68088821,0.6860375,0.11455042,-0.7182823,0.017363572,9.646321296691895,1.312091588973999,-0.5818290114402771,0.7266002297401428,0.712218701839447, 1.2800906896591187
11,68105488,0.6860965,0.11446955,-0.7182343,0.017552013,9.660454750061035,1.341265320777893,-0.551375150680542,0.7276504635810852,0.8402566909790039, 1.351896047592163
12,68122155,0.6861489,0.11444577,-0.7181821,0.017792108,9.647032737731934,1.3497909307479858,-0.5182486772537231,0.7455407977104187,0.6881684064865112, 1.5256267786026
13,68138822,0.68619263,0.11434823,-0.7181524,0.01792674,9.627467155456543,1.3344286680221558,-0.5070509314537048,0.3200370669364929,0.34851840138435364, 1.5385228395462036
14,68155489,0.6862135,0.11424461,-0.71814644,0.018025102,9.658050537109375,1.2788317203521729,-0.5209077596664429,0.09282683581113815,-0.03994300588965416, 1.4804332256317139
15,68172156,0.6862315,0.11382245,-0.71820086,0.017842121,9.635781288146973,1.2807995080947876,-0.6084852814674377,-0.0025228506419807673,-0.19562982022762299, 1.4922919273376465
16,68188823,0.6862564,0.11392027,-0.71815366,0.018161034,9.646475791931152,1.3214887380599976,-0.592867374420166,0.2534184455871582,0.21010738611221313, 1.4152616262435913
17,68205490,0.68628925,0.11393491,-0.7181138,0.018401315,9.634882926940918,1.3523670434951782,-0.5642924904823303,0.19576427340507507,0.35323113203048706, 1.4476104974746704
18,68222157,0.68632597,0.11373864,-0.7181087,0.018443467,9.647713661193848,1.312441349029541,-0.5595231652259827,0.28549832105636597,0.36991778016090393, 1.5427360534667969
19,68238824,0.6863439,0.11384565,-0.7180656,0.01878809,9.64145565032959,1.3074002265930176,-0.5427452325820923,0.3003665506839752,0.2785189151763916, 1.6076388359069824
20,68255491,0.68637407,0.11378044,-0.7180422,0.018977014,9.67587661743164,1.2873790264129639,-0.5373704433441162,0.4005122184753418,0.3506442904472351, 1.6284490823745728
21,68272158,0.6864072,0.11365235,-0.718028,0.019082595,9.664023399353027,1.2685426473617554,-0.5463265180587769,0.29955971240997314,0.32309776544570923, 1.4788322448730469
22,68288825,0.6864471,0.11363982,-0.71798575,0.019311955,9.66696834564209,1.3021773099899292,-0.5758296847343445,0.4646463990211487,0.4405704736709595, 1.4789092540740967
23,68305492,0.6864893,0.11361073,-0.7179441,0.01953567,9.650635719299316,1.28961181640625,-0.5283774137496948,0.4087722599506378,0.48354852199554443, 1.5296608209609985
24,68322159,0.68652385,0.113669686,-0.7178939,0.01981857,9.64920425415039,1.3220369815826416,-0.5458948612213135,0.3302437663078308,0.3991547226905823, 1.4043635129928589
25,68338826,0.68656164,0.113384254,-0.7179041,0.019776199,9.643856048583984,1.3021613359451294,-0.5506360530853271,0.3948005735874176,0.3500039577484131, 1.448443055152893
26,68355493,0.68660015,0.11302539,-0.7179271,0.01965476,9.666184425354004,1.2729108333587646,-0.5720147490501404,0.5325584411621094,0.3593141734600067, 1.400201439857483
27,68372160,0.68663263,0.11357228,-0.71778864,0.020412639,9.676274299621582,1.2650680541992188,-0.5747103691101074,0.6728135943412781,0.5845009684562683, 1.4182584285736084
28,68388827,0.68670225,0.113201335,-0.71778446,0.020276329,9.655335426330566,1.2792534828186035,-0.5856346487998962,0.7365379333496094,0.7171491384506226, 1.3001453876495361
29,68405494,0.6867451,0.11312101,-0.7177521,0.020418221,9.650003433227539,1.304937481880188,-0.5134598016738892,0.8982183337211609,0.5852950215339661, 1.301618218421936
30,68422161,0.6867962,0.1128967,-0.71773857,0.020414164,9.656328201293945,1.3069530725479126,-0.5444343090057373,0.8274373412132263,0.5913780331611633, 1.271510362625122
31,68438828,0.6868392,0.11269948,-0.7177279,0.020431893,9.66741943359375,1.2967126369476318,-0.5349494814872742,0.7294176816940308,0.5075476765632629, 1.2730728387832642
32,68455495,0.68688774,0.11255646,-0.71770155,0.020512458,9.644274711608887,1.3087654113769531,-0.5248132348060608,0.6484943628311157,0.5628070831298828, 1.3283451795578003
33,68472162,0.68691736,0.11283455,-0.717616,0.020981299,9.670883178710938,1.2567886114120483,-0.5305069088935852,0.5231969952583313,0.47051167488098145, 1.2778111696243286
34,68488829,0.6869326,0.11362727,-0.7174483,0.021921093,9.641925811767578,1.2618322372436523,-0.5480784773826599,0.5495908856391907,0.47829797863960266, 1.1502599716186523
35,68505496,0.6869877,0.11350083,-0.7174137,0.021981504,9.649466514587402,1.2908284664154053,-0.5309690237045288,0.5251820087432861,0.5984471440315247, 1.1326768398284912
36,68522163,0.6870371,0.113243364,-0.71740884,0.02192064,9.633625030517578,1.3027523756027222,-0.5299844145774841,0.36698517203330994,0.4858792722225189, 1.1742973327636719
37,68538830,0.6870428,0.11367291,-0.71731687,0.02252467,9.632723808288574,1.3103630542755127,-0.5125837326049805,0.33272817730903625,0.26755669713020325, 1.2400197982788086
38,68555497,0.68704057,0.11371456,-0.7173049,0.022763496,9.63674545288086,1.2979577779769897,-0.5170813202857971,0.25092121958732605,0.06485776603221893, 1.304243564605713
39,68572164,0.687009,0.114282586,-0.71722144,0.02348882,9.668845176696777,1.3004802465438843,-0.536178469657898,0.19266514480113983,-0.06873168051242828, 1.2358704805374146
40,68588831,0.6870162,0.11359081,-0.71733856,0.023054074,9.671485900878906,1.2647660970687866,-0.5144514441490173,0.19593074917793274,-0.07010196149349213, 1.4733128547668457
41,68605498,0.68700856,0.11349536,-0.7173573,0.023169493,9.6781587600708,1.273110032081604,-0.5372734069824219,0.6078597903251648,0.010904606431722641, 1.3349275588989258
42,68622165,0.6870125,0.113244966,-0.7173934,0.02315762,9.65475082397461,1.2784548997879028,-0.5415797829627991,0.5559556484222412,0.07656276226043701, 1.4329729080200195
43,68638832,0.68703455,0.11309722,-0.71739304,0.023238322,9.650279998779297,1.3015015125274658,-0.5795583724975586,0.5278072953224182,0.2780963182449341, 1.3859351873397827
44,68655499,0.6870612,0.11283281,-0.71741027,0.023197465,9.634580612182617,1.3095273971557617,-0.540622353553772,0.6069120764732361,0.3072435259819031, 1.3382315635681152
45,68672166,0.687073,0.11265764,-0.7174238,0.02328571,9.655867576599121,1.3172587156295776,-0.5241675972938538,0.5835020542144775,0.2045494019985199, 1.576967477798462
46,68688833,0.6870649,0.11261378,-0.7174317,0.023492662,9.68232250213623,1.3064950704574585,-0.47581392526626587,0.25245797634124756,0.011250377632677555, 1.5843567848205566
47,68705500,0.68705547,0.11227641,-0.7174965,0.023404872,9.674229621887207,1.2544937133789062,-0.5292730927467346,0.290620893239975,-0.10613903403282166, 1.5304421186447144
48,68722167,0.6870648,0.11227676,-0.71748096,0.023605593,9.670363426208496,1.2549917697906494,-0.5386122465133667,0.22747281193733215,0.15924057364463806, 1.3269108533859253
49,68738834,0.6870893,0.11222074,-0.717461,0.023762107,9.672532081604004,1.2733725309371948,-0.5836760997772217,0.040948305279016495,0.2692599296569824, 1.3687747716903687
50,68755501,0.68713313,0.111986116,-0.7174564,0.02373919,9.664741516113281,1.3013710975646973,-0.5611736178398132,0.2100689560174942,0.4268292188644409, 1.305229663848877
51,68772168,0.6871863,0.11153901,-0.7174825,0.023517583,9.647777557373047,1.3066918849945068,-0.5411509871482849,0.25103646516799927,0.4608044922351837, 1.331123948097229
52,68788835,0.68722373,0.11125328,-0.717493,0.023455083,9.688956260681152,1.2791433334350586,-0.5130611062049866,0.29305413365364075,0.37046846747398376, 1.3691332340240479
53,68805502,0.68725383,0.11076807,-0.71754783,0.023191618,9.653563499450684,1.270978331565857,-0.5221217274665833,0.6799595355987549,0.2783907949924469, 1.3129515647888184
54,68822169,0.6872732,0.11113733,-0.7174554,0.023704307,9.665955543518066,1.2536252737045288,-0.5412787199020386,0.21471762657165527,0.3708014190196991, 1.1134800910949707
55,68838836,0.68729347,0.11110005,-0.7174372,0.023841748,9.651411056518555,1.276545524597168,-0.5209986567497253,0.11231809854507446,0.248001366853714, 1.1988345384597778
56,68855503,0.6873159,0.11078381,-0.71746963,0.023694228,9.661310195922852,1.295913815498352,-0.5194078683853149,0.12294735759496689,0.17398066818714142, 1.1195119619369507
57,68872170,0.6873458,0.11071939,-0.71744657,0.02382066,9.655255317687988,1.3043901920318604,-0.5413026809692383,0.32200926542282104,0.35974958539009094, 1.2622514963150024
58,68888837,0.6873362,0.11129445,-0.7173425,0.024540488,9.667122840881348,1.2689875364303589,-0.5105769634246826,0.47767046093940735,0.20285899937152863, 1.1818276643753052
59,68905504,0.6873546,0.11118696,-0.71733963,0.024600463,9.691351890563965,1.2543394565582275,-0.5161930918693542,0.4124605059623718,0.23825575411319733, 1.1528340578079224
60,68922171,0.6873738,0.111408785,-0.7172744,0.024954991,9.674514770507812,1.2782182693481445,-0.532577395439148,0.432937890291214,0.34976062178611755, 1.034644365310669
61,68938838,0.6874081,0.11127752,-0.7172616,0.024965791,9.637272834777832,1.2742007970809937,-0.5056422352790833,0.3922392725944519,0.37155699729919434, 1.0109138488769531
62,68955505,0.6874245,0.11123311,-0.71724963,0.025057524,9.647457122802734,1.3249032497406006,-0.5111312866210938,0.4523394703865051,0.23335088789463043, 1.0135776996612549
63,68972172,0.6874175,0.11158786,-0.7171833,0.025565045,9.657139778137207,1.2794734239578247,-0.5119250416755676,0.5117481350898743,0.16236530244350433, 1.1943777799606323
64,68988839,0.6874347,0.11184784,-0.71711195,0.025963224,9.660479545593262,1.2688970565795898,-0.5395337343215942,0.5897900462150574,0.365217924118042, 1.0818997621536255
65,69005506,0.68749946,0.11113563,-0.7171797,0.025431015,9.683351516723633,1.2522565126419067,-0.5134561657905579,0.5932477116584778,0.48988768458366394, 1.079888939857483
66,69022173,0.6875459,0.11065914,-0.71722037,0.02510351,9.656794548034668,1.285117268562317,-0.5259571671485901,0.3899981379508972,0.3649105131626129, 0.9947138428688049
67,69038840,0.6875717,0.11056927,-0.7172086,0.025126552,9.654562950134277,1.2599101066589355,-0.5271354913711548,0.5510636568069458,0.31008654832839966, 0.8982565402984619
68,69055507,0.6875764,0.11075038,-0.71716756,0.025373818,9.645118713378906,1.3125890493392944,-0.46456730365753174,0.5792247653007507,0.19237057864665985, 0.7328882217407227
69,69072174,0.6875492,0.1107498,-0.71719,0.025479347,9.688577651977539,1.2714998722076416,-0.45183247327804565,0.5875104665756226,-0.16699479520320892, 0.9381227493286133
70,69088841,0.6875091,0.11117484,-0.71714413,0.025998486,9.662314414978027,1.2806576490402222,-0.5397034287452698,0.6109845042228699,-0.14683759212493896, 0.9655154347419739
71,69105508,0.6874944,0.11127724,-0.71713495,0.026197523,9.677033424377441,1.263061761856079,-0.5508678555488586,0.5548414587974548,-0.02109205536544323, 0.9064269661903381
72,69122175,0.68749887,0.111082956,-0.7171637,0.026119843,9.664445877075195,1.3064143657684326,-0.5256848931312561,0.6627093553543091,0.07748481631278992, 0.9333330988883972
73,69138842,0.68753093,0.1099882,-0.7173352,0.025180165,9.684706687927246,1.3309556245803833,-0.5163895487785339,0.5732313990592957,0.02532455511391163, 0.9556417465209961
74,69155509,0.6875358,0.10974581,-0.7173709,0.025089966,9.661653518676758,1.2746740579605103,-0.4935469925403595,0.4342568814754486,0.050412192940711975, 1.1311527490615845
75,69172176,0.6875341,0.10993498,-0.7173331,0.025383461,9.651281356811523,1.2640701532363892,-0.5298599004745483,0.6159278154373169,0.14229775965213776, 0.96865314245224
76,69188843,0.6875219,0.11004929,-0.7173199,0.025594272,9.65304183959961,1.2662063837051392,-0.5105564594268799,0.7083383798599243,0.024709850549697876, 0.9250346422195435
77,69205510,0.6874998,0.11004069,-0.71734035,0.025651846,9.661231994628906,1.2664209604263306,-0.5507119297981262,0.500657856464386,-0.14691442251205444, 0.7771084904670715
78,69222177,0.6874724,0.1100143,-0.71736896,0.025699604,9.65748405456543,1.2891911268234253,-0.5339130759239197,0.5842704772949219,-0.1882789433002472, 0.81787109375
79,69238844,0.6875028,0.109390154,-0.7174532,0.025191914,9.70166015625,1.2827526330947876,-0.570058286190033,0.6939952373504639,0.18093450367450714, 0.8702874779701233
80,69255511,0.68752766,0.10956318,-0.71739316,0.025472501,9.653661727905273,1.3171992301940918,-0.5262414813041687,0.9293503165245056,0.4358065128326416, 0.9628775119781494
81,69272178,0.68756,0.10953464,-0.7173626,0.02558394,9.619998931884766,1.314789056777954,-0.5698935985565186,0.7601145505905151,0.4295569956302643, 1.0998926162719727
82,69288845,0.68759596,0.10959157,-0.71731204,0.025788348,9.670909881591797,1.3103952407836914,-0.49450868368148804,0.850117564201355,0.5133233666419983, 1.1527316570281982
83,69305512,0.6875968,0.10975224,-0.71727556,0.026097339,9.674160957336426,1.2931468486785889,-0.5243382453918457,0.47847726941108704,0.17158587276935577, 1.235601544380188
84,69322179,0.6876279,0.109453194,-0.717296,0.025971754,9.674178123474121,1.2776670455932617,-0.5041283369064331,0.543123722076416,0.3124045133590698, 1.2562710046768188
85,69338846,0.6876693,0.10916196,-0.7173044,0.025868002,9.671919822692871,1.3018817901611328,-0.525556206703186,0.6118297576904297,0.42390936613082886, 1.319636583328247
86,69355513,0.68771225,0.10894886,-0.71729666,0.02583889,9.66332721710205,1.2836220264434814,-0.5016264915466309,0.4555283188819885,0.4486384093761444, 1.3306629657745361
87,69372180,0.6877433,0.10833377,-0.71737534,0.025407845,9.636141777038574,1.3045951128005981,-0.49617740511894226,0.26408615708351135,0.16965211927890778, 1.289465069770813
88,69388847,0.68772966,0.10850898,-0.71734995,0.025745846,9.657130241394043,1.2955151796340942,-0.48628124594688416,0.42866051197052,0.03244488686323166, 1.3612444400787354
89,69405514,0.6877092,0.108651675,-0.7173362,0.026071073,9.660298347473145,1.2801610231399536,-0.5228368639945984,0.09472218155860901,-0.07513486593961716, 1.4854406118392944
90,69422181,0.6876906,0.10858664,-0.71736026,0.02617193,9.674195289611816,1.2896480560302734,-0.5156154632568359,-0.10109332948923111,-0.15893961489200592, 1.3825544118881226
91,69438848,0.68768495,0.108240314,-0.71742356,0.026018415,9.66308307647705,1.272977352142334,-0.537068247795105,-0.05954952538013458,-0.12290254235267639, 1.4610060453414917
92,69455515,0.68767154,0.10814669,-0.71744704,0.026116647,9.656643867492676,1.2906017303466797,-0.518417477607727,0.03918102756142616,-0.09372967481613159, 1.508223056793213
93,69472182,0.6876517,0.10848454,-0.71739554,0.026643194,9.664475440979004,1.2839555740356445,-0.5090855956077576,0.6164400577545166,0.06805934011936188, 1.5498309135437012
94,69488849,0.68764967,0.108577006,-0.71737254,0.02693683,9.686633110046387,1.2787712812423706,-0.529090940952301,0.43747130036354065,0.133653461933136, 1.5702953338623047
95,69505516,0.6876744,0.108438425,-0.7173663,0.02703346,9.64946460723877,1.2801803350448608,-0.5280154347419739,0.5067920684814453,0.3237893879413605, 1.6785091161727905
96,69522183,0.68768156,0.10851668,-0.7173359,0.027342914,9.651371955871582,1.2811697721481323,-0.52838534116745,0.41808247566223145,0.228317990899086, 1.7243813276290894
97,69538850,0.68767405,0.10868372,-0.71730256,0.027740162,9.657127380371094,1.222939372062683,-0.49665766954421997,0.7638409733772278,0.1638508290052414, 1.7378277778625488
98,69555517,0.68766665,0.10845306,-0.71734476,0.027731841,9.67500114440918,1.2733122110366821,-0.4833061695098877,0.9193997979164124,0.026810092851519585, 1.626771330833435
99,69572184,0.6876348,0.10885289,-0.71729285,0.028297031,9.667730331420898,1.2555047273635864,-0.48428454995155334,0.5373736023902893,-0.03006930835545063, 1.501768708229065
100,69588851,0.68761045,0.10904203,-0.7172731,0.028655428,9.669145584106445,1.2795273065567017,-0.5233816504478455,0.38228872418403625,-0.054567851126194, 1.493290901184082
101,69605518,0.68762344,0.1087169,-0.71731603,0.028503584,9.666741371154785,1.2380205392837524,-0.5647414922714233,0.4517119526863098,0.10810479521751404, 1.3970767259597778
102,69622185,0.68764603,0.108916916,-0.7172491,0.02887763,9.645560264587402,1.2664239406585693,-0.5512479543685913,0.697260856628418,0.43879035115242004, 1.4724805355072021
103,69638852,0.68767893,0.109048955,-0.71718544,0.029173976,9.667259216308594,1.298319697380066,-0.48453229665756226,0.7570666670799255,0.517754316329956, 1.4079365730285645
104,69655519,0.68771183,0.10904771,-0.71714586,0.02937524,9.668669700622559,1.2863681316375732,-0.476752907037735,0.626633882522583,0.46239250898361206, 1.5930267572402954
105,69672186,0.68771994,0.10933291,-0.71707493,0.029853985,9.653833389282227,1.2496583461761475,-0.494378000497818,0.6459459066390991,0.3401302397251129, 1.6280776262283325
106,69688853,0.6877417,0.10942658,-0.71702665,0.030168392,9.681804656982422,1.200711727142334,-0.5229716300964355,0.8818002939224243,0.429633766412735, 1.7131115198135376
107,69705520,0.68777204,0.10930037,-0.71701473,0.030217117,9.617756843566895,1.305111050605774,-0.5065394043922424,0.5687748193740845,0.36822736263275146, 1.4622864723205566
108,69722187,0.68779844,0.10909278,-0.7170218,0.030200372,9.655289649963379,1.282475471496582,-0.49497300386428833,0.419785737991333,0.2866381108760834, 1.5521231889724731
109,69738854,0.68782586,0.1091117,-0.7169837,0.030409874,9.691947937011719,1.2575654983520508,-0.52264404296875,0.35771340131759644,0.3840816617012024, 1.6002752780914307
110,69755521,0.68786156,0.108980775,-0.7169665,0.03047695,9.636479377746582,1.2627830505371094,-0.5132041573524475,0.5037185549736023,0.4199906885623932, 1.6056923866271973
111,69772188,0.68787354,0.10884615,-0.7169729,0.030538881,9.66867446899414,1.227089285850525,-0.5131704211235046,0.6294001340866089,0.20554834604263306, 1.6236339807510376
112,69788855,0.68789715,0.10848871,-0.7170103,0.030399418,9.671808242797852,1.2501235008239746,-0.45573076605796814,1.0244629383087158,0.2736908495426178, 1.6689296960830688
113,69805522,0.6878566,0.10908196,-0.71692634,0.03116427,9.687872886657715,1.2613800764083862,-0.4686596691608429,0.6538985967636108,0.004680721554905176, 1.6807118654251099
114,69822189,0.6878202,0.108996466,-0.7169701,0.03125934,9.694626808166504,1.2901310920715332,-0.46698319911956787,0.30895957350730896,-0.28001081943511963, 1.6401026248931885
115,69838856,0.687789,0.108910434,-0.7170093,0.031346977,9.670546531677246,1.2248634099960327,-0.5546426773071289,0.1813955456018448,-0.25026169419288635, 1.6192923784255981
116,69855523,0.687795,0.10881475,-0.7170149,0.031417318,9.67873764038086,1.249902606010437,-0.5475199818611145,0.282885879278183,0.11106306314468384, 1.5458608865737915
117,69872190,0.68781614,0.108808,-0.716987,0.031617586,9.676137924194336,1.2621231079101562,-0.5562905073165894,0.7430819869041443,0.36273348331451416, 1.7338836193084717
118,69888857,0.68785137,0.1088242,-0.71693987,0.031862594,9.635933876037598,1.2708216905593872,-0.5391563177108765,0.820304274559021,0.5294592976570129, 1.8378199338912964
119,69905524,0.68788815,0.10882489,-0.71689415,0.032091826,9.663871765136719,1.2452672719955444,-0.5087597966194153,0.6468678116798401,0.5218906998634338, 1.852687954902649
120,69922191,0.68791157,0.10870828,-0.7168833,0.032228015,9.691118240356445,1.2494499683380127,-0.454266220331192,0.41705796122550964,0.32974427938461304, 1.9885122776031494
121,69938858,0.68792486,0.108628824,-0.71687543,0.032388393,9.667160034179688,1.2385444641113281,-0.4952920079231262,0.08387517929077148,0.20544585585594177, 1.96697199344635
122,69955525,0.68792796,0.108417645,-0.7169033,0.03241159,9.667996406555176,1.2080665826797485,-0.48063966631889343,-0.05098207667469978,0.03400725871324539, 1.9451243877410889
123,69972192,0.6879131,0.1083082,-0.7169292,0.03251897,9.651395797729492,1.225501298904419,-0.5387547612190247,0.06516510993242264,-0.08868397027254105, 1.8927719593048096
124,69988859,0.6879,0.10825953,-0.71694136,0.032691386,9.644811630249023,1.2325012683868408,-0.5260039567947388,0.18463553488254547,-0.028903929516673088, 1.9245702028274536
125,70005526,0.68787646,0.10822599,-0.71696025,0.032881565,9.667037963867188,1.2415589094161987,-0.46888935565948486,-0.14838716387748718,-0.15129421651363373, 1.9765766859054565
126,70022193,0.6878446,0.10821685,-0.7169822,0.033100422,9.702855110168457,1.2052568197250366,-0.49437710642814636,0.20168077945709229,-0.1844242364168167, 2.0018563270568848
127,70038860,0.6877921,0.108276,-0.7170099,0.033396047,9.689749717712402,1.2259196043014526,-0.4794979393482208,0.37966349720954895,-0.3257679343223572, 2.0726118087768555
128,70055527,0.6877534,0.10829426,-0.717034,0.033616386,9.679698944091797,1.2444450855255127,-0.4963535666465759,0.3883461058139801,-0.23011726140975952, 1.891452670097351
129,70072194,0.6877432,0.10819779,-0.71705365,0.03371475,9.682332992553711,1.1699268817901611,-0.5409114956855774,0.36279743909835815,-0.017877662554383278, 1.8218759298324585
130,70088861,0.68774045,0.10861719,-0.71696424,0.034319624,9.672186851501465,1.2261520624160767,-0.551007091999054,0.5776111483573914,0.3157085180282593, 1.843275547027588
131,70105528,0.6877643,0.10865844,-0.7169226,0.034578826,9.684744834899902,1.2477657794952393,-0.517069399356842,0.7698473930358887,0.4317212998867035, 1.9185768365859985
132,70122195,0.68778676,0.10858944,-0.71690005,0.034815807,9.73469352722168,1.1189621686935425,-0.4910886883735657,0.65635746717453,0.39731061458587646, 2.3557090759277344
133,70138862,0.6878006,0.10872889,-0.7168499,0.03513838,9.61734390258789,1.2634494304656982,-0.5196733474731445,0.9286715984344482,0.38403040170669556, 1.776323914527893
134,70155529,0.68782437,0.10898765,-0.7167675,0.035551816,9.653833389282227,1.1903597116470337,-0.5620269179344177,0.866932213306427,0.5185867547988892, 1.6600677967071533
135,70172196,0.6878677,0.109014586,-0.71671116,0.035765804,9.666586875915527,1.2126410007476807,-0.49963322281837463,0.6919205188751221,0.5956040024757385, 1.782611608505249
136,70188863,0.6879027,0.10904095,-0.71666044,0.03602549,9.681270599365234,1.1804498434066772,-0.5301742553710938,1.2048791646957397,0.5914292931556702, 2.002701997756958
137,70205530,0.6879559,0.10886304,-0.71663123,0.0361287,9.709650993347168,1.1871753931045532,-0.452461838722229,1.8971132040023804,0.7573994994163513, 2.1626787185668945
138,70222197,0.6879999,0.10892416,-0.71656686,0.036383003,9.63644790649414,1.2483742237091064,-0.5087651014328003,0.7190700769424438,0.625353217124939, 1.840650200843811
139,70238864,0.68804014,0.10890876,-0.71652067,0.036577705,9.675848007202148,1.207758903503418,-0.4844343662261963,0.7256013751029968,0.5615904927253723, 1.9288734197616577
140,70255531,0.6880878,0.10886231,-0.71647304,0.036751743,9.65308952331543,1.2005456686019897,-0.49015578627586365,0.7382797598838806,0.6224718689918518, 1.9772173166275024
141,70272198,0.6881054,0.108932875,-0.71643275,0.036998518,9.639876365661621,1.1879850625991821,-0.5545032024383545,1.7980564832687378,0.47714537382125854, 1.7609691619873047
142,70288865,0.6876133,0.112910576,-0.71610236,0.040456332,9.653112411499023,1.0236343145370483,-0.6408545970916748,31.333721160888672,0.24645264446735382, -2.105499505996704
143,70305532,0.6873516,0.116945304,-0.7155248,0.043540638,9.603348731994629,1.1969144344329834,-0.15627247095108032,34.285400390625,2.7135167121887207, -4.646918773651123
144,70322199,0.68706465,0.11890856,-0.71539396,0.044884946,9.673367500305176,1.1977627277374268,-0.24486683309078217,19.089561462402344,0.005986976437270641, -2.472781181335449
145,70338866,0.686713,0.11954916,-0.71560365,0.045219176,9.646461486816406,1.1258920431137085,-0.49463900923728943,9.715583801269531,-2.1620326042175293, -0.5342682600021362
146,70355533,0.6863165,0.12030908,-0.7158104,0.045945745,9.589590072631836,1.248199224472046,-0.5902252197265625,5.410855770111084,-2.769667863845825, 1.1078965663909912
147,70372200,0.6860448,0.119738564,-0.71618927,0.04558914,9.568010330200195,1.230542540550232,-0.6477696299552917,1.0772125720977783,-2.6928553581237793, 2.2548844814300537
148,70388867,0.6857314,0.12013254,-0.71637326,0.04637013,9.706070899963379,1.2431786060333252,-0.5754492878913879,-0.5570634007453918,-2.522966146469116, 3.387221574783325
149,70405534,0.6854758,0.11938097,-0.7167568,0.046163734,9.716390609741211,1.4691102504730225,-0.3560399115085602,-3.6907644271850586,-2.906580924987793, 4.130016326904297
150,70422201,0.68529594,0.11807554,-0.71718794,0.04548903,9.766353607177734,1.1169679164886475,-0.604118824005127,-8.207169532775879,-2.9347424507141113, 4.664823532104492
151,70438868,0.68504775,0.11838997,-0.7173228,0.04627545,9.782440185546875,1.3192193508148193,-0.5745630860328674,5.736457824707031,-1.2958362102508545, 3.404280185699463
152,70455535,0.68492,0.118473224,-0.71738845,0.04693276,9.646902084350586,1.4486732482910156,-0.4285780191421509,7.340353012084961,-0.07774737477302551, 3.6608948707580566
153,70472202,0.6846988,0.11812162,-0.71763325,0.047302257,9.601515769958496,1.3165675401687622,-0.5253607034683228,1.712074637413025,-1.696367621421814, 4.776979923248291
154,70488869,0.68433964,0.1177117,-0.7180104,0.04779564,9.665629386901855,1.0688211917877197,-0.6146334409713745,-0.16200034320354462,-3.099815607070923, 5.950605392456055
155,70505536,0.6839756,0.11711436,-0.7184328,0.048126765,9.680329322814941,1.0200872421264648,-0.7085738182067871,-0.7045671343803406,-3.2964322566986084, 6.084868431091309
156,70522203,0.6836855,0.11644127,-0.71880215,0.04836739,9.691217422485352,0.9364296197891235,-0.6935534477233887,-1.8933167457580566,-2.7533271312713623, 5.986617565155029
157,70538870,0.68346715,0.11559995,-0.7191463,0.048353147,9.69808292388916,0.9683390259742737,-0.6165900230407715,-3.3472471237182617,-2.3644495010375977, 5.5317606925964355
158,70555537,0.68329775,0.114587925,-0.7194893,0.04805196,9.74061393737793,0.9923775792121887,-0.5606797337532043,-6.020534992218018,-2.3258512020111084, 5.033747673034668
159,70572204,0.6830481,0.11413673,-0.7197905,0.0481655,9.769037246704102,1.0309562683105469,-0.6246311664581299,-0.23107779026031494,-2.2991371154785156, 4.137430667877197
160,70588871,0.6824795,0.11473683,-0.72016066,0.04925425,9.562796592712402,1.255721926689148,-0.40242964029312134,9.54245662689209,-3.8024628162384033, 3.6900553703308105
161,70605538,0.68171704,0.11490965,-0.72079784,0.05008297,9.569413185119629,1.3830751180648804,-0.3436768054962158,5.4978508949279785,-6.158613681793213, 4.931399822235107
162,70622205,0.68078816,0.114321835,-0.72174555,0.050416134,9.635429382324219,1.1963164806365967,-0.45270898938179016,0.9418882131576538,-8.464654922485352, 6.610287666320801
163,70638872,0.67974097,0.113719225,-0.72278994,0.0509394,9.760699272155762,1.0786426067352295,-0.6335976719856262,-0.5084892511367798,-9.561969757080078, 7.868117809295654
164,70655539,0.67866564,0.1136721,-0.7237308,0.052014843,9.957137107849121,0.9730123281478882,-0.7869769930839539,6.27839994430542,-8.869887351989746, 7.52692985534668
165,70672206,0.67753035,0.11484568,-0.72443384,0.05439395,9.850629806518555,1.0522279739379883,-0.46477243304252625,18.899456024169922,-7.44691801071167, 7.348827838897705
166,70688873,0.675775,0.11743133,-0.72533274,0.05857198,9.533304214477539,1.5052226781845093,-0.3303641676902771,36.09299087524414,-10.474212646484375, 8.990789413452148
167,70705540,0.6734191,0.11766011,-0.7272003,0.06198923,9.494290351867676,2.1000876426696777,-0.1886569708585739,23.9755916595459,-17.481304168701172, 18.052207946777344
168,70722207,0.67069304,0.11553195,-0.729907,0.06371297,9.787938117980957,1.8330641984939575,0.21366845071315765,3.4972290992736816,-23.71476173400879, 22.973318099975586
169,70738874,0.66749495,0.11362579,-0.73296136,0.065630354,9.939264297485352,0.9126412868499756,-0.22559097409248352,1.4461829662322998,-27.973691940307617, 23.68352508544922
170,70755541,0.66361094,0.11267355,-0.73642045,0.067899264,9.944162368774414,1.2884833812713623,-1.1723214387893677,8.616705894470215,-33.44611358642578, 21.0601806640625
171,70772208,0.65969086,0.11306155,-0.7396051,0.07077871,9.830439567565918,1.5013920068740845,-0.7267048358917236,18.043901443481445,-32.5144157409668, 16.89358901977539
172,70788875,0.6558639,0.11461922,-0.74247366,0.073742606,9.966517448425293,1.649640679359436,-0.9569629430770874,22.833141326904297,-31.174278259277344, 11.218239784240723
173,70805542,0.6520381,0.11548427,-0.7453976,0.07675964,10.510525703430176,0.5752906799316406,-1.0661262273788452,20.695287704467773,-31.00206756591797, 15.008657455444336
174,70822209,0.64772576,0.11597772,-0.74863404,0.08091815,10.121417045593262,0.9094694256782532,-0.7906944155693054,25.79530143737793,-33.78093719482422, 22.437026977539062
175,70838876,0.64314467,0.11651118,-0.75200427,0.08532192,10.228049278259277,1.1222262382507324,-0.8749788999557495,26.924087524414062,-35.632843017578125, 23.66939926147461
176,70855543,0.6386573,0.117009446,-0.75528795,0.089252524,10.42111587524414,1.1149213314056396,1.2773631811141968,23.87428092956543,-35.16499710083008, 21.745834350585938
177,70872210,0.63557184,0.11851546,-0.75726485,0.092481256,9.965081214904785,1.1442245244979858,2.0577118396759033,24.929397583007812,-23.482868194580078, 11.46307373046875
178,70888877,0.6343351,0.12100741,-0.7577052,0.09412327,10.20622444152832,1.5098395347595215,2.505014181137085,20.35953712463379,-9.271236419677734, -2.966775417327881
179,70905544,0.63540584,0.12423003,-0.7561869,0.09490941,10.108104705810547,1.193041443824768,3.7376115322113037,18.391218185424805,9.870752334594727, -13.549147605895996
180,70922211,0.6388222,0.12757605,-0.752682,0.09539718,10.070737838745117,1.2244049310684204,3.752814769744873,16.79886245727539,30.110456466674805, -18.692399978637695
181,70938878,0.64450234,0.12967785,-0.74758464,0.09443522,10.225362777709961,1.7256349325180054,3.6756808757781982,2.880695104598999,48.068241119384766, -21.45212745666504
182,70955545,0.6522153,0.12940702,-0.74132264,0.09115881,10.63110637664795,1.5577141046524048,3.7991840839385986,-20.56802749633789,62.86526107788086, -21.808074951171875
183,70972212,0.66154385,0.12711352,-0.73398155,0.0864479,10.999712944030762,1.3996049165725708,3.558638095855713,-37.712589263916016,75.6356201171875, -19.86610984802246
184,70988879,0.67149544,0.12561545,-0.72555244,0.08299658,10.82778549194336,1.0481562614440918,2.6667964458465576,-27.641937255859375,84.0875244140625, -19.45290756225586
185,71005546,0.6818602,0.12374348,-0.7165276,0.07964179,10.842849731445312,1.1123313903808594,1.4335885047912598,-28.91289710998535,88.99894714355469, -17.895191192626953
186,71022213,0.69252944,0.12114566,-0.7071347,0.07541649,10.83852767944336,1.440232276916504,0.961240828037262,-36.67878341674805,91.77191162109375, -18.887004852294922
187,71038880,0.7035571,0.11835995,-0.69714546,0.07061753,10.807106018066406,1.1553839445114136,0.9548567533493042,-40.36981964111328,95.90536499023438, -21.384084701538086
188,71055547,0.7148852,0.116624124,-0.68621135,0.06672593,10.69957447052002,0.8174566626548767,0.8012003898620605,-30.746978759765625,102.09754943847656, -22.95633316040039
189,71072214,0.7258263,0.11685735,-0.6748308,0.06421981,10.607832908630371,0.851186990737915,0.6119012832641602,-14.035950660705566,102.65962982177734, -25.643924713134766
190,71088881,0.7357429,0.119552106,-0.6636236,0.06319581,10.496777534484863,0.8259412050247192,0.03614257276058197,5.854578018188477,97.16631317138672, -29.091896057128906
191,71105548,0.74526286,0.12332222,-0.6522645,0.062659495,10.640639305114746,1.1133334636688232,0.06005138158798218,13.89420223236084,96.1353988647461, -31.49492835998535
192,71122215,0.75433636,0.12788834,-0.64090127,0.062187318,10.48668384552002,1.3076188564300537,0.09600338339805603,18.621492385864258,93.95995330810547, -34.54525375366211
193,71138882,0.7632443,0.13312261,-0.62920165,0.061984006,10.250380516052246,1.3630584478378296,0.46139875054359436,23.539968490600586,95.03297424316406, -36.31092071533203
194,71155549,0.7714457,0.13880081,-0.6178794,0.061896183,9.92588996887207,1.6627944707870483,0.44259166717529297,26.83526611328125,90.01326751708984, -36.9713249206543
195,71172216,0.7791073,0.1439904,-0.6070359,0.061371576,9.789657592773438,1.5266973972320557,0.6354019641876221,22.675525665283203,85.08168029785156, -36.50856018066406
196,71188883,0.7861257,0.14920804,-0.5966582,0.06117616,9.588143348693848,1.2606397867202759,0.7952378392219543,24.61606216430664,80.32649230957031, -34.12886428833008
197,71205550,0.7924888,0.15448466,-0.5867964,0.061370898,9.318323135375977,1.2967840433120728,0.7269306778907776,26.972061157226562,75.33547973632812, -31.475112915039062
198,71222217,0.79820794,0.1597948,-0.5775011,0.061824676,9.194954872131348,1.401152491569519,0.4006790816783905,28.62261962890625,70.03114318847656, -29.346294403076172
199,71238884,0.80284667,0.16542104,-0.5693396,0.06265707,8.925376892089844,1.4325084686279297,0.07514679431915283,32.54158401489258,59.944881439208984, -26.83787727355957
200,71255551,0.80671805,0.17058879,-0.56220984,0.06345097,8.947012901306152,1.3301608562469482,-0.00443604588508606,30.258407592773438,51.560874938964844, -23.774003982543945
201,71272218,0.8093991,0.17708825,-0.5561148,0.06518684,8.751531600952148,1.2209267616271973,0.12306474149227142,42.20398712158203,41.91727828979492, -21.996522903442383
202,71288885,0.81092876,0.18422401,-0.5512971,0.06728986,8.624947547912598,1.3446389436721802,-0.05067163705825806,47.957130432128906,30.734506607055664, -20.353830337524414
203,71305552,0.8118949,0.19064258,-0.5474449,0.06918387,8.642444610595703,1.4486223459243774,-0.1503184288740158,43.40980529785156,23.45725440979004, -17.354475021362305
204,71322219,0.8123804,0.19640385,-0.5444935,0.07064712,8.26196002960205,1.563475489616394,-0.004311750642955303,38.29376983642578,16.543466567993164, -15.915520668029785
205,71338886,0.81240946,0.20138675,-0.54253036,0.071381986,8.210619926452637,1.4083852767944336,-0.008036227896809578,31.33292007446289,8.868661880493164, -15.548579216003418
206,71355553,0.8121559,0.2054299,-0.5413801,0.07147674,8.20798397064209,0.9700380563735962,-0.1995936930179596,23.668306350708008,3.00321888923645, -14.401153564453125
207,71372220,0.81165564,0.20897345,-0.54081875,0.07113835,8.108838081359863,1.1292965412139893,-0.32419711351394653,19.311725616455078,-1.411365032196045, -14.077485084533691
208,71388887,0.8108013,0.21170492,-0.54116446,0.07016824,7.9450554847717285,1.165413737297058,-0.4885942041873932,12.478389739990234,-8.141891479492188, -13.169633865356445
209,71405554,0.8097988,0.21233624,-0.5426917,0.068011016,8.152162551879883,1.0163358449935913,-0.5932177901268005,-4.019252777099609,-15.837723731994629, -10.241507530212402
210,71422221,0.80869514,0.21089074,-0.5453024,0.06467345,8.264644622802734,0.972710132598877,-0.7525931596755981,-20.36171531677246,-22.84132957458496, -7.502113342285156
211,71438888,0.8075554,0.20804335,-0.5485571,0.060476594,8.458269119262695,0.7001199126243591,-0.5880939960479736,-31.629024505615234,-27.017621994018555, -6.140722274780273
212,71455555,0.80591017,0.2047863,-0.55259883,0.05662222,8.641776084899902,-0.07947859913110733,-0.9160141944885254,-32.22594451904297,-32.480281829833984, -1.4357432126998901
213,71472222,0.80322254,0.2044039,-0.5567456,0.055563558,11.00146770477295,1.0729657411575317,0.6321427822113037,-4.25152063369751,-34.03433609008789, 3.5718400478363037
214,71488889,0.80271,0.216366,-0.5524434,0.060406636,13.877036094665527,9.79971694946289,25.32170867919922,86.67888641357422,24.662639617919922, -23.90401268005371
215,71505556,0.800433,0.22416013,-0.55253446,0.061358947,6.562162399291992,-2.4357213973999023,0.5438305139541626,49.900726318359375,-11.316751480102539, -22.04408073425293
216,71522223,0.79434294,0.23678313,-0.554633,0.07304365,11.275365829467773,0.8671490550041199,3.943148136138916,122.32453918457031,-22.262943267822266, 23.167190551757812
217,71538890,0.78658694,0.24703892,-0.56017256,0.08037251,11.031868934631348,4.9057745933532715,3.3257429599761963,93.81216430664062,-53.32595443725586, 14.71196460723877
218,71555557,0.78022444,0.2503249,-0.5669067,0.08487789,10.081433296203613,0.35934963822364807,2.667842388153076,42.20571517944336,-55.36859130859375, 27.60405158996582
219,71572224,0.7728167,0.2556495,-0.57399637,0.0890291,9.55038070678711,3.0909459590911865,0.5559477806091309,53.38749313354492,-63.146942138671875, 18.84537124633789
220,71588891,0.7666382,0.25822884,-0.58100665,0.089528546,9.157413482666016,4.26672887802124,-0.052622806280851364,22.254579544067383,-62.532047271728516, 9.388516426086426
221,71605558,0.76090914,0.25979325,-0.5879312,0.0886684,9.044073104858398,4.688642978668213,-1.9645341634750366,10.695456504821777,-61.98293685913086, 5.9144206047058105
222,71622225,0.75522155,0.26155725,-0.5945493,0.087974526,10.180177688598633,2.9811110496520996,-1.2207483053207397,12.468497276306152,-59.869041442871094, 5.497051239013672
223,71638892,0.74929893,0.26344004,-0.60095525,0.08946261,10.317670822143555,2.5631191730499268,0.43623054027557373,22.52604103088379,-55.74064636230469, 16.097307205200195
224,71655559,0.743605,0.2636805,-0.60756624,0.09158469,9.810848236083984,3.861161947250366,0.21523615717887878,16.142654418945312,-53.643577575683594, 26.35287094116211
225,71672226,0.7383635,0.2609389,-0.6151367,0.091308996,9.44367504119873,5.260822772979736,-0.7869076728820801,-10.551019668579102,-59.0842170715332, 28.050697326660156
226,71688893,0.73392296,0.25555357,-0.62284833,0.0900528,8.812445640563965,4.117372512817383,0.46316105127334595,-29.66269302368164,-56.436710357666016, 34.12885284423828
227,71705560,0.7301138,0.24913786,-0.63027114,0.087307505,8.651342391967773,3.656780481338501,0.1654128134250641,-42.16355514526367,-54.24757385253906, 30.21188735961914
228,71722227,0.72650135,0.2430494,-0.63721186,0.08416606,9.025346755981445,2.342608690261841,0.07704346626996994,-42.280094146728516,-51.83887481689453, 25.929658889770508
229,71738894,0.723009,0.23726016,-0.6438162,0.080415614,8.848634719848633,2.060828685760498,0.10321574658155441,-43.450042724609375,-50.80870056152344, 20.952682495117188
230,71755561,0.71993154,0.23139083,-0.64996356,0.07552822,8.89383602142334,1.7630813121795654,0.4527041018009186,-49.29658889770508,-48.504825592041016, 14.680400848388672
231,71772228,0.71748704,0.22384141,-0.65601426,0.06894031,10.965977668762207,-0.1188068836927414,1.0883690118789673,-66.15650177001953,-47.04536437988281, 13.277856826782227
232,71788895,0.71489066,0.21621457,-0.66206706,0.06204859,10.443709373474121,-0.41086360812187195,0.6480985879898071,-67.65867614746094,-48.210689544677734, 12.087438583374023
233,71805562,0.7122066,0.20988284,-0.66754615,0.055615988,9.948626518249512,0.6655609011650085,-0.45923933386802673,-58.8166389465332,-45.67975997924805, 7.512206077575684
234,71822229,0.71009,0.20401816,-0.67203665,0.050158232,9.830231666564941,2.699965715408325,-1.120362639427185,-52.497867584228516,-36.98145294189453, 8.434712409973145
235,71838896,0.7083536,0.19834249,-0.67588246,0.045590498,9.686633110046387,2.2535719871520996,-0.904203474521637,-47.77806854248047,-30.847606658935547, 10.902256965637207
236,71855563,0.70622146,0.19457407,-0.6793831,0.0427915,9.82158088684082,1.8619097471237183,-0.6800650358200073,-29.62555694580078,-29.156991958618164, 10.31762409210205
237,71872230,0.7038122,0.19165005,-0.682854,0.040365826,9.71544361114502,2.0645132064819336,-0.21805566549301147,-23.40320587158203,-30.033971786499023, 8.218244552612305
238,71888897,0.70121896,0.19005127,-0.6860559,0.038733482,9.711156845092773,1.435500144958496,-0.7145634889602661,-12.945703506469727,-28.91975975036621, 5.5309343338012695
239,71905564,0.69847745,0.19002299,-0.6888821,0.038236484,9.699124336242676,1.7240110635757446,-0.8680618405342102,0.27273112535476685,-26.72301483154297, 3.115607500076294
240,71922231,0.69565463,0.19116119,-0.6913909,0.038741965,9.599443435668945,2.0656204223632812,-0.7861272096633911,10.809605598449707,-24.5578670501709, 1.9929229021072388
241,71938898,0.69298124,0.19215135,-0.6937798,0.03904536,9.558677673339844,2.258244276046753,-0.6940971612930298,8.975049018859863,-23.485177993774414, 1.5290366411209106
242,71955565,0.69041306,0.19317514,-0.6960211,0.039598584,9.583512306213379,2.36289381980896,-0.6808173060417175,10.227754592895508,-21.952768325805664, 2.3411271572113037
243,71972232,0.6880499,0.19391656,-0.6981186,0.040176276,9.508563041687012,2.462364435195923,-0.9048047065734863,8.773446083068848,-20.176708221435547, 3.570896863937378
244,71988899,0.68584794,0.1945369,-0.7000679,0.04090398,9.470566749572754,2.3467953205108643,-0.8847867846488953,8.747718811035156,-18.45834732055664, 4.634299278259277
245,72005566,0.68368125,0.19536252,-0.7018934,0.041943055,9.487377166748047,1.9905592203140259,-0.77492755651474,11.20276165008545,-17.339963912963867, 4.9487714767456055
246,72022233,0.6816056,0.1961541,-0.703615,0.043165214,9.515435218811035,2.392164707183838,-0.8518213033676147,11.835537910461426,-16.156864166259766, 5.8020734786987305
247,72038900,0.67961454,0.19650784,-0.7053713,0.044275254,9.443379402160645,2.4758405685424805,-0.9984281659126282,9.119702339172363,-15.931363105773926, 7.42857027053833
248,72055567,0.6776738,0.19668011,-0.70712113,0.045333482,9.444404602050781,2.1850624084472656,-1.1582194566726685,7.958280563354492,-15.66835880279541, 8.059436798095703
249,72072234,0.67596763,0.19684419,-0.7086355,0.04643574,9.549994468688965,1.9420994520187378,-1.231006145477295,7.890966415405273,-13.359546661376953, 7.91874361038208
250,72088901,0.674382,0.197112,-0.70999,0.047646053,9.488860130310059,2.0268735885620117,-1.129833459854126,8.787731170654297,-11.906957626342773, 7.6561102867126465
251,72105568,0.6728178,0.19743414,-0.71129,0.04901618,9.443058013916016,2.1314523220062256,-1.1718153953552246,9.80936050415039,-11.345873832702637, 8.050944328308105
252,72122235,0.67125255,0.19762042,-0.71262,0.050387334,9.453741073608398,2.2137086391448975,-1.078113317489624,9.179338455200195,-11.438770294189453, 8.766692161560059
253,72138902,0.66956633,0.19789372,-0.71401674,0.051954158,9.43352222442627,1.819122076034546,-0.995566725730896,10.684074401855469,-12.106060028076172, 9.385520935058594
254,72155569,0.6677907,0.19820383,-0.71546715,0.053645834,9.446463584899902,2.060666561126709,-1.0202422142028809,11.57209587097168,-12.640717506408691, 9.878389358520508
255,72172236,0.66597384,0.19823629,-0.71702266,0.055317137,9.416279792785645,2.1870245933532715,-1.122951865196228,10.219473838806152,-13.26004695892334, 11.314138412475586
256,72188903,0.66403216,0.19804981,-0.7187313,0.057125516,9.315679550170898,2.0077621936798096,-1.1539174318313599,10.008927345275879,-14.310070037841797, 13.288755416870117
257,72205570,0.66169995,0.19782802,-0.7207829,0.05907259,9.380370140075684,2.0869710445404053,-0.8735736012458801,10.934860229492188,-17.60737419128418, 14.7235746383667
258,72222237,0.6591266,0.19723046,-0.7231612,0.0607474,9.365378379821777,2.157440185546875,-0.9691789746284485,8.079964637756348,-20.52553367614746, 15.899643898010254
259,72238904,0.6563162,0.19650374,-0.72577655,0.062322684,9.395051002502441,1.7542608976364136,-1.3183538913726807,7.230556964874268,-22.875333786010742, 16.526470184326172
260,72255571,0.6532915,0.1960008,-0.7284896,0.06400732,9.449230194091797,1.5825705528259277,-1.3511385917663574,9.039358139038086,-24.338096618652344, 16.12763214111328
261,72272238,0.65004253,0.19555323,-0.73136324,0.06566323,9.502520561218262,1.6297540664672852,-1.3634793758392334,9.380038261413574,-26.2528018951416, 16.03196144104004
262,72288905,0.64657617,0.1947804,-0.73451537,0.06698755,9.444513320922852,2.0108582973480225,-1.4343031644821167,6.4307403564453125,-28.89735984802246, 16.65669059753418
263,72305572,0.6430081,0.19372831,-0.73780096,0.06826211,9.37679672241211,1.866759181022644,-1.5597856044769287,5.020744800567627,-29.95282554626465, 18.087684631347656
264,72322239,0.6392353,0.19250835,-0.7412727,0.06952422,9.488251686096191,1.6840016841888428,-1.530378818511963,4.408229351043701,-31.759246826171875, 19.24107551574707
265,72338906,0.6354729,0.19093609,-0.74476737,0.07098857,9.582048416137695,1.8383510112762451,-1.455525517463684,3.873819589614868,-31.384490966796875, 21.957616806030273
266,72355573,0.6316797,0.18916628,-0.74823165,0.07311876,9.355274200439453,1.7839564085006714,-1.8015844821929932,6.4854736328125,-30.458030700683594, 25.866945266723633
267,72372240,0.6276053,0.18708289,-0.7519695,0.07519053,9.320365905761719,1.4916800260543823,-1.7985661029815674,5.061698913574219,-33.01875305175781, 27.738821029663086
268,72388907,0.6231509,0.18478638,-0.7560288,0.07718618,9.367546081542969,1.3068209886550903,-1.7738878726959229,4.080038070678711,-36.36982727050781, 29.129005432128906
269,72405574,0.618134,0.18230385,-0.7605304,0.07917954,9.394545555114746,1.5703880786895752,-1.7275053262710571,3.7602295875549316,-41.10966110229492, 30.94865608215332
270,72422241,0.6122924,0.17952958,-0.7656907,0.081150256,9.284111976623535,1.7850216627120972,-1.6786186695098877,3.0896782875061035,-48.112850189208984, 33.667236328125
271,72438908,0.60527515,0.17676088,-0.77162945,0.08358186,9.340800285339355,1.345917820930481,-1.82379150390625,6.574190616607666,-57.04216003417969, 37.22040557861328
272,72455575,0.5971514,0.17429279,-0.77820307,0.08621155,9.864311218261719,1.275650143623352,-1.9420045614242554,9.870857238769531,-65.51373291015625, 37.86870193481445
273,72472242,0.58869493,0.17124707,-0.78498644,0.08893396,11.404532432556152,1.0247019529342651,-2.293018341064453,8.286016464233398,-67.7369613647461, 41.79829788208008
274,72488909,0.58021367,0.16836013,-0.791545,0.0919982,12.195952415466309,0.27885812520980835,-1.9093890190124512,10.953829765319824,-66.70101165771484, 42.07521057128906
275,72505576,0.57094425,0.16603962,-0.79826355,0.096068464,12.967754364013672,1.205957055091858,-1.0561294555664062,19.507062911987305,-70.89689636230469, 43.66390609741211
276,72522243,0.5607448,0.16276269,-0.8057102,0.099522285,13.083045959472656,1.9137241840362549,-1.154754400253296,12.968510627746582,-79.0571060180664, 47.95058822631836
277,72538910,0.54921687,0.15906423,-0.8139164,0.102953896,13.256563186645508,2.1532182693481445,-1.2423453330993652,12.214425086975098,-89.21538543701172, 52.002193450927734
278,72555577,0.53667235,0.15503095,-0.8225079,0.10690704,13.66025161743164,1.8241450786590576,-1.5119342803955078,14.738694190979004,-95.69570922851562, 57.042877197265625
279,72572244,0.52324957,0.15033616,-0.83131224,0.111934744,13.48398494720459,1.510520577430725,-1.7076951265335083,19.183130264282227,-99.96566009521484, 65.67207336425781
280,72588911,0.50952953,0.1448659,-0.83994055,0.11787136,13.040218353271484,1.9446548223495483,-2.1899306774139404,22.055076599121094,-99.6482162475586, 73.46897888183594
281,72605578,0.49566334,0.14020567,-0.8481504,0.123699896,12.58559799194336,1.7158417701721191,-2.1103928089141846,24.785707473754883,-99.92976379394531, 68.18439483642578
282,72622245,0.4811714,0.13739797,-0.8558643,0.13073833,12.357808113098145,1.4682259559631348,-1.6676398515701294,39.21095657348633,-102.44213104248047, 61.63029861450195
283,72638912,0.4660946,0.13536191,-0.8631554,0.13926901,11.969823837280273,1.078235387802124,-1.627570390701294,51.50548553466797,-103.92987823486328, 62.22682189941406
284,72655579,0.45120418,0.13408022,-0.8693978,0.15028296,11.952743530273438,1.0662904977798462,-2.7583718299865723,69.51337432861328,-98.03433227539062, 64.62694549560547
285,72672246,0.43624136,0.13380383,-0.87502533,0.16162,10.488385200500488,0.6288226842880249,-3.811116933822632,75.29329681396484,-97.4297866821289, 59.21552658081055
286,72688913,0.42143598,0.13440989,-0.879836,0.17382316,10.013948440551758,0.29651591181755066,-3.0855801105499268,83.94535064697266,-94.28931427001953, 55.65788650512695
287,72705580,0.40880558,0.13600755,-0.88305324,0.1860038,8.663250923156738,-0.1117241233587265,-3.0848100185394287,86.5984115600586,-77.80686950683594, 45.60077667236328
288,72722247,0.39652795,0.13852066,-0.88518006,0.20008567,7.227419853210449,-0.5645184516906738,-4.593585968017578,101.79756164550781,-72.05289459228516, 43.98759841918945
289,72738914,0.3846249,0.14228116,-0.88647264,0.21444409,6.6224045753479,0.32805290818214417,-4.279806137084961,107.69831085205078,-68.93711853027344, 35.898719787597656
290,72755581,0.37391406,0.14620823,-0.88810676,0.22378117,5.389888286590576,0.40885278582572937,-5.068135738372803,75.90943908691406,-67.71760559082031, 20.25886344909668
291,72772248,0.36602798,0.15054443,-0.8895853,0.2280308,6.227599143981934,-0.6415100693702698,-4.949411392211914,43.360416412353516,-55.76422882080078, 0.24002723395824432
292,72788915,0.3603287,0.15568277,-0.89067966,0.229382,5.652193069458008,-1.189172387123108,-2.592902421951294,26.036462783813477,-45.66314697265625, -15.751898765563965
293,72805582,0.35733628,0.161586,-0.890898,0.22913268,5.566077709197998,-1.1556198596954346,-1.0061569213867188,16.627761840820312,-29.873342514038086, -29.59931182861328
294,72822249,0.35807073,0.16773264,-0.8901629,0.22640924,5.164989948272705,-1.425166368484497,-0.23162733018398285,-0.5712825059890747,-7.9118571281433105, -44.09366226196289
295,72838916,0.36242554,0.17461887,-0.88796896,0.22286141,4.640235424041748,-1.8095909357070923,-0.6972965598106384,-5.719388961791992,15.647799491882324, -57.97689437866211
296,72855583,0.36921996,0.18295181,-0.8844031,0.2191724,4.34889554977417,-1.731661081314087,-2.0967555046081543,-3.8226516246795654,31.512296676635742, -72.57198333740234
297,72872250,0.37947896,0.19210696,-0.87924755,0.21450987,4.450422286987305,-1.1800719499588013,-2.619713544845581,-9.626855850219727,54.136539459228516, -87.28657531738281
298,72888917,0.39330822,0.2004333,-0.8731465,0.20676252,4.9494709968566895,-0.7362061738967896,-2.9234230518341064,-33.755043029785156,75.32933807373047, -96.85498809814453
299,72905584,0.4108617,0.20781499,-0.8656913,0.19642903,5.796314239501953,0.006019191816449165,-2.197577953338623,-55.03862762451172,99.11935424804688, -105.34575653076172
300,72922251,0.43177485,0.21410045,-0.856525,0.18465295,6.431014060974121,-0.008884632028639317,-1.301484227180481,-69.20372009277344,123.32437896728516, -109.87385559082031
301,72938918,0.45519334,0.21945393,-0.8453718,0.17316432,7.03236722946167,-0.5328580737113953,-1.473364233970642,-71.44759368896484,145.50839233398438, -109.63864135742188
302,72955585,0.48060763,0.22401176,-0.8321007,0.16261436,7.799862384796143,-0.5787951946258545,-1.9382497072219849,-68.98802947998047,166.02943420410156, -107.66818237304688
303,72972252,0.50754505,0.22837353,-0.81644356,0.15383062,8.798495292663574,-0.0650571882724762,-2.074143409729004,-59.226654052734375,185.51060485839844, -106.11400604248047
304,72988919,0.53535426,0.2328327,-0.79852617,0.14676802,9.90243148803711,0.2721967101097107,-2.162017583847046,-48.223148345947266,200.84056091308594, -105.13572692871094
305,73005586,0.5633029,0.23749042,-0.7786303,0.14150375,10.956944465637207,0.24727079272270203,-2.481651782989502,-35.862186431884766,211.52163696289062, -102.91731262207031
306,73022253,0.59120303,0.24180982,-0.7570429,0.13745251,11.913923263549805,0.42713481187820435,-2.923511028289795,-28.977447509765625,220.100341796875, -99.1332015991211
307,73038920,0.61876947,0.2462323,-0.73380446,0.13425821,12.73763370513916,1.0039465427398682,-2.471010208129883,-22.011674880981445,226.40750122070312, -98.62940216064453
308,73055587,0.6458023,0.2505865,-0.7090871,0.13168778,13.548563957214355,0.9496667981147766,-1.9710773229599,-16.91550064086914,231.1376495361328, -97.64838409423828
309,73072254,0.6717189,0.25448206,-0.68347424,0.12998477,13.9248685836792,1.1749613285064697,-1.9266633987426758,-12.021000862121582,231.59988403320312, -92.11280822753906
310,73088921,0.69662255,0.2574113,-0.6572805,0.12821482,14.356600761413574,1.5637682676315308,-1.7950375080108643,-14.545418739318848,230.3119354248047, -88.01921081542969
311,73105588,0.72154844,0.2572877,-0.6305135,0.124995045,14.394262313842773,1.5601744651794434,-1.15456223487854,-35.30066680908203,233.3502197265625, -82.23765563964844
312,73122255,0.7444712,0.25732842,-0.6037993,0.12235803,13.273161888122559,0.9459676146507263,-1.8304461240768433,-28.50615119934082,225.35919189453125, -78.29536437988281
313,73138922,0.7640324,0.2595829,-0.57832783,0.12003463,12.735701560974121,0.49050137400627136,-2.8295533657073975,-11.01188850402832,203.84744262695312, -80.92131042480469
314,73155589,0.7803488,0.26525918,-0.5537659,0.11847734,12.435094833374023,0.4268520474433899,-2.906053066253662,15.004578590393066,184.87977600097656, -86.2823486328125
315,73172256,0.7931984,0.27430803,-0.53066635,0.11825686,11.627345085144043,0.27364441752433777,-2.722243547439575,43.27738571166992,163.7189483642578, -86.54218292236328
316,73188923,0.8031167,0.28482643,-0.5097614,0.1184102,11.026825904846191,0.9402263760566711,-2.1180520057678223,56.35613250732422,140.76058959960938, -83.43040466308594
317,73205590,0.8104884,0.29330176,-0.49340114,0.116783015,9.764078140258789,1.7315837144851685,-1.9348469972610474,40.07555389404297,105.09367370605469, -75.20313262939453
318,73222257,0.8155725,0.29841197,-0.48231703,0.11472586,8.942405700683594,1.0817906856536865,-1.5764707326889038,20.18946647644043,69.92656707763672, -53.76278305053711
319,73238924,0.8177255,0.30157146,-0.47691774,0.11370761,7.788346767425537,1.453499436378479,-0.7185661196708679,14.190349578857422,32.1453742980957, -27.565324783325195
320,73255591,0.8178032,0.30220002,-0.47680208,0.11194999,8.405369758605957,1.0443804264068604,-0.7860980033874512,-2.318385601043701,-3.810133934020996, -10.901281356811523
321,73272258,0.8170469,0.2987123,-0.48107076,0.108519636,8.50707721710205,0.3551049828529358,-1.2150366306304932,-32.609012603759766,-31.386823654174805, 2.8662290573120117
322,73288925,0.81583035,0.2921454,-0.4880954,0.10409223,8.274306297302246,-0.41968631744384766,-2.7504618167877197,-54.334938049316406,-48.01548767089844, 13.36587905883789
323,73305592,0.8134024,0.28445855,-0.4977945,0.09828958,8.113302230834961,-1.0685293674468994,-3.879004955291748,-64.7412109375,-68.8823013305664, 15.553986549377441
324,73322259,0.81000805,0.2743789,-0.51017416,0.091246165,8.367899894714355,-2.6921024322509766,-5.128906726837158,-82.32551574707031,-87.80366516113281, 22.60207748413086
325,73338926,0.80415326,0.27207753,-0.52092034,0.0891833,11.379767417907715,0.3092874586582184,-1.4861589670181274,-15.901093482971191,-82.59548950195312, 21.381235122680664
326,73355593,0.7958749,0.28612226,-0.5256466,0.09172248,10.104947090148926,12.422869682312012,13.431952476501465,99.16256713867188,-59.262969970703125, -21.59977912902832
327,73372260,0.7891239,0.28994152,-0.5335792,0.0922535,12.593116760253906,-8.346663475036621,1.6502529382705688,30.967432022094727,-69.07405090332031, 9.919906616210938
328,73388927,0.7754413,0.3047037,-0.5425874,0.10698304,12.684331893920898,-3.8447468280792236,0.3221830129623413,155.65423583984375,-78.91393280029297, 52.997901916503906
329,73405594,0.7615079,0.31993213,-0.5509659,0.119104214,13.480838775634766,0.2887239456176758,2.124239206314087,149.4124298095703,-82.2318344116211, 35.96528244018555
330,73422261,0.74780333,0.33398923,-0.5584527,0.13180335,10.87016487121582,0.5161351561546326,-1.8681920766830444,145.70379638671875,-74.46524810791016, 41.133811950683594
331,73438928,0.73499686,0.34714353,-0.56576246,0.13850603,10.09521484375,7.709900856018066,-5.819009780883789,116.09060668945312,-82.98487091064453, 12.440620422363281
332,73455595,0.72971696,0.34612763,-0.5745123,0.13283326,11.24268913269043,5.898646831512451,-3.02614426612854,-23.101938247680664,-76.85515594482422, 1.4079941511154175
333,73472262,0.7245232,0.34527105,-0.5820411,0.1307,10.820785522460938,-0.058739352971315384,-3.6711721420288086,-7.46842622756958,-62.00468444824219, 15.62179183959961
334,73488929,0.71745366,0.34715408,-0.5888416,0.13420172,10.604798316955566,1.8197757005691528,-2.439657688140869,33.79349136352539,-54.847103118896484, 32.59469223022461
335,73505596,0.70822126,0.35607973,-0.5930047,0.14133425,7.598501682281494,2.757516860961914,-1.3151509761810303,90.802001953125,-48.358665466308594, 17.638856887817383
336,73522263,0.70177555,0.36081433,-0.59689665,0.14504732,11.091859817504883,3.7144432067871094,0.733227014541626,49.87263488769531,-39.95554733276367, 14.700857162475586
337,73538930,0.6965559,0.3630783,-0.6010795,0.1472673,9.80466365814209,2.2062110900878906,0.6534261703491211,28.498014450073242,-37.59407043457031, 17.13239288330078
338,73555597,0.69194514,0.36412913,-0.60548925,0.14833997,9.050854682922363,3.637605667114258,-0.3470211923122406,16.202123641967773,-37.8253288269043, 16.57862091064453
339,73572264,0.6876297,0.3644936,-0.6099004,0.14943705,8.945954322814941,3.7239224910736084,-1.2156411409378052,12.295782089233398,-35.84380340576172, 19.280485153198242
340,73588931,0.68336886,0.36489308,-0.6140867,0.15085717,8.446016311645508,4.132267475128174,-1.080859899520874,13.903152465820312,-33.760459899902344, 20.072956085205078
341,73605598,0.6793997,0.3644657,-0.618459,0.15195267,9.173528671264648,3.261613130569458,-0.8055838942527771,7.721396446228027,-33.350372314453125, 22.251604080200195
342,73622265,0.67560863,0.3636721,-0.6228461,0.15283504,9.454442977905273,2.189537525177002,-0.6691116094589233,4.644050121307373,-32.810462951660156, 22.685110092163086
343,73638932,0.6718407,0.363104,-0.6270241,0.15370914,9.816190719604492,1.7658685445785522,-0.6719342470169067,5.818385124206543,-31.997732162475586, 21.125755310058594
344,73655599,0.66807234,0.36285335,-0.63091654,0.15479511,9.94611644744873,1.5646055936813354,-0.8194530010223389,8.500441551208496,-30.490018844604492, 20.00263786315918
345,73672266,0.66406006,0.3635689,-0.63424027,0.15678433,9.4215087890625,2.233952760696411,-1.3122425079345703,18.06968879699707,-27.713666915893555, 18.773773193359375
346,73688933,0.66067654,0.36393747,-0.63713515,0.15847708,9.34563159942627,2.8226585388183594,-1.212438702583313,14.080344200134277,-23.37479591369629, 17.179067611694336
347,73705600,0.6573426,0.36449212,-0.63978237,0.1603903,9.276175498962402,2.763575792312622,-1.2466330528259277,16.038671493530273,-21.684926986694336, 16.704309463500977
348,73722267,0.65411067,0.36476946,-0.6425414,0.16193525,9.17953109741211,2.7326886653900146,-0.9107741117477417,12.7879056930542,-22.35869026184082, 16.439456939697266
349,73738934,0.6510328,0.36459088,-0.64551723,0.16290304,9.384286880493164,2.640533685684204,-0.7431505918502808,7.563730239868164,-23.603857040405273, 16.244401931762695
350,73755601,0.6477836,0.36427176,-0.6487345,0.16378757,9.319494247436523,2.9642996788024902,-0.8606277704238892,6.731098175048828,-25.512409210205078, 17.304645538330078
351,73772268,0.64458776,0.36330542,-0.65238255,0.16405192,9.093342781066895,3.3996517658233643,-1.2436139583587646,0.46956583857536316,-28.031721115112305, 18.47146987915039
352,73788935,0.6417831,0.3614747,-0.6562438,0.16369133,8.95577621459961,2.8516626358032227,-1.7363269329071045,-7.3745808601379395,-27.813472747802734, 19.70880889892578
353,73805602,0.6392727,0.35898644,-0.6602572,0.16284914,9.224677085876465,2.2237696647644043,-1.8030815124511719,-13.34880256652832,-27.60651206970215, 20.626510620117188
354,73822269,0.6368674,0.35632208,-0.6642117,0.1620415,9.464571952819824,1.7490626573562622,-2.0151748657226562,-14.158933639526367,-26.57908821105957, 21.328353881835938
355,73838936,0.63442856,0.35402304,-0.66777587,0.16199969,9.299243927001953,1.9211716651916504,-2.0341508388519287,-8.546491622924805,-23.542234420776367, 22.0952205657959
356,73855603,0.6320891,0.35154036,-0.67129153,0.16202006,8.759142875671387,3.1838271617889404,-2.0382580757141113,-9.25003719329834,-22.508527755737305, 22.98794174194336
357,73872270,0.6298866,0.34813127,-0.67522496,0.16161388,8.741169929504395,2.784331798553467,-1.742706298828125,-16.031522750854492,-23.682899475097656, 26.309694290161133
358,73888937,0.62729377,0.344413,-0.67967075,0.16102883,9.776679039001465,1.2916308641433716,-1.322774052619934,-17.826725006103516,-27.798124313354492, 28.665512084960938
359,73905604,0.62420994,0.3405595,-0.6846393,0.16015741,10.297160148620605,0.9388104677200317,-0.9607645273208618,-19.160505294799805,-32.885108947753906, 29.837472915649414
360,73922271,0.6210639,0.33590296,-0.6902072,0.15831318,10.048348426818848,1.3485853672027588,-1.1794568300247192,-27.697031021118164,-37.16527557373047, 30.90042495727539
361,73938938,0.6175971,0.3308129,-0.69622755,0.15621819,9.598249435424805,1.9226117134094238,-1.3973714113235474,-30.485675811767578,-40.74372863769531, 33.28101348876953
362,73955605,0.6136551,0.32561383,-0.702571,0.1542642,9.401334762573242,1.788560152053833,-1.8030312061309814,-29.53081512451172,-43.9659538269043, 35.66521453857422
363,73972272,0.60921824,0.32056394,-0.7090338,0.15285,9.300817489624023,1.849029779434204,-1.94259512424469,-25.30668067932129,-45.81466293334961, 38.03214645385742
364,73988939,0.604395,0.31570905,-0.71551913,0.15187863,9.493269920349121,1.6016101837158203,-1.8415803909301758,-21.495790481567383,-47.02762985229492, 39.41215896606445
365,74005606,0.59880906,0.31097788,-0.72238666,0.15125522,9.614084243774414,1.7512770891189575,-1.6014583110809326,-18.006465911865234,-51.7524528503418, 41.88996887207031
366,74022273,0.59297615,0.30573615,-0.72961086,0.15024237,9.700722694396973,1.7081305980682373,-2.015699863433838,-21.875776290893555,-54.77000427246094, 43.85994338989258
367,74038940,0.5869647,0.3003543,-0.7368838,0.14920512,9.87529468536377,1.3510431051254272,-2.1986639499664307,-22.234439849853516,-55.78668975830078, 44.77023696899414
368,74055607,0.5804472,0.29571342,-0.7439581,0.14886627,10.1285400390625,0.8430704474449158,-2.3944098949432373,-14.448705673217773,-56.88109588623047, 43.955322265625
369,74072274,0.57355404,0.2912717,-0.7510358,0.14880241,10.100628852844238,1.018303632736206,-2.2852110862731934,-11.484406471252441,-58.47682189941406, 44.42647171020508
370,74088941,0.5661216,0.28686512,-0.7583338,0.14881092,10.173393249511719,1.2900760173797607,-2.551178455352783,-10.1107759475708,-62.0445442199707, 45.5300178527832
371,74105608,0.5579431,0.28291517,-0.7656835,0.14962424,10.217254638671875,1.214289903640747,-2.643648862838745,-2.7110376358032227,-65.03702545166016, 47.16030502319336
372,74122275,0.54884076,0.27925473,-0.7732708,0.15113929,10.621063232421875,1.5160948038101196,-2.5302634239196777,3.6547765731811523,-69.77075958251953, 49.75343322753906
373,74138942,0.5385603,0.2755293,-0.7812046,0.15413064,12.086444854736328,3.010136127471924,-2.0257699489593506,13.173844337463379,-74.47698974609375, 57.57910919189453
374,74155609,0.527011,0.270943,-0.78997356,0.15745316,12.333858489990234,2.9716415405273438,-1.8439161777496338,13.3143949508667,-82.91534423828125, 66.40544128417969
375,74172276,0.51310325,0.2680796,-0.798938,0.16296184,13.258304595947266,1.8164318799972534,-1.3704495429992676,35.64499282836914,-94.31080627441406, 67.93611907958984
376,74188943,0.49759042,0.2664972,-0.807442,0.17152412,15.340265274047852,1.201710820198059,-0.3204365372657776,60.43520736694336,-97.41816711425781, 72.64751434326172
377,74205610,0.48022676,0.26419193,-0.8162334,0.18261503,14.570019721984863,2.13846492767334,-0.26687493920326233,75.06847381591797,-103.34912109375, 88.03649139404297
378,74222277,0.46299174,0.25897512,-0.825878,0.1910396,14.16335391998291,2.446795701980591,-0.7397578954696655,49.207889556884766,-106.79037475585938, 97.0053482055664
379,74238944,0.44573635,0.2512113,-0.83607286,0.19797553,13.513148307800293,1.8441441059112549,-1.5362175703048706,31.985383987426758,-108.11524200439453, 107.79796600341797
380,74255611,0.42925784,0.24113943,-0.84672606,0.2016056,12.596700668334961,1.4260280132293701,-1.7467304468154907,3.961587429046631,-107.75614929199219, 110.72521209716797
381,74272278,0.41319808,0.23079768,-0.85703385,0.20369877,11.005812644958496,-0.5529045462608337,-2.9734437465667725,-5.9860148429870605,-106.59805297851562, 106.6602554321289
382,74288945,0.3980252,0.22053723,-0.86587816,0.2078329,10.330769538879395,-1.0753471851348877,-3.114889144897461,6.9109320640563965,-94.17269134521484, 108.4314193725586
383,74305612,0.38460028,0.21132624,-0.87303036,0.212702,9.016587257385254,0.6218764781951904,-2.728426694869995,13.912039756774902,-79.59699249267578, 99.14572143554688
384,74322279,0.37318793,0.20272145,-0.87924063,0.21580328,7.396391868591309,0.8052794337272644,-3.4711742401123047,3.3651342391967773,-68.55496978759766, 86.56405639648438
385,74338946,0.36339906,0.19612965,-0.8835933,0.22076531,7.808812618255615,0.43411707878112793,-3.5807998180389404,20.291854858398438,-54.411495208740234, 74.2161636352539
386,74355613,0.35272273,0.19310528,-0.8871843,0.22627676,6.597797393798828,0.9018576145172119,-5.045963287353516,34.915618896484375,-62.62455749511719, 54.2803955078125
387,74372280,0.34477735,0.19049175,-0.89075357,0.2267147,6.1059651374816895,-0.017067180946469307,-5.256319522857666,1.4070088863372803,-53.30002975463867, 35.24580001831055
388,74388947,0.34088638,0.18933891,-0.8935472,0.22253309,6.996561527252197,-0.3651532232761383,-4.8369598388671875,-27.489587783813477,-34.964717864990234, 8.039875984191895
389,74405614,0.34036618,0.19046503,-0.89341587,0.2228955,7.423168182373047,0.461000919342041,0.9118231534957886,5.880619049072266,-5.000201225280762, -4.249070644378662
390,74422281,0.34292492,0.19411597,-0.890933,0.22574373,5.716505527496338,2.067476511001587,1.735477328300476,26.633628845214844,18.681495666503906, -21.69992446899414
391,74438948,0.34931445,0.19798815,-0.88708675,0.22772214,5.061187744140625,0.1545497179031372,-0.029355283826589584,18.854900360107422,43.75130081176758, -32.815040588378906
392,74455615,0.35841036,0.20166762,-0.8821518,0.22952244,6.1130690574646,-0.7379755973815918,-2.3159804344177246,15.331765174865723,62.86930465698242, -37.76057815551758
393,74472282,0.37132183,0.2060123,-0.87542295,0.23089857,6.298527717590332,0.468017578125,-2.165968418121338,11.948050498962402,88.75630187988281, -51.33163833618164
394,74488949,0.38736606,0.21188661,-0.8668376,0.23161265,6.285999774932861,1.7680723667144775,-0.9964756369590759,10.400622367858887,108.94694519042969, -69.79378509521484
395,74505616,0.40783194,0.21680842,-0.85703707,0.22837438,6.638012886047363,1.0636916160583496,-1.2256065607070923,-20.16405487060547,134.24073791503906, -83.40596008300781
396,74522283,0.43070373,0.22099347,-0.84616935,0.22283103,6.943155288696289,-0.17750291526317596,-1.8674660921096802,-37.698875427246094,149.0785369873047, -90.8640365600586
397,74538950,0.45535496,0.22497286,-0.8340106,0.21555883,8.1765718460083,0.7813680171966553,-1.8527014255523682,-49.07954025268555,160.90699768066406, -99.46887969970703
398,74555617,0.4827751,0.22780405,-0.8202184,0.20561038,9.439512252807617,1.3910199403762817,-1.7937216758728027,-69.86498260498047,179.4185791015625, -107.87643432617188
399,74572284,0.5124243,0.22927475,-0.80457574,0.19368124,10.478306770324707,0.9748191833496094,-2.1770403385162354,-86.40189361572266,196.9026336669922, -112.80853271484375
400,74588951,0.5433372,0.23002784,-0.78669935,0.18159387,11.24057674407959,0.847203254699707,-2.8239188194274902,-88.80184173583984,212.42774963378906, -114.59356689453125
401,74605618,0.57430243,0.23072907,-0.76674604,0.17041546,12.162186622619629,1.1460901498794556,-3.4247419834136963,-81.5469741821289,221.94837951660156, -114.26439666748047
402,74622285,0.60450566,0.23170964,-0.74510425,0.16032329,13.207927703857422,1.1583276987075806,-3.8780953884124756,-71.5214614868164,225.99217224121094, -113.22249603271484
403,74638952,0.6333964,0.23397912,-0.7216433,0.15262327,13.851676940917969,1.0028566122055054,-4.261852264404297,-49.8002815246582,229.2410888671875, -111.32546997070312
404,74655619,0.66050977,0.2380657,-0.696493,0.14815354,13.688701629638672,0.6822840571403503,-4.368610858917236,-21.227867126464844,231.1190643310547, -107.11729431152344
405,74672286,0.68637854,0.24394539,-0.6695469,0.14519744,13.795503616333008,1.2086058855056763,-3.540869951248169,-1.9744113683700562,234.046630859375, -110.50189971923828
406,74688953,0.71220887,0.2496052,-0.6405739,0.1418492,14.209166526794434,1.0038927793502808,-2.475297451019287,-2.7576658725738525,243.08116149902344, -114.69864654541016
407,74705620,0.7358541,0.25500306,-0.6117132,0.13892227,13.27476692199707,0.18172912299633026,-4.421751499176025,1.4394068717956543,233.95849609375, -109.16476440429688
408,74722287,0.75694525,0.25998163,-0.58423686,0.13457824,12.700722694396973,0.02164779044687748,-5.614837646484375,-3.535492420196533,214.2474822998047, -109.735595703125
409,74738954,0.7749298,0.26595256,-0.55870664,0.12884161,12.16788387298584,-0.9047062397003174,-5.043694019317627,-0.26062825322151184,188.3870086669922, -114.65926361083984
410,74755621,0.788988,0.27350715,-0.53594923,0.12429961,11.013236045837402,-1.9307869672775269,-4.297097682952881,17.44063377380371,159.4629669189453, -105.89641571044922
411,74772288,0.80007666,0.27899304,-0.5171747,0.12070892,10.380274772644043,-1.7188773155212402,-4.640206813812256,11.865240097045898,130.61248779296875, -83.17227172851562
412,74788955,0.80873424,0.28039256,-0.503733,0.11654235,9.528531074523926,-0.533545970916748,-5.91021728515625,-12.466401100158691,95.06724548339844, -59.652713775634766
413,74805622,0.81482154,0.27719936,-0.49704552,0.110327885,8.289996147155762,0.13230708241462708,-4.743768215179443,-45.61603546142578,48.50148391723633, -40.124244689941406
414,74822289,0.8187037,0.2691272,-0.4967437,0.102667466,8.364103317260742,-1.165177822113037,-3.67919659614563,-78.58419799804688,6.270651817321777, -17.761445999145508
415,74838956,0.81994903,0.2601161,-0.50072926,0.09640248,8.563409805297852,-3.0282652378082275,-4.864879131317139,-77.28362274169922,-23.502853393554688, 3.024615526199341
416,74855623,0.816478,0.26102903,-0.50601035,0.09581877,9.231715202331543,-1.8732881546020508,-5.821768760681152,5.765605449676514,-43.31529235839844, 6.226394176483154
417,74872290,0.8096916,0.26619095,-0.5138006,0.097729385,9.233505249023438,0.9748980402946472,-6.061198711395264,42.54362106323242,-67.0987319946289, 12.044075965881348
418,74888957,0.8010312,0.27224055,-0.5232339,0.10227786,15.01108455657959,0.3059322237968445,10.479487419128418,59.07014083862305,-78.4778823852539, 27.81835174560547
419,74905624,0.79182744,0.27352378,-0.53555834,0.10663714,12.778968811035156,-3.762727737426758,-1.3973044157028198,31.180326461791992,-93.44691467285156, 49.618404388427734
420,74922291,0.7784596,0.28031784,-0.5497454,0.11490308,14.742818832397461,-0.5742033123970032,-4.276609420776367,82.02163696289062,-115.52616119384766, 57.0049934387207
421,74938958,0.7642211,0.28592506,-0.5658414,0.11847718,13.01818561553955,6.378585338592529,-3.4403011798858643,58.04861068725586,-137.00381469726562, 40.64625549316406
422,74955625,0.7553696,0.28005785,-0.5815852,0.11288561,10.794822692871094,3.109375,-1.6419883966445923,-48.26007080078125,-122.75875854492188, 32.105316162109375
423,74972292,0.7462037,0.278924,-0.5939366,0.11234266,8.260773658752441,0.4605570435523987,-4.8823442459106445,-0.2763974964618683,-100.28427124023438, 33.129695892333984
424,74988959,0.7393988,0.2748966,-0.6048636,0.108910024,12.066917419433594,4.523054122924805,-1.5534532070159912,-30.39071273803711,-86.53305053710938, 25.55210304260254
425,75005626,0.7334276,0.26985842,-0.61448103,0.10804505,10.236223220825195,0.09148426353931427,-1.601042628288269,-25.459402084350586,-70.74724578857422, 39.75347900390625
426,75022293,0.7268396,0.2681891,-0.62269396,0.109687224,8.291298866271973,2.489133358001709,-0.5904672741889954,4.29599142074585,-64.07506561279297, 35.983272552490234
427,75038960,0.7207086,0.26765943,-0.629952,0.10999233,10.147099494934082,2.298654794692993,0.9368422627449036,4.142511367797852,-60.65577697753906, 22.333097457885742
428,75055627,0.7163961,0.2638434,-0.6369608,0.10697821,9.764261245727539,1.3881151676177979,0.6042608618736267,-29.672039031982422,-55.1784553527832, 18.294841766357422
429,75072294,0.71236444,0.26066115,-0.64331734,0.10361314,9.114947319030762,1.428457260131836,0.06275303661823273,-28.11746597290039,-51.845245361328125, 12.401533126831055
430,75088961,0.70854497,0.257235,-0.64943075,0.10016963,9.779340744018555,1.8749574422836304,-0.5113627314567566,-29.869462966918945,-49.682437896728516, 12.51405143737793
431,75105628,0.70430017,0.2550771,-0.6552723,0.0975479,9.64212417602539,0.8344339728355408,-0.21187534928321838,-19.085424423217773,-49.670326232910156, 10.676361083984375
432,75122295,0.70057696,0.25209534,-0.6609216,0.09392911,10.049795150756836,2.155928134918213,-0.3053644895553589,-28.356760025024414,-47.58812713623047, 8.865466117858887
433,75138962,0.6974274,0.24781574,-0.6664793,0.089375705,9.935613632202148,1.8027822971343994,-0.7149959206581116,-39.78986358642578,-45.33424377441406, 9.752437591552734
434,75155629,0.69442064,0.24441862,-0.6713512,0.085599914,9.849115371704102,1.911020278930664,-1.0824190378189087,-31.8145809173584,-40.621463775634766, 8.198248863220215
435,75172296,0.69195646,0.2420228,-0.67506546,0.08311535,9.710127830505371,1.9600411653518677,-1.490645408630371,-21.298248291015625,-31.022850036621094, 7.493565559387207
436,75188963,0.6894982,0.24114348,-0.67799205,0.082275614,9.816193580627441,1.8609204292297363,-1.0773931741714478,-6.0030035972595215,-25.39472007751465, 6.981789588928223
437,75205630,0.6866313,0.24135627,-0.68078387,0.08257214,9.698509216308594,2.3300411701202393,-0.7346699237823486,5.234026908874512,-25.422863006591797, 7.294291019439697
438,75222297,0.68346566,0.2419595,-0.68365496,0.08334437,9.474394798278809,2.6892635822296143,-0.9766501188278198,9.768745422363281,-26.66961097717285, 8.029854774475098
439,75238964,0.68059754,0.24230805,-0.6863022,0.08404355,9.179913520812988,2.7665231227874756,-1.4006341695785522,7.88078498840332,-24.23495101928711, 8.363405227661133
440,75255631,0.6777229,0.24315734,-0.688695,0.08523753,9.358124732971191,2.177204132080078,-1.2329944372177124,12.731663703918457,-22.576629638671875, 7.920255184173584
441,75272298,0.67473316,0.24433781,-0.69103444,0.08663531,9.691339492797852,1.7817565202713013,-1.0334272384643555,15.478433609008789,-22.76674461364746, 7.292962074279785
442,75288965,0.671668,0.24557811,-0.6934267,0.08782304,9.626752853393555,1.9107195138931274,-1.0297632217407227,14.867608070373535,-23.80449867248535, 6.174580097198486
443,75305632,0.66894215,0.2462718,-0.6957515,0.088298835,9.348129272460938,2.5679233074188232,-1.1363496780395508,8.432775497436523,-22.79218864440918, 5.183452129364014
444,75322299,0.6664213,0.246816,-0.69781244,0.089569025,9.23326301574707,2.4509024620056152,-1.4193110466003418,11.3753080368042,-19.20672035217285, 9.00066089630127
445,75338966,0.6640388,0.24745813,-0.69960934,0.09145371,9.344293594360352,1.9500361680984497,-1.4128717184066772,14.71804141998291,-16.389896392822266, 10.829667091369629
446,75355633,0.6616252,0.24783182,-0.7014905,0.09350307,9.400388717651367,2.4858272075653076,-0.9678727984428406,14.299788475036621,-16.513044357299805, 13.044610977172852
447,75372300,0.6587531,0.24790531,-0.70388114,0.095598,9.357701301574707,2.5276706218719482,-0.9696974754333496,13.62536334991455,-20.814016342163086, 15.877684593200684
448,75388967,0.65567607,0.24749619,-0.70666313,0.09727366,9.355509757995605,2.110321283340454,-1.12874436378479,9.521008491516113,-24.016891479492188, 17.132116317749023
449,75405634,0.65233976,0.247071,-0.70968515,0.09877341,9.509125709533691,1.8735055923461914,-1.206997275352478,8.889158248901367,-26.68364143371582, 17.010194778442383
450,75422301,0.64844304,0.24665867,-0.7132077,0.10008014,9.347593307495117,1.9946873188018799,-0.9716609120368958,8.631412506103516,-32.03498458862305, 17.3206787109375
451,75438968,0.6437746,0.2461277,-0.7174535,0.10117384,9.466509819030762,1.7158353328704834,-0.9052467346191406,7.882472038269043,-39.35921859741211, 18.72001075744629
452,75455635,0.6383656,0.24637745,-0.7219167,0.10307426,9.873376846313477,0.24951905012130737,-1.27435302734375,16.432363510131836,-43.187320709228516, 19.32872200012207
453,75472302,0.6324231,0.24756712,-0.72634894,0.10568325,9.76247501373291,1.1180325746536255,-1.5198966264724731,25.003564834594727,-45.195884704589844, 18.090099334716797
454,75488969,0.6266939,0.24825828,-0.7307885,0.1075685,9.313034057617188,1.9383338689804077,-1.842930555343628,18.860376358032227,-45.058555603027344, 17.29063606262207
455,75505636,0.6210566,0.24854837,-0.73523104,0.10930707,9.326971054077148,2.2182250022888184,-2.017880439758301,16.247865676879883,-44.586612701416016, 18.620595932006836
456,75522303,0.61522484,0.24868764,-0.73977685,0.11128012,9.465890884399414,1.832502007484436,-1.96352219581604,17.054264068603516,-45.51827621459961, 20.719003677368164
457,75538970,0.6089021,0.24873509,-0.7446339,0.113532536,9.585315704345703,1.6433613300323486,-1.7229158878326416,18.69735336303711,-48.80442428588867, 23.28333282470703
458,75555637,0.6019502,0.24840212,-0.7500449,0.115693696,10.010843276977539,1.9488027095794678,-1.6025162935256958,17.289600372314453,-54.22728729248047, 26.293663024902344
459,75572304,0.59419817,0.2476468,-0.7561052,0.117919035,10.255781173706055,1.9469457864761353,-1.9652152061462402,16.733417510986328,-60.619903564453125, 30.490812301635742
460,75588971,0.5857492,0.24638857,-0.76269156,0.120384336,9.760692596435547,1.8564766645431519,-2.1164371967315674,16.697370529174805,-65.59603118896484, 35.55331802368164
461,75605638,0.5765106,0.24452876,-0.7698618,0.12310311,10.17424201965332,2.3834755420684814,-2.10046648979187,16.46538543701172,-71.18020629882812, 41.379478454589844
462,75622305,0.5662476,0.24187347,-0.7777449,0.12638918,11.26982593536377,3.0123324394226074,-1.8735698461532593,17.447357177734375,-77.82136535644531, 49.914703369140625
463,75638972,0.55468595,0.23816486,-0.78660065,0.12984893,11.814055442810059,2.989091634750366,-1.6002705097198486,15.604564666748047,-87.3744125366211, 58.984031677246094
464,75655639,0.54138803,0.23498788,-0.7960087,0.13435028,12.834735870361328,2.1765503883361816,-1.256711721420288,25.631948471069336,-97.66839599609375, 62.54874801635742
465,75672306,0.52691513,0.231006,-0.8061349,0.1383597,14.917844772338867,2.1347908973693848,-1.1549854278564453,21.187992095947266,-106.8582534790039, 67.37617492675781
466,75688973,0.51193607,0.2272342,-0.81607175,0.1425244,15.27153205871582,0.6563069820404053,-1.4117541313171387,23.809144973754883,-108.97052001953125, 66.95990753173828
467,75705640,0.49659562,0.22269934,-0.82586783,0.14744537,14.693002700805664,1.1473431587219238,-0.7461360692977905,26.072425842285156,-108.61138916015625, 74.03643035888672
468,75722307,0.48081392,0.2159703,-0.8360817,0.15212645,13.60606575012207,2.891881227493286,-1.1110363006591797,17.47535514831543,-110.72799682617188, 86.76827239990234
469,75738974,0.46535453,0.20908879,-0.8459123,0.15543413,13.441267967224121,2.0361499786376953,-0.768507719039917,9.018004417419434,-109.52433013916016, 82.20738220214844
470,75755641,0.44879073,0.2034818,-0.8552031,0.16065525,12.93575382232666,0.7474815845489502,-1.5671764612197876,26.39842414855957,-112.86980438232422, 81.33013153076172
471,75772308,0.43139702,0.1983256,-0.86392653,0.16791299,12.049811363220215,1.4807978868484497,-1.570229172706604,41.55632781982422,-113.67860412597656, 85.09076690673828
472,75788975,0.41386488,0.19338292,-0.8719495,0.17613408,11.623619079589844,0.10509438812732697,-3.5815019607543945,48.91660690307617,-111.38382720947266, 85.89286041259766
473,75805642,0.3976539,0.18995282,-0.8777917,0.18780683,11.193266868591309,-0.0433465801179409,-2.0165352821350098,74.80239868164062,-94.5152816772461, 82.15032196044922
474,75822309,0.3818932,0.18804593,-0.8819946,0.20219304,8.799561500549316,0.0699055939912796,-2.8229100704193115,96.87606811523438,-85.76122283935547, 77.65908813476562
475,75838976,0.36664367,0.18640497,-0.88582325,0.21480906,7.903827667236328,1.0157785415649414,-5.0103607177734375,86.69473266601562,-84.34452819824219, 70.21300506591797
476,75855643,0.35416776,0.18632771,-0.8879965,0.226517,7.042257785797119,1.9976330995559692,-2.900458812713623,84.00650787353516,-66.74858093261719, 52.189762115478516
477,75872310,0.34440058,0.18668717,-0.8901337,0.2328053,6.133552074432373,-0.10573706030845642,-5.551164627075195,48.57686233520508,-57.74978256225586, 32.070926666259766
478,75888977,0.33943322,0.18848346,-0.8901299,0.23859574,7.354179859161377,1.2541561126708984,-1.2679378986358643,46.20549774169922,-26.234012603759766, 11.670975685119629
479,75905644,0.33846405,0.19084075,-0.88834333,0.24467997,6.3325371742248535,1.3443922996520996,1.2672178745269775,47.06626892089844,1.8422783613204956, 0.06100352853536606
480,75922311,0.34170422,0.19366574,-0.8849274,0.25027117,5.409806728363037,1.2626227140426636,1.325172781944275,42.36296463012695,29.892671585083008, -13.152546882629395
481,75938978,0.3490746,0.19608897,-0.88060004,0.25345588,5.126286029815674,-0.08208641409873962,0.1492874026298523,22.84772300720215,54.63809585571289, -24.673864364624023
482,75955645,0.35960075,0.19756144,-0.87582374,0.25414518,5.550976753234863,-0.419212281703949,-1.3618464469909668,1.9840999841690063,73.10869598388672, -31.009714126586914
483,75972312,0.3740046,0.19822298,-0.8706372,0.25063765,5.78495979309082,0.5489127039909363,-2.0145719051361084,-29.842782974243164,93.18932342529297, -43.837989807128906
484,75988979,0.3927333,0.19841795,-0.86490333,0.24152282,6.376708030700684,1.5800637006759644,-1.490206003189087,-69.55686950683594,113.65045928955078, -63.66378402709961
485,76005646,0.4149765,0.19741608,-0.85828835,0.22839248,7.075992107391357,1.3986836671829224,-1.0953450202941895,-99.99520874023438,133.44064331054688, -74.4283676147461
486,76022313,0.44045582,0.19509745,-0.8497342,0.21421377,8.137772560119629,0.529577910900116,-1.6279442310333252,-111.28712463378906,158.71533203125, -77.36231231689453
487,76038980,0.46831888,0.19227779,-0.83890486,0.19986373,8.764480590820312,0.37026524543762207,-2.138378381729126,-113.6460189819336,180.04090881347656, -81.52355194091797
488,76055647,0.49790934,0.18925759,-0.82596546,0.18452409,9.258337020874023,0.5531323552131653,-2.458775043487549,-119.38355255126953,195.7704315185547, -88.7215576171875
489,76072314,0.5291607,0.18647549,-0.81036586,0.1688887,10.142901420593262,0.8828758597373962,-2.4190473556518555,-119.04291534423828,213.63316345214844, -96.6563720703125
490,76088981,0.56177115,0.18473433,-0.79142183,0.15472016,11.304444313049316,0.49125051498413086,-2.4198458194732666,-104.9288101196289,234.0555877685547, -102.9908218383789
491,76105648,0.59466386,0.18516685,-0.7690431,0.14373964,12.299662590026855,0.004092086106538773,-2.8967971801757812,-75.87942504882812,250.60586547851562, -107.16942596435547
492,76122315,0.6271716,0.18723588,-0.7439049,0.13492423,13.460884094238281,0.42553001642227173,-3.5705738067626953,-54.529266357421875,261.00634765625, -110.10157775878906
493,76138982,0.65868807,0.19167158,-0.7160813,0.1289182,14.634881019592285,0.5882205963134766,-3.654050350189209,-26.182039260864258,268.9599609375, -112.62938690185547
494,76155649,0.6879813,0.19921449,-0.68624634,0.12673354,15.023526191711426,0.5682971477508545,-4.3140339851379395,11.417922973632812,269.4264831542969, -111.2967529296875
495,76172316,0.7154313,0.20833549,-0.6549315,0.12577549,15.047907829284668,0.7358828186988831,-3.856330394744873,28.489151000976562,268.06591796875, -113.36003875732422
496,76188983,0.7411796,0.21743225,-0.62291247,0.12392021,14.900809288024902,0.7101002931594849,-3.5525975227355957,27.342384338378906,262.6293029785156, -117.2047119140625
497,76205650,0.7646974,0.22494172,-0.59181035,0.1200001,14.0812349319458,0.40530773997306824,-4.266265392303467,12.950297355651855,246.69053649902344, -117.65968322753906
498,76222317,0.7851227,0.23194508,-0.56260693,0.11514163,13.126580238342285,-0.5956174731254578,-4.3755388259887695,9.658629417419434,223.10955810546875, -115.05497741699219
499,76238984,0.8020206,0.23962891,-0.53572565,0.11108206,12.28180980682373,-1.1138032674789429,-4.831907272338867,20.191009521484375,197.6864471435547, -106.89225006103516
500,76255651,0.81495804,0.24714895,-0.5130601,0.10738099,10.671080589294434,-0.9034296870231628,-5.843222141265869,23.9030704498291,160.59158325195312, -94.3546371459961
501,76272318,0.8245918,0.25184384,-0.49585882,0.103668936,9.973140716552734,-0.8644561171531677,-5.719222068786621,9.588420867919922,120.40884399414062, -72.74493408203125
502,76288985,0.8301879,0.2549326,-0.48532966,0.101255596,8.772163391113281,-0.0767795592546463,-3.521406888961792,7.146146297454834,72.24375915527344, -45.48530960083008
503,76305652,0.83306104,0.2549074,-0.48111746,0.097763754,8.370874404907227,-0.0319351926445961,-2.7721800804138184,-13.887328147888184,27.389305114746094, -28.310041427612305
504,76322319,0.8334944,0.2544383,-0.4811092,0.095301345,8.396597862243652,-1.149393081665039,-3.62422251701355,-11.577232360839844,-2.6371374130249023, -11.948540687561035
505,76338986,0.8320253,0.25426716,-0.4839721,0.09409333,8.128055572509766,-1.0385700464248657,-4.541164875030518,-4.283501625061035,-23.36549949645996, 0.5055893063545227
506,76355653,0.8289988,0.2546833,-0.48912063,0.09305097,7.680294036865234,-0.7294034957885742,-4.900052070617676,0.8689866065979004,-41.68922424316406, 4.49075984954834
507,76372320,0.82444656,0.2544893,-0.49702078,0.09216047,7.8503947257995605,-1.4954514503479004,-5.9231719970703125,-1.2022385597229004,-61.830589294433594, 13.186775207519531
508,76388987,0.8186324,0.25621036,-0.50564855,0.09228764,10.04265022277832,-0.24177178740501404,-5.281139373779297,14.87106704711914,-69.677490234375, 14.471693992614746
509,76405654,0.81033486,0.27428707,-0.50811446,0.09972007,14.70390796661377,10.721555709838867,16.952909469604492,140.602783203125,-41.1230583190918, -10.569845199584961
510,76422321,0.80488497,0.27503172,-0.516611,0.09813761,10.541404724121094,-6.917172908782959,2.623102903366089,3.051352024078369,-69.9310531616211, 9.198443412780762
511,76438988,0.79444087,0.28246894,-0.52648556,0.10903235,14.959071159362793,-2.3606972694396973,0.2982357442378998,92.91563415527344,-76.232666015625, 60.41216278076172
512,76455655,0.78240806,0.29132918,-0.53771335,0.117599145,14.490691184997559,-2.512207508087158,1.7839632034301758,94.3218002319336,-94.96129608154297, 46.336639404296875
513,76472322,0.7692818,0.29968992,-0.5501748,0.12529647,12.87230396270752,0.12718713283538818,-3.1180996894836426,89.6039810180664,-106.98397064208984, 46.83728790283203
514,76488989,0.7570145,0.3062427,-0.56303453,0.12702984,9.833601951599121,8.835163116455078,-3.491154670715332,55.35036087036133,-116.56207275390625, 22.200885772705078
515,76505656,0.7511077,0.3033095,-0.5737727,0.12093569,8.344067573547363,5.515788555145264,-2.574382781982422,-35.85838317871094,-89.07327270507812, 8.189743995666504
516,76522323,0.7449878,0.3022644,-0.5827498,0.1184573,9.669041633605957,3.6144285202026367,-4.88379430770874,-9.934579849243164,-74.83869171142578, 15.937165260314941
517,76538990,0.7398639,0.2967834,-0.5924938,0.116070375,12.174905776977539,2.3587753772735596,0.39214086532592773,-34.98405075073242,-70.95752716064453, 34.97191619873047
518,76555657,0.7325693,0.2948224,-0.60172784,0.11977402,9.333111763000488,0.12871107459068298,-1.1066001653671265,12.56937026977539,-67.58988189697266, 52.308204650878906
519,76572324,0.7250622,0.29597548,-0.60936123,0.12394524,9.512797355651855,1.1874501705169678,-0.1533648669719696,31.9346866607666,-62.02350616455078, 38.70507049560547
520,76588991,0.7171472,0.29966888,-0.6160509,0.1279846,9.790678024291992,2.5815930366516113,0.6251044273376465,45.679988861083984,-61.46513366699219, 25.83054542541504
521,76605658,0.71199393,0.29897538,-0.6225353,0.12699753,9.089158058166504,4.204200744628906,0.9255675077438354,-2.7451629638671875,-55.25593566894531, 16.778783798217773
522,76622325,0.7075568,0.2964748,-0.629138,0.12510695,8.715188026428223,2.240212917327881,-0.4996415376663208,-17.03024673461914,-53.0577392578125, 19.72062873840332
523,76638992,0.7033149,0.29426858,-0.63518023,0.1236951,9.42086410522461,3.3361525535583496,-0.5239141583442688,-13.440185546875,-48.76560974121094, 19.47145652770996
524,76655659,0.6990463,0.2927318,-0.64074516,0.122833334,8.51425552368164,1.819343090057373,-1.1690034866333008,-7.3360161781311035,-46.033729553222656, 18.272485733032227
525,76672326,0.69368076,0.29397058,-0.6457483,0.12408693,9.027069091796875,3.0083017349243164,-0.29378899931907654,18.007659912109375,-46.25463104248047, 16.010696411132812
526,76688993,0.68891984,0.2922976,-0.6516691,0.123608395,10.405191421508789,2.7004435062408447,0.2959997355937958,-5.570205211639404,-48.968040466308594, 22.02223777770996
527,76705660,0.6845926,0.28787786,-0.6586385,0.121057965,9.98744010925293,2.06417179107666,-0.20821043848991394,-29.62360382080078,-53.82815170288086, 26.25929832458496
528,76722327,0.6807644,0.28187993,-0.6658819,0.11706912,9.858794212341309,1.6577589511871338,-0.8737012147903442,-44.77887725830078,-54.397037506103516, 26.767850875854492
529,76738994,0.67738736,0.2754188,-0.672716,0.11289029,9.88349723815918,1.1708484888076782,-1.3110655546188354,-48.36170196533203,-50.41370391845703, 26.84565544128418
530,76755661,0.67410886,0.27017507,-0.67862445,0.109780625,9.821310043334961,1.360517978668213,-1.4398558139801025,-37.2138671875,-44.569087982177734, 24.366296768188477
531,76772328,0.670829,0.26653373,-0.68359137,0.10794106,9.917827606201172,1.8770369291305542,-1.500834345817566,-23.14769172668457,-39.06439208984375, 21.030508041381836
532,76788995,0.6676815,0.2637964,-0.6879122,0.10672446,9.757740020751953,1.8681508302688599,-1.4266875982284546,-15.811447143554688,-34.993186950683594, 18.375429153442383
533,76805662,0.66471183,0.26116633,-0.691947,0.10563939,9.52348518371582,2.5290942192077637,-1.385284423828125,-14.807604789733887,-32.68150329589844, 17.825021743774414
534,76822329,0.66179234,0.25853637,-0.6958181,0.105010875,9.187504768371582,2.852591037750244,-1.428638219833374,-12.60224437713623,-30.87740135192871, 19.585298538208008
535,76838996,0.65873235,0.25630683,-0.69950837,0.10519842,9.470373153686523,2.227452039718628,-1.476537823677063,-6.491005897521973,-29.566669464111328, 21.168004989624023
536,76855663,0.65543324,0.25474784,-0.70301217,0.10623022,9.505824089050293,1.9888304471969604,-1.4298979043960571,1.1668622493743896,-28.8731632232666, 21.614458084106445
537,76872330,0.6518707,0.2537478,-0.70642734,0.10787647,9.479962348937988,2.0458948612213135,-1.4664840698242188,7.182763576507568,-29.08169174194336, 21.720945358276367
538,76888997,0.6478749,0.25305763,-0.71001226,0.110013016,9.471620559692383,2.2641282081604004,-1.3338311910629272,11.58743667602539,-31.324726104736328, 23.032947540283203
539,76905664,0.6434469,0.25228292,-0.71393466,0.11236979,9.393464088439941,2.2035598754882812,-1.2541483640670776,12.785122871398926,-34.49415588378906, 25.3442325592041
540,76922331,0.638722,0.25126806,-0.7181694,0.11459272,9.438318252563477,1.7912731170654297,-1.4175039529800415,11.343398094177246,-37.38327407836914, 26.703983306884766
541,76938998,0.6335074,0.25055277,-0.72260094,0.11721735,9.586910247802734,1.5116734504699707,-1.6072492599487305,15.335649490356445,-40.21129608154297, 27.71690559387207
542,76955665,0.6280418,0.24982892,-0.72715163,0.11999797,9.454070091247559,1.5343858003616333,-1.7901101112365723,16.41143035888672,-41.70452880859375, 28.84757423400879
543,76972332,0.6224081,0.24883252,-0.7318897,0.12258908,9.429434776306152,1.5388988256454468,-1.8312400579452515,14.423309326171875,-43.458011627197266, 29.853599548339844
544,76988999,0.6163962,0.24784045,-0.7368558,0.12519822,9.41848373413086,1.59464430809021,-1.5811474323272705,14.989950180053711,-46.31150817871094, 30.6189022064209
545,77005666,0.60982376,0.24663037,-0.7422861,0.1276717,10.02020263671875,1.515224575996399,-1.3754372596740723,13.936525344848633,-51.16682434082031, 32.42430114746094
546,77022333,0.6023908,0.24543363,-0.74826396,0.13034166,10.439210891723633,1.2508409023284912,-1.4517314434051514,15.97700309753418,-57.537261962890625, 34.86542892456055
547,77039000,0.5942185,0.24386418,-0.75482374,0.13295104,10.376842498779297,0.9394726753234863,-1.5995062589645386,14.850190162658691,-63.52538299560547, 38.17796325683594
548,77055667,0.5854472,0.24152859,-0.7619833,0.13526753,10.150546073913574,0.7534481287002563,-1.7905769348144531,10.658289909362793,-68.88044738769531, 42.51068115234375
549,77072334,0.5761548,0.23812594,-0.7697116,0.13742606,9.9500732421875,1.0737411975860596,-2.0674352645874023,5.870124340057373,-73.1746597290039, 48.8958854675293
550,77089001,0.56634486,0.23367777,-0.77795446,0.13941135,9.962791442871094,1.938773512840271,-2.28200626373291,1.1785480976104736,-77.2518081665039, 55.07544708251953
551,77105668,0.5555105,0.22891644,-0.7866849,0.14188886,10.424151420593262,2.6556246280670166,-2.150437116622925,3.771848201751709,-83.54331970214844, 60.43800354003906
552,77122335,0.5434051,0.22352819,-0.79604524,0.14511529,12.093175888061523,3.308598041534424,-2.1175637245178223,6.826604843139648,-91.04055786132812, 68.92529296875
553,77139002,0.5301298,0.21794613,-0.8058083,0.14877869,13.017606735229492,2.405461072921753,-1.8367863893508911,9.90064811706543,-98.09297943115234, 73.4124526977539
554,77155669,0.5152745,0.21300676,-0.8158114,0.15353289,14.476297378540039,1.966607689857483,-1.6554677486419678,20.41734504699707,-106.75625610351562, 75.80811309814453
555,77172336,0.5001963,0.20693935,-0.8259036,0.15768096,16.0013484954834,1.6644636392593384,-1.1702677011489868,13.261799812316895,-108.03551483154297, 80.35818481445312
556,77189003,0.48377734,0.1995241,-0.8364038,0.16302957,15.775956153869629,2.3243184089660645,-0.21114897727966309,16.916887283325195,-113.90360260009766, 94.1798095703125
557,77205670,0.46632093,0.19087571,-0.84726053,0.1681105,15.21743106842041,3.0270652770996094,-0.1961883306503296,12.310115814208984,-120.06598663330078, 102.03880310058594
558,77222337,0.4477489,0.18394387,-0.85743374,0.1746232,14.302709579467773,1.625588059425354,0.06729695200920105,28.422683715820312,-124.5035171508789, 97.02752685546875
559,77239004,0.42827573,0.17885272,-0.8661493,0.18541141,14.268204689025879,1.8313491344451904,-1.3922717571258545,62.1958122253418,-122.15774536132812, 98.58116149902344
560,77255671,0.40928143,0.17474967,-0.87350416,0.19733685,12.123335838317871,0.5484691858291626,-3.186638593673706,73.03105163574219,-115.17992401123047, 93.76786804199219
561,77272338,0.39051086,0.17205063,-0.879326,0.21139015,11.453797340393066,0.5700414776802063,-2.170620918273926,91.5817642211914,-108.8852767944336, 89.18070220947266
562,77289005,0.37395468,0.16959514,-0.8840757,0.22317217,8.92480182647705,0.6725809574127197,-2.411522150039673,77.44428253173828,-95.67121124267578, 77.12659454345703
563,77305672,0.36041194,0.16780801,-0.88760746,0.23258778,6.725771903991699,0.9856463670730591,-3.4154555797576904,63.134117126464844,-78.01551818847656, 60.939762115478516
564,77322339,0.34856704,0.1697243,-0.8889631,0.24380192,5.667243480682373,1.1276053190231323,-2.8693296909332275,84.81580352783203,-66.11234283447266, 37.57356262207031
565,77339006,0.34057152,0.1726674,-0.8899179,0.24948601,5.869436740875244,0.367389053106308,-5.840263843536377,49.67136001586914,-49.803192138671875, 11.120099067687988
566,77355673,0.3379806,0.17634106,-0.8895918,0.25159442,6.947774410247803,0.9920055866241455,-0.5511434078216553,25.29012680053711,-19.228336334228516, -12.50869083404541
567,77372340,0.3398516,0.18011637,-0.8875608,0.2535646,6.096421718597412,1.1417367458343506,1.6994868516921997,22.229578018188477,11.667688369750977, -23.233694076538086
568,77389007,0.34609303,0.18369232,-0.8842084,0.25426888,5.320250988006592,1.2476279735565186,2.003627300262451,10.93863582611084,40.190582275390625, -34.22869873046875
569,77405674,0.35566846,0.18718514,-0.8801883,0.2524488,5.108368396759033,0.17254425585269928,0.3209163248538971,-7.652420997619629,58.995887756347656, -46.3908805847168
570,77422341,0.36844644,0.19021529,-0.8751982,0.24918595,5.9632158279418945,-0.746359646320343,-1.9430691003799438,-19.943893432617188,79.68672943115234, -53.92884826660156
571,77439008,0.3848289,0.19233361,-0.86951125,0.2426209,6.476158142089844,0.0016560517251491547,-2.484116554260254,-45.648704528808594,100.38709259033203, -63.88997268676758
572,77455675,0.40402257,0.19472949,-0.8628111,0.23324569,6.83994722366333,0.8735312819480896,-1.7661118507385254,-63.72769546508789,115.69329833984375, -79.02113342285156
573,77472342,0.4266489,0.19651969,-0.85468644,0.22104725,7.321342945098877,1.039543867111206,-0.9544531106948853,-84.48065948486328,137.21231079101562, -90.67279052734375
574,77489009,0.45269057,0.19687325,-0.8444709,0.20780073,8.135918617248535,-0.055181313306093216,-1.3364064693450928,-96.27235412597656,164.18077087402344, -93.32911682128906
575,77505676,0.4808246,0.19692059,-0.83183163,0.19515683,8.720091819763184,-0.2156926989555359,-1.9659773111343384,-93.10259246826172,185.13059997558594, -95.94103240966797
576,77522343,0.5109098,0.19710757,-0.8166098,0.18239576,9.477776527404785,0.7658557891845703,-2.2539243698120117,-92.4716796875,204.48681640625, -103.24908447265625
577,77539010,0.54269683,0.19735198,-0.79872704,0.16901903,10.39296817779541,0.7605380415916443,-2.8091046810150146,-94.69857788085938,222.49351501464844, -111.47012329101562
578,77555677,0.5754033,0.19877392,-0.77775896,0.15649718,11.33703327178955,0.3374393880367279,-2.8769330978393555,-83.26985931396484,238.8589324951172, -119.99935913085938
579,77572344,0.60804427,0.20141941,-0.753901,0.14610177,12.678459167480469,-0.09531563520431519,-2.9797651767730713,-63.83932876586914,251.54283142089844, -122.00521087646484
580,77589011,0.63986623,0.20509803,-0.7276276,0.13807307,13.704214096069336,-0.36921462416648865,-3.539900302886963,-43.731834411621094,259.6458435058594, -119.9756088256836
581,77605678,0.6701823,0.21052155,-0.6992695,0.13250938,14.721851348876953,0.4596785008907318,-4.098196029663086,-19.61751937866211,263.11566162109375, -119.36720275878906
582,77622345,0.6989453,0.2166197,-0.66942775,0.12813321,14.803549766540527,1.1389877796173096,-4.522805213928223,-7.190908432006836,263.60870361328125, -117.86577606201172
583,77639012,0.7261037,0.2224281,-0.6387996,0.12342707,15.02102279663086,0.7776327729225159,-3.862856388092041,-7.037765026092529,259.78570556640625, -117.87040710449219
584,77655679,0.75156164,0.22717084,-0.60799253,0.117871925,14.887001037597656,1.1121060848236084,-2.761596441268921,-13.352620124816895,252.83502197265625, -116.25881958007812
585,77672346,0.7747986,0.23123516,-0.5776851,0.1117929,13.687671661376953,0.5627287030220032,-3.5126450061798096,-15.999716758728027,240.7124786376953, -113.54995727539062
586,77689013,0.792726,0.24085262,-0.5494027,0.10831606,12.795100212097168,-0.9745755791664124,-5.636260032653809,30.792736053466797,208.71389770507812, -114.44812774658203
587,77705680,0.80618125,0.25299767,-0.52431965,0.105608016,11.995450019836426,-1.1462631225585938,-6.060365200042725,52.47321319580078,173.7917022705078, -111.19145965576172
588,77722347,0.8162367,0.2606537,-0.50551593,0.10134638,10.010045051574707,-1.1178029775619507,-5.793788433074951,23.315616607666016,127.30361938476562, -90.24263000488281
589,77739014,0.8219539,0.26325306,-0.495439,0.09813246,8.907188415527344,-0.7031146287918091,-4.559269428253174,0.25738197565078735,68.67210388183594, -48.139183044433594
590,77755681,0.82418114,0.26074237,-0.49397033,0.0934476,8.373564720153809,-0.3008071482181549,-3.9835808277130127,-33.13871765136719,8.942768096923828, -21.128803253173828
591,77772348,0.8244731,0.25425524,-0.49777973,0.08839705,8.373244285583496,-3.209228754043579,-5.051045894622803,-56.84785461425781,-25.620849609375, 0.9940488934516907
592,77789015,0.8227818,0.24761207,-0.50443834,0.08521032,7.7042717933654785,-3.1429569721221924,-5.416771411895752,-49.63322830200195,-45.184940338134766, 18.252838134765625
593,77805682,0.8196182,0.2417335,-0.5128334,0.082420416,7.412023067474365,-2.5920658111572266,-5.768615245819092,-42.45498275756836,-59.86481857299805, 21.64244270324707
594,77822349,0.8147081,0.24350797,-0.5195296,0.083927006,10.355865478515625,0.22260695695877075,-4.0302042961120605,19.66942596435547,-53.62499237060547, 17.013626098632812
595,77839016,0.8063129,0.25668427,-0.52526605,0.0898244,11.491822242736816,8.153214454650879,4.2374067306518555,105.60124969482422,-59.91017150878906, 1.2712819576263428
596,77855683,0.79987276,0.2553213,-0.53552,0.09073678,16.638164520263672,-5.148679256439209,2.0686981678009033,0.7609147429466248,-77.71233367919922, 32.92849349975586
597,77872350,0.78880256,0.25550237,-0.55024225,0.09870401,14.884096145629883,-2.030745267868042,-1.5467554330825806,40.55037307739258,-107.91665649414062, 76.73402404785156
598,77889017,0.7767712,0.25622135,-0.5660515,0.102776125,12.416417121887207,0.6643258333206177,-1.9018852710723877,29.667938232421875,-124.64573669433594, 56.111297607421875
599,77905684,0.764199,0.25560573,-0.5830569,0.103490986,11.659151077270508,3.8922221660614014,-3.1483657360076904,9.568526268005371,-138.10086059570312, 45.857200622558594
600,77922351,0.7541567,0.25090376,-0.5987335,0.09906242,10.133467674255371,1.7672045230865479,-1.8250471353530884,-36.02593231201172,-127.09005737304688, 31.08831024169922
601,77939018,0.7453295,0.2482695,-0.6111083,0.096918,8.243982315063477,1.920762062072754,-2.409214496612549,-15.752501487731934,-102.4243392944336, 27.89959144592285
602,77955685,0.7381846,0.24374387,-0.6220708,0.0932755,10.713094711303711,2.5155043601989746,-2.708214044570923,-33.669288635253906,-89.4056625366211, 24.644939422607422
603,77972352,0.73097336,0.24029805,-0.6321565,0.091176875,11.775436401367188,-0.6966664791107178,-1.3858078718185425,-20.913822174072266,-83.33355712890625, 26.44086265563965
604,77989019,0.72199285,0.2439829,-0.64058596,0.09406713,9.27835464477539,0.7374014258384705,-1.7996565103530884,40.55952072143555,-78.9263916015625, 18.885271072387695
605,78005686,0.7144935,0.2462348,-0.64793104,0.09514699,9.859964370727539,2.470914840698242,-0.3342096209526062,23.681432723999023,-69.12837982177734, 13.430030822753906
606,78022353,0.7081986,0.24696031,-0.65459025,0.094747804,10.321869850158691,2.466592788696289,-0.7067959308624268,8.008505821228027,-61.90128707885742, 11.020153999328613
607,78039020,0.70330817,0.2451219,-0.66080964,0.09275628,9.638757705688477,2.240290403366089,-0.7646093964576721,-13.737250328063965,-54.474239349365234, 13.149746894836426
608,78055687,0.69920903,0.24185944,-0.66673887,0.08983456,9.70691204071045,2.676487684249878,-0.8551703095436096,-25.99689292907715,-50.13686752319336, 14.133891105651855
609,78072354,0.6953725,0.23822898,-0.67241925,0.08692862,9.934040069580078,1.9029796123504639,-1.186231255531311,-27.97269058227539,-47.48377227783203, 15.328240394592285
610,78089021,0.69174266,0.23499326,-0.6776048,0.084394135,9.699285507202148,2.0399389266967773,-0.9186297059059143,-24.409366607666016,-43.791141510009766, 14.349172592163086
611,78105688,0.68898416,0.23087887,-0.68221635,0.08109895,9.822599411010742,2.043740749359131,-1.1217916011810303,-33.204627990722656,-37.7231559753418, 13.396934509277344
612,78122355,0.6863032,0.22779892,-0.68621695,0.0787529,9.79964542388916,1.4719465970993042,-1.362523078918457,-23.631328582763672,-33.53819274902344, 12.031983375549316
613,78139022,0.68353987,0.22629608,-0.68961805,0.07739815,9.809223175048828,1.5839649438858032,-1.2324342727661133,-11.060388565063477,-30.400318145751953, 8.376238822937012
614,78155689,0.680609,0.22591737,-0.6927396,0.07645234,9.663074493408203,1.8276007175445557,-1.0799400806427002,-3.4265167713165283,-29.846206665039062, 4.624343395233154
615,78172356,0.67723876,0.2264602,-0.6958854,0.0762046,9.465031623840332,2.4931113719940186,-0.8812634348869324,4.882521629333496,-31.45663070678711, 3.772603750228882
616,78189023,0.67343765,0.22719312,-0.6993094,0.07636491,9.09881591796875,2.8139071464538574,-1.0409446954727173,8.250880241394043,-34.28212356567383, 5.426926136016846
617,78205690,0.66929376,0.22762775,-0.7031158,0.07655112,9.080227851867676,2.8377315998077393,-1.2180967330932617,7.333601474761963,-37.50798416137695, 7.763641357421875
618,78222357,0.665342,0.22787419,-0.7067642,0.076667756,9.445865631103516,1.8161847591400146,-1.3753570318222046,5.920563220977783,-35.86482620239258, 8.010454177856445
619,78239024,0.6612974,0.22910905,-0.710044,0.077669136,9.7682523727417,1.182895541191101,-1.3255221843719482,15.08307933807373,-33.769344329833984, 6.727817058563232
620,78255691,0.6574677,0.23075724,-0.71289414,0.07917884,9.838236808776855,1.5158981084823608,-1.4104869365692139,19.334224700927734,-30.19023895263672, 6.228326320648193
621,78272358,0.6536945,0.23242286,-0.7156085,0.08104214,9.437677383422852,2.563580274581909,-1.5403857231140137,21.13069725036621,-28.75330352783203, 7.494816303253174
622,78289025,0.6499117,0.23344319,-0.7184872,0.0830389,9.269681930541992,2.959296226501465,-1.485486388206482,18.81821632385254,-28.97015953063965, 11.54138469696045
623,78305692,0.64584804,0.23407844,-0.721674,0.085288875,9.370899200439453,2.549301862716675,-1.5353673696517944,18.628877639770508,-31.11141586303711, 15.234906196594238
624,78322359,0.64132977,0.23490863,-0.7250966,0.08802821,9.551481246948242,2.1040592193603516,-1.4995615482330322,22.52063751220703,-33.744998931884766, 17.09052848815918
625,78339026,0.63654554,0.23577903,-0.72867435,0.09083997,9.54060173034668,1.789811134338379,-1.61544930934906,23.39982795715332,-35.66607666015625, 17.622879028320312
626,78355693,0.6316308,0.23628941,-0.7324362,0.09352747,9.539011001586914,2.0612833499908447,-1.8177112340927124,21.2993106842041,-37.10661315917969, 19.264019012451172
627,78372360,0.62683046,0.23601474,-0.73632735,0.0959301,9.49886703491211,2.053208351135254,-2.213773727416992,16.19024658203125,-37.0535774230957, 22.11910629272461
628,78389027,0.62217534,0.235251,-0.7401971,0.09830271,9.506991386413574,1.7627065181732178,-2.5560545921325684,13.71479606628418,-35.95487976074219, 24.337636947631836
629,78405694,0.6175634,0.23460184,-0.74386984,0.101169035,9.160012245178223,1.4884798526763916,-2.5622856616973877,16.78199577331543,-34.173255920410156, 25.520204544067383
630,78422361,0.6128581,0.23367922,-0.7476271,0.10417745,9.205265998840332,2.019073486328125,-1.9866172075271606,16.44154167175293,-34.590450286865234, 27.723806381225586
631,78439028,0.6070299,0.23257345,-0.7522678,0.10731953,9.25324535369873,2.551865577697754,-0.9847495555877686,17.532636642456055,-43.743316650390625, 31.45520782470703
632,78455695,0.5995385,0.23084398,-0.7583939,0.11001495,9.406469345092773,2.1398589611053467,-0.37109094858169556,14.192060470581055,-58.807125091552734, 36.42423629760742
633,78472362,0.5900964,0.22872452,-0.7660744,0.1122573,10.238409996032715,1.3593366146087646,-0.656269371509552,12.148938179016113,-75.82085418701172, 40.536895751953125
634,78489029,0.57922095,0.22647682,-0.7746967,0.11426609,10.90768051147461,1.0163419246673584,-1.3724526166915894,11.92885971069336,-87.47091674804688, 42.854679107666016
635,78505696,0.5676718,0.22376329,-0.78369445,0.11619831,11.137866020202637,0.8563154935836792,-2.878481149673462,10.4241943359375,-92.31770324707031, 46.14490509033203
636,78522363,0.5561077,0.22107312,-0.7923589,0.11848519,10.663204193115234,1.3872120380401611,-2.9732468128204346,12.714174270629883,-90.57567596435547, 46.903682708740234
637,78539030,0.5437945,0.21866615,-0.80100715,0.12190346,11.181523323059082,2.268495798110962,-2.6841800212860107,21.121540069580078,-93.1112060546875, 50.273555755615234
638,78555697,0.5305952,0.21487127,-0.81021935,0.12587224,11.922115325927734,3.8280746936798096,-2.0813491344451904,19.831039428710938,-98.11788177490234, 61.5714111328125
639,78572364,0.5161124,0.21069656,-0.81995505,0.13003477,12.893745422363281,3.2385315895080566,-1.6816343069076538,20.984676361083984,-106.57551574707031, 66.28754425048828
640,78589031,0.49986267,0.20651521,-0.8301319,0.13553603,14.940455436706543,2.3648390769958496,-1.7980527877807617,30.69136619567871,-116.17555236816406, 73.29924774169922
641,78605698,0.48305786,0.19986512,-0.84079885,0.14059325,14.731365203857422,3.8952064514160156,-0.6570022106170654,20.015644073486328,-119.3814926147461, 87.08173370361328
642,78622365,0.4660813,0.1940712,-0.85085714,0.14542061,15.844502449035645,2.112962007522583,-1.9540386199951172,22.371318817138672,-119.52290344238281, 80.70698547363281
643,78639032,0.44801715,0.1895997,-0.8602737,0.15251826,14.625274658203125,2.4610540866851807,-0.5978392362594604,41.996917724609375,-122.14957427978516, 80.48047637939453
644,78655699,0.42899787,0.18397109,-0.86958957,0.16102655,13.60395336151123,1.89841628074646,-0.7095215320587158,48.14328384399414,-124.46952819824219, 92.54598999023438
645,78672366,0.40919423,0.17847513,-0.8786097,0.16956341,12.674915313720703,1.3413175344467163,-2.4510109424591064,50.03913116455078,-128.4284210205078, 92.33342742919922
646,78689033,0.39077732,0.17372935,-0.8859811,0.17930107,12.613216400146484,-0.36878496408462524,-2.738344430923462,59.628761291503906,-114.83395385742188, 87.54554748535156
647,78705700,0.37587318,0.17130573,-0.88993865,0.19334689,10.568733215332031,0.4404739737510681,-1.2177973985671997,92.12679290771484,-81.99967956542969, 76.56863403320312
648,78722367,0.359601,0.17099878,-0.8931244,0.20922615,7.187732696533203,0.39391133189201355,-3.8289103507995605,111.46328735351562,-89.05581665039062, 69.2686538696289
649,78739034,0.3457848,0.17130499,-0.8957825,0.22059406,6.9702324867248535,1.4616466760635376,-5.435883045196533,83.1466293334961,-78.85684967041016, 50.20006561279297
650,78755701,0.3351656,0.17427647,-0.8972944,0.22837394,5.545131683349609,-0.7065401077270508,-5.149217128753662,65.3733139038086,-64.71185302734375, 19.055768966674805
651,78772368,0.32957593,0.17983781,-0.8969005,0.23368289,6.788671016693115,0.5216905474662781,-2.7916524410247803,53.06505584716797,-36.3129768371582, -12.79325008392334
652,78789035,0.3286782,0.18652979,-0.8941379,0.24019726,6.608318328857422,0.3505055010318756,1.4449210166931152,61.078060150146484,-2.347402572631836, -27.49833106994629
653,78805702,0.33074382,0.1937084,-0.88994724,0.2471432,5.557974815368652,1.021074652671814,2.2539522647857666,63.38969421386719,18.830490112304688, -36.22996520996094
654,78822369,0.33708972,0.19981171,-0.8852228,0.25065243,5.379293918609619,0.530659019947052,1.6273436546325684,35.12203598022461,43.46992111206055, -45.43655776977539
655,78839036,0.3467725,0.20523223,-0.87945205,0.25336328,5.348461627960205,-0.12259254604578018,-0.08003365993499756,25.902767181396484,66.27058410644531, -50.31207275390625
656,78855703,0.3599975,0.20949145,-0.8731535,0.25321603,5.380906105041504,0.17581723630428314,-1.7739734649658203,1.7765322923660278,86.93070983886719, -57.01447677612305
657,78872370,0.37726995,0.21253136,-0.8665953,0.24801324,5.392512321472168,0.4232710599899292,-2.8680484294891357,-36.969688415527344,106.71409606933594, -69.62108612060547
658,78889037,0.39840257,0.2147465,-0.8591669,0.23873,6.297708034515381,0.8992816805839539,-2.139802932739258,-67.56491088867188,127.41862487792969, -83.15060424804688
659,78905704,0.42341924,0.21576022,-0.85005,0.2271098,7.545010089874268,0.3451876938343048,-1.719596266746521,-87.62454223632812,153.51568603515625, -91.3191146850586
660,78922371,0.4509061,0.21623139,-0.83869207,0.21569325,8.444379806518555,0.034987181425094604,-1.8016417026519775,-88.1739501953125,175.62710571289062, -94.73526763916016
661,78939038,0.48052275,0.21598391,-0.8252186,0.20362556,9.220053672790527,0.42564547061920166,-2.30000901222229,-94.18334197998047,194.56655883789062, -98.9128646850586
662,78955705,0.51170444,0.21553902,-0.80941415,0.19118182,10.182496070861816,0.5294792056083679,-2.9481003284454346,-96.03289031982422,210.870849609375, -104.68328857421875
663,78972372,0.5437655,0.21579623,-0.7909413,0.17934075,11.159623146057129,0.6537402272224426,-3.2550528049468994,-87.99532318115234,225.12973022460938, -111.5780029296875
664,78989039,0.5761594,0.21717668,-0.76963377,0.16893451,12.062077522277832,0.8568369746208191,-3.113133668899536,-72.98594665527344,238.29139709472656, -116.93229675292969
665,79005706,0.6078313,0.21959329,-0.7460909,0.16021444,13.031414985656738,0.5417271852493286,-3.53714656829834,-56.280948638916016,244.6494598388672, -118.22461700439453
666,79022373,0.6382428,0.22304995,-0.72066194,0.15343225,13.858088493347168,0.2707548141479492,-3.978297710418701,-38.014503479003906,247.8581085205078, -116.91104888916016
667,79039040,0.66655314,0.22852968,-0.6936867,0.1492648,13.990477561950684,0.5601240396499634,-4.398386001586914,-11.327292442321777,246.12379455566406, -115.60884857177734
668,79055707,0.69303334,0.23573697,-0.6652895,0.14670749,14.20515251159668,0.44669127464294434,-4.389156341552734,8.595189094543457,244.69329833984375, -116.82048034667969
669,79072374,0.71849275,0.24315242,-0.63560814,0.1436923,14.549385070800781,0.751174807548523,-3.5573136806488037,10.422881126403809,245.22146606445312, -121.00707244873047
670,79089041,0.74323773,0.24913977,-0.605123,0.1391177,14.50627613067627,0.5292671918869019,-2.895967721939087,-1.478090524673462,244.9019012451172, -123.11011505126953
671,79105708,0.7654994,0.25604346,-0.57464385,0.13504544,13.463255882263184,-0.6719359755516052,-4.435765743255615,9.523710250854492,234.54498291015625, -121.97618103027344
672,79122375,0.7828102,0.26615694,-0.5466877,0.13229288,12.791098594665527,-1.7510383129119873,-6.6950860023498535,37.983882904052734,201.0655517578125, -118.6861801147461
673,79139042,0.7962757,0.27662048,-0.5221297,0.1296408,11.649755477905273,-1.0242596864700317,-5.7990899085998535,44.16266632080078,168.22085571289062, -109.76773834228516
674,79155709,0.8068789,0.28326026,-0.50269836,0.12650965,10.126002311706543,-0.520825982093811,-4.686118125915527,22.35289764404297,132.40150451660156, -86.38157653808594
675,79172376,0.8138647,0.28645965,-0.4898449,0.12496834,9.421233177185059,-0.041335947811603546,-4.509343147277832,10.065751075744629,89.52027893066406, -49.732303619384766
676,79189043,0.8180181,0.28572154,-0.48418167,0.121563636,8.494057655334473,0.851103663444519,-5.105166435241699,-18.85898780822754,39.48699951171875, -30.32315444946289
677,79205710,0.81917006,0.28374046,-0.48440817,0.117475495,8.830755233764648,-1.2260046005249023,-6.195743083953857,-27.163169860839844,-3.9011476039886475, -15.963260650634766
678,79222377,0.81762606,0.28306735,-0.4880899,0.11458141,8.451889038085938,-1.0864790678024292,-5.822216510772705,-13.369691848754883,-31.034343719482422, -4.702101230621338
679,79239044,0.8140806,0.28411853,-0.4938246,0.112636946,7.584837436676025,-1.133630633354187,-5.279711723327637,1.772407054901123,-48.7713623046875, 0.39840245246887207
680,79255711,0.80963004,0.28633267,-0.50008565,0.11147808,8.18668270111084,-0.2689269483089447,-6.511229991912842,12.296104431152344,-54.1300163269043, 2.556168556213379
681,79272378,0.8039929,0.2921387,-0.5061725,0.10972713,9.576292991638184,6.136122226715088,-1.75193452835083,32.705867767333984,-61.1297721862793, -12.541926383972168
682,79289045,0.800875,0.2864185,-0.51556313,0.103723824,17.85812759399414,0.9921923279762268,14.405474662780762,-53.356300354003906,-70.4500503540039, 8.819753646850586
683,79305712,0.7955807,0.27501056,-0.5300021,0.1025593,13.9910249710083,-6.568375110626221,-0.533643364906311,-66.84716796875,-92.43338012695312, 67.09098815917969
684,79322379,0.7853212,0.27206218,-0.5461302,0.10485583,12.55320930480957,-3.847015142440796,-0.13649079203605652,0.2081996500492096,-119.18257141113281, 61.83235168457031
685,79339046,0.77208644,0.27422988,-0.56324047,0.10696234,13.259119033813477,0.5802350044250488,-2.4868311882019043,31.95123291015625,-139.70358276367188, 45.53932571411133
686,79355713,0.76159495,0.26982537,-0.58050793,0.10088804,11.468879699707031,5.18792200088501,-0.6564197540283203,-39.92753982543945,-140.4869384765625, 25.83238983154297
687,79372380,0.75212795,0.26597917,-0.59531176,0.09572112,7.919210433959961,3.418833017349243,-6.782362937927246,-33.56715393066406,-122.18560028076172, 23.09602928161621
688,79389047,0.74425995,0.26237422,-0.6073435,0.091494516,10.489092826843262,5.028700828552246,-3.4575562477111816,-29.575027465820312,-99.70806884765625, 20.865516662597656
689,79405714,0.7384572,0.25476485,-0.6179661,0.08884714,11.18025016784668,-0.857099175453186,-1.371366262435913,-46.30412292480469,-78.48477172851562, 41.848350524902344
690,79422381,0.7307184,0.25408447,-0.6268573,0.092423245,10.99637222290039,-1.8124535083770752,-1.525726556777954,19.754764556884766,-71.24784088134766, 42.14250183105469
691,79439048,0.72193205,0.2605947,-0.6334281,0.09835524,9.753928184509277,1.082289695739746,-0.5004958510398865,69.32096099853516,-64.56108093261719, 19.578052520751953
692,79455715,0.71590817,0.26311463,-0.6390874,0.09906497,9.893677711486816,4.004812240600586,0.6712397336959839,22.433950424194336,-54.66837692260742, 7.530491352081299
693,79472382,0.71158165,0.262783,-0.6441885,0.09807238,9.718170166015625,1.7590529918670654,-1.1415940523147583,-1.7628716230392456,-45.60692596435547, 9.528324127197266
694,79489049,0.7075182,0.26294985,-0.6485401,0.09834241,9.12026309967041,2.767329692840576,-0.6110877394676208,6.30157470703125,-38.82985305786133, 11.968905448913574
695,79505716,0.7036376,0.26243478,-0.652891,0.098771684,9.53951644897461,3.036257743835449,-0.4963746964931488,3.3685953617095947,-37.265254974365234, 15.667577743530273
696,79522383,0.69899184,0.2632823,-0.6572816,0.1003695,8.816550254821777,2.6302943229675293,-0.5615765452384949,16.566640853881836,-39.71305465698242, 15.803466796875
697,79539050,0.6941679,0.26382247,-0.6619664,0.10163468,9.103189468383789,3.9034669399261475,0.09951278567314148,13.713153839111328,-42.32725143432617, 16.256553649902344
698,79555717,0.6905401,0.2601074,-0.6674785,0.099855155,9.637872695922852,3.358931303024292,0.10207383334636688,-23.186771392822266,-43.388145446777344, 21.770931243896484
699,79572384,0.68728596,0.25427932,-0.67351145,0.09676029,9.265020370483398,2.0731024742126465,-0.7024846076965332,-40.2740592956543,-45.05536651611328, 25.91050148010254
700,79589051,0.68392646,0.24871683,-0.67941797,0.093681455,9.693182945251465,1.6655899286270142,-1.0264203548431396,-38.671749114990234,-45.098968505859375, 24.612308502197266
701,79605718,0.6804538,0.24437551,-0.68479747,0.091191895,9.668533325195312,1.2455251216888428,-0.9605491757392883,-29.641918182373047,-42.93196105957031, 20.854890823364258
