PacketCounter,SampleTimeFine,Quat_W,Quat_X,Quat_Y,Quat_Z,Acc_X,Acc_Y,Acc_Z,Gyr_X,Gyr_Y,Gyr_Z 
2,79602304,0.383442,0.41127014,-0.49534976,0.6621614,9.035130500793457,-3.3069205284118652,1.6414848566055298,-2.2818613052368164,0.10600457340478897, 0.4718819856643677
3,79618971,0.38342145,0.41142598,-0.49552605,0.66194457,9.01417064666748,-3.301307439804077,1.6409082412719727,-2.2684144973754883,0.3857208788394928, 0.39065131545066833
4,79635638,0.38339636,0.41151032,-0.49571708,0.66176367,9.026924133300781,-3.2960472106933594,1.6706639528274536,-2.414534568786621,0.44738340377807617, 0.6705211997032166
5,79652305,0.38355142,0.4114239,-0.49590242,0.66158885,9.01357650756836,-3.315621852874756,1.649120807647705,-2.852665662765503,0.5848979949951172, 0.6209990978240967
6,79668972,0.38364592,0.41132486,-0.49609932,0.6614479,8.97576904296875,-3.353292942047119,1.7029039859771729,-2.648711681365967,0.40573716163635254, 0.5659445524215698
7,79685639,0.38384292,0.41103014,-0.49634704,0.6613309,9.010041236877441,-3.3053078651428223,1.693943738937378,-2.43784236907959,0.289007306098938, 0.3800092339515686
8,79702306,0.3839097,0.41086954,-0.4964821,0.6612905,8.991066932678223,-3.345611810684204,1.7027792930603027,-2.432053804397583,0.07845810055732727, 0.3763209879398346
9,79718973,0.3839162,0.41075152,-0.49659315,0.6612766,9.009406089782715,-3.3147311210632324,1.689190149307251,-2.2102608680725098,-0.22764569520950317, 0.24978145956993103
10,79735640,0.38391158,0.41065907,-0.49670348,0.6612538,8.975774765014648,-3.3419501781463623,1.680649757385254,-2.195495128631592,-0.3221053183078766, 0.3101505935192108
11,79752307,0.38386673,0.410572,-0.49679923,0.66126215,9.02288818359375,-3.319138765335083,1.6872791051864624,-2.1451404094696045,-0.17905840277671814, 0.3603258728981018
12,79768974,0.3839944,0.41040525,-0.49698567,0.66115147,8.999764442443848,-3.33839750289917,1.6836165189743042,-2.196404457092285,-0.27595123648643494, 0.16949845850467682
13,79785641,0.3840844,0.41030705,-0.49715182,0.66103524,8.98642635345459,-3.331183910369873,1.734594702720642,-2.038578510284424,-0.5422848463058472, -0.021886050701141357
14,79802308,0.3841272,0.4102271,-0.49735254,0.6609088,8.967260360717773,-3.344174385070801,1.6969138383865356,-2.6076290607452393,-0.8237941265106201, 0.10884756594896317
15,79818975,0.38412875,0.4101703,-0.49751908,0.6608178,9.051326751708984,-3.3110148906707764,1.6308356523513794,-2.1747488975524902,-0.8463076949119568, 0.1651827096939087
16,79835642,0.38408577,0.41012412,-0.4976562,0.6607681,9.024215698242188,-3.2650363445281982,1.6574790477752686,-2.3346362113952637,-0.4247994124889374, 0.3544349670410156
17,79852309,0.38411587,0.4100086,-0.49783775,0.6606858,9.034725189208984,-3.341813325881958,1.6508300304412842,-2.6111764907836914,-0.1513710469007492, 0.5244392156600952
18,79868976,0.3842101,0.40983889,-0.49802694,0.66059357,8.994193077087402,-3.338177442550659,1.6591145992279053,-2.4839835166931152,0.15358015894889832, 0.4896443784236908
19,79885643,0.38423023,0.40972048,-0.49815613,0.6605579,9.016740798950195,-3.344614267349243,1.7136942148208618,-2.4307990074157715,0.30060985684394836, 0.46608075499534607
20,79902310,0.38430974,0.40957525,-0.4983015,0.660492,8.98826789855957,-3.343465566635132,1.6941745281219482,-2.3845937252044678,0.2796330749988556, 0.32661956548690796
21,79918977,0.3843628,0.40945876,-0.49844134,0.6604279,8.988809585571289,-3.355940580368042,1.7068545818328857,-2.1347033977508545,0.040448859333992004, 0.33098652958869934
22,79935644,0.3844569,0.4093433,-0.49858204,0.66033846,8.994243621826172,-3.3247087001800537,1.69568932056427,-2.171111822128296,0.019343992695212364, 0.08048151433467865
23,79952311,0.38449493,0.40926364,-0.49870253,0.66027474,8.991646766662598,-3.3583297729492188,1.680418848991394,-2.314619779586792,0.002413997193798423, 0.13273140788078308
24,79968978,0.38460642,0.40915188,-0.49888164,0.66014373,8.986143112182617,-3.307957172393799,1.6996933221817017,-2.276341676712036,-0.23489408195018768, 0.025068430230021477
25,79985645,0.38467193,0.40906513,-0.4990851,0.66000557,8.993101119995117,-3.333550214767456,1.7099432945251465,-2.396080732345581,-0.5308231711387634, 0.19051367044448853
26,80002312,0.3847125,0.40899193,-0.4992762,0.65988284,9.019171714782715,-3.338104009628296,1.6901460886001587,-2.342921733856201,-0.5525555610656738, 0.23743613064289093
27,80018979,0.38457295,0.40905252,-0.49932486,0.65988964,8.995047569274902,-3.35895037651062,1.6651438474655151,-2.457653760910034,-0.2571259140968323, 0.17085590958595276
28,80035646,0.384876,0.4087704,-0.49962524,0.6596604,9.007753372192383,-3.324916124343872,1.6781128644943237,-2.4046738147735596,-0.03626758232712746, 0.15799833834171295
29,80052313,0.3849586,0.408646,-0.49977502,0.6595758,9.00407600402832,-3.3629748821258545,1.6603565216064453,-2.6136608123779297,0.21261738240718842, 0.15076273679733276
30,80068980,0.38496467,0.40860474,-0.4998428,0.65954643,9.023019790649414,-3.3377416133880615,1.670913815498352,-2.178398609161377,0.1764266937971115, 0.014644062146544456
31,80085647,0.3851164,0.40846118,-0.49998677,0.65943754,8.977021217346191,-3.359302043914795,1.6823750734329224,-2.4164557456970215,0.33508455753326416, -0.09185995906591415
32,80102314,0.38514483,0.40844196,-0.50003445,0.65939677,8.982890129089355,-3.357301950454712,1.7295153141021729,-2.124906539916992,0.19092346727848053, -0.25260525941848755
33,80118981,0.38517302,0.4084359,-0.50009924,0.659335,8.97756576538086,-3.318787097930908,1.7251132726669312,-2.156128406524658,-0.02485712431371212, -0.29604434967041016
34,80135648,0.38506263,0.40850055,-0.50013644,0.6593311,8.999126434326172,-3.339857339859009,1.718148946762085,-2.4411208629608154,-0.1596183478832245, -0.038162920624017715
35,80152315,0.38509393,0.4084552,-0.5002785,0.65923333,8.994117736816406,-3.3369781970977783,1.7144756317138672,-2.3383629322052,-0.31688034534454346, 0.03304678574204445
36,80168982,0.3853748,0.40821218,-0.50057125,0.6589973,9.01202392578125,-3.3244829177856445,1.7022244930267334,-2.3214712142944336,-0.25099167227745056, 0.07214457541704178
37,80185649,0.38530615,0.40822533,-0.50063574,0.65898037,8.994983673095703,-3.3370108604431152,1.7056713104248047,-2.5207247734069824,-0.03041507862508297, 0.06864843517541885
38,80202316,0.38512266,0.40831488,-0.500634,0.6590333,8.993419647216797,-3.3543906211853027,1.7046570777893066,-2.341064929962158,-0.07080630958080292, 0.16963931918144226
39,80218983,0.3851521,0.40826932,-0.5007554,0.6589521,8.990487098693848,-3.3287367820739746,1.706944227218628,-2.2405474185943604,-0.20313432812690735, 0.028500529006123543
40,80235650,0.3852684,0.40812287,-0.5009699,0.65881205,8.99112606048584,-3.3535430431365967,1.6854900121688843,-2.159048318862915,-0.31512585282325745, 0.3094078004360199
41,80252317,0.3852702,0.40806898,-0.50111794,0.6587318,9.010348320007324,-3.3265249729156494,1.7179503440856934,-2.305540084838867,-0.32248952984809875, 0.2599240839481354
42,80268984,0.38529623,0.40796334,-0.5013113,0.6586347,8.991312980651855,-3.3402445316314697,1.6970820426940918,-2.4076452255249023,-0.3133201599121094, 0.48443225026130676
43,80285651,0.38531905,0.40784693,-0.50148416,0.65856177,9.021443367004395,-3.3321776390075684,1.68190598487854,-2.5770857334136963,-0.029172861948609352, 0.4853670299053192
44,80302318,0.38538855,0.40769017,-0.5016928,0.6584595,8.970573425292969,-3.371138334274292,1.715490460395813,-2.686797857284546,-0.0022283049765974283, 0.5115176439285278
45,80318985,0.38528922,0.40764898,-0.5018205,0.65844584,9.003153800964355,-3.3643648624420166,1.706160545349121,-2.695327043533325,-0.10165680944919586, 0.6181305050849915
46,80335652,0.3853701,0.40747094,-0.50208396,0.6583078,8.964034080505371,-3.344996452331543,1.7231953144073486,-2.8957207202911377,-0.21109989285469055, 0.6269285082817078
47,80352319,0.38526592,0.40744612,-0.50221926,0.6582808,9.021866798400879,-3.3105905055999756,1.6934808492660522,-2.407414436340332,-0.3739326000213623, 0.6233683228492737
48,80368986,0.38525665,0.40733624,-0.50243896,0.65818655,8.978228569030762,-3.353198289871216,1.698183536529541,-2.6429617404937744,-0.39640775322914124, 0.7131152153015137
49,80385653,0.38507763,0.40736142,-0.5025477,0.65819275,9.00346565246582,-3.3779990673065186,1.6842676401138306,-2.3375301361083984,-0.5006258487701416, 0.7266131043434143
50,80402320,0.38505602,0.40726948,-0.5027217,0.6581294,8.974610328674316,-3.364003896713257,1.703417420387268,-1.8077826499938965,-0.4741806983947754, 0.7350651621818542
51,80418987,0.38499376,0.40719613,-0.5028906,0.65808225,9.01856803894043,-3.3458268642425537,1.677451491355896,-1.8561267852783203,-0.5321422815322876, 0.8306006193161011
52,80435654,0.38494718,0.40710196,-0.50305545,0.6580418,9.006300926208496,-3.3337032794952393,1.7005680799484253,-2.254519462585449,-0.22162669897079468, 0.7841008305549622
53,80452321,0.3850822,0.40685362,-0.5033256,0.6579098,9.000651359558105,-3.3916211128234863,1.6772997379302979,-2.34687876701355,-0.042529888451099396, 0.8397443294525146
54,80468988,0.38503066,0.40677756,-0.5034212,0.6579137,8.963644981384277,-3.407438039779663,1.6864235401153564,-2.2773916721343994,0.19634056091308594, 0.5736027956008911
55,80485655,0.38511315,0.40663782,-0.5035467,0.65785587,8.985615730285645,-3.404341459274292,1.7003509998321533,-2.3540380001068115,0.3891017735004425, 0.2439417541027069
56,80502322,0.38531163,0.40639406,-0.50375724,0.65772897,8.995577812194824,-3.31782865524292,1.7084096670150757,-2.462968349456787,0.41954243183135986, 0.3245193064212799
57,80518989,0.38538498,0.40617824,-0.503917,0.6576969,9.002036094665527,-3.3570690155029297,1.6885873079299927,-2.6440377235412598,0.6961339712142944, 0.7089019417762756
58,80535656,0.38519785,0.4061414,-0.5038922,0.6578484,9.017005920410156,-3.376854419708252,1.6855218410491943,-2.2750864028930664,0.8604649901390076, 0.8369525671005249
59,80552323,0.38532934,0.40585828,-0.5040398,0.6578329,8.994318008422852,-3.4046177864074707,1.6839505434036255,-2.2500500679016113,1.047373652458191, 0.8048343062400818
60,80568990,0.38532457,0.4057173,-0.504082,0.6578903,8.98986530303955,-3.380063772201538,1.7167534828186035,-2.152440309524536,0.9442442059516907, 0.5793272852897644
61,80585657,0.38539696,0.40552646,-0.5042036,0.65787256,8.96757698059082,-3.3664803504943848,1.7815148830413818,-2.458498954772949,0.7627782225608826, 0.5429571866989136
62,80602324,0.3854601,0.40543056,-0.5043172,0.6578076,8.953383445739746,-3.394949197769165,1.7667511701583862,-2.329833745956421,0.1851862221956253, 0.10723397880792618
63,80618991,0.38545063,0.40539306,-0.5044572,0.65772885,8.928807258605957,-3.4112772941589355,1.7682355642318726,-2.537590980529785,-0.29827266931533813, 0.19872254133224487
64,80635658,0.38544652,0.40538332,-0.50460464,0.6576242,8.994392395019531,-3.4174749851226807,1.6897435188293457,-2.5062663555145264,-0.5444234609603882, 0.042792413383722305
65,80652325,0.38553557,0.4053401,-0.50472325,0.65750754,8.968517303466797,-3.3824429512023926,1.7078211307525635,-2.18526291847229,-0.24666310846805573, -0.2745681405067444
66,80668992,0.38561884,0.4052689,-0.50488096,0.6573815,8.99445629119873,-3.345940351486206,1.7147305011749268,-2.7313637733459473,-0.16612395644187927, -0.11523153632879257
67,80685659,0.38569686,0.40520176,-0.5050457,0.65725076,8.969703674316406,-3.4121673107147217,1.7039158344268799,-2.9403510093688965,-0.1666618436574936, -0.12436246871948242
68,80702326,0.38569155,0.40521187,-0.5051325,0.6571807,8.982871055603027,-3.3939452171325684,1.7096086740493774,-2.499338388442993,-0.21755428612232208, -0.17236067354679108
69,80718993,0.38575086,0.40519124,-0.50524724,0.6570704,8.957403182983398,-3.3853759765625,1.7334023714065552,-2.5165884494781494,-0.23750653862953186, -0.2963261008262634
70,80735660,0.38584292,0.40517282,-0.50537527,0.65692914,8.974282264709473,-3.3778293132781982,1.714869499206543,-2.245311737060547,-0.4620915353298187, -0.40488559007644653
71,80752327,0.3859505,0.40513843,-0.50549775,0.65679294,8.997870445251465,-3.338677167892456,1.6944005489349365,-2.473315954208374,-0.2400037795305252, -0.4522562325000763
72,80768994,0.3860505,0.40511903,-0.50560135,0.65666634,9.0032320022583,-3.3945016860961914,1.7205005884170532,-2.2731399536132812,-0.2669483721256256, -0.4868462383747101
73,80785661,0.3861475,0.40513223,-0.50567657,0.6565434,8.946281433105469,-3.349531888961792,1.743999719619751,-2.238844633102417,-0.2670123875141144, -0.6895323395729065
74,80802328,0.38622648,0.40513048,-0.5058144,0.65639174,8.985145568847656,-3.3751237392425537,1.706728458404541,-2.5973455905914307,-0.5217435359954834, -0.4520513713359833
75,80818995,0.38627172,0.40517148,-0.5059445,0.65623945,8.98878288269043,-3.367435932159424,1.7297042608261108,-2.3828773498535156,-0.8078629374504089, -0.47402703762054443
76,80835662,0.3863188,0.4052083,-0.506062,0.6560985,8.98234748840332,-3.4033286571502686,1.7407933473587036,-2.3411035537719727,-0.7095230221748352, -0.47589680552482605
77,80852329,0.38641402,0.40526435,-0.5061929,0.65590674,8.986766815185547,-3.406400442123413,1.7026745080947876,-2.3591346740722656,-0.929254412651062, -0.8062878251075745
78,80868996,0.3865287,0.40532166,-0.5063062,0.6557163,8.97612190246582,-3.3835556507110596,1.6830291748046875,-2.4959192276000977,-0.7558820247650146, -0.9744735360145569
79,80885663,0.38672984,0.40530407,-0.5064415,0.65550435,9.009980201721191,-3.383957862854004,1.6882667541503906,-2.8898298740386963,-0.3222205936908722, -1.0614030361175537
80,80902330,0.3868474,0.4053226,-0.5065243,0.6553593,8.9740629196167,-3.3334336280822754,1.6809320449829102,-2.6715199947357178,-0.2328578531742096, -0.8768123388290405
81,80918997,0.3869825,0.4052692,-0.506617,0.6552409,9.057971954345703,-3.2481820583343506,1.6963977813720703,-2.347083806991577,0.0010309111094102263, -0.51340651512146
82,80935664,0.38712835,0.40512413,-0.50678384,0.6551154,8.972984313964844,-3.342041254043579,1.7204738855361938,-2.6542186737060547,0.1070546880364418, 0.015322797931730747
83,80952331,0.3871558,0.40507606,-0.5068863,0.6550497,8.970711708068848,-3.3812167644500732,1.7225720882415771,-2.0376436710357666,-0.23461230099201202, 0.11361152678728104
84,80968998,0.3872103,0.40501475,-0.50699663,0.65497,8.980607986450195,-3.3480920791625977,1.7374234199523926,-2.0672266483306885,-0.21036989986896515, 0.050565868616104126
85,80985665,0.3872798,0.40492046,-0.50712836,0.6548852,9.004049301147461,-3.313509941101074,1.7141145467758179,-2.459165334701538,-0.03338615596294403, 0.12217898666858673
86,81002332,0.3873209,0.40483454,-0.50723994,0.65482754,8.995424270629883,-3.3453402519226074,1.7266497611999512,-2.575868844985962,0.10501846671104431, 0.17536374926567078
87,81018999,0.38739803,0.40470904,-0.5073742,0.65475553,9.001482963562012,-3.35483717918396,1.716465950012207,-2.053011417388916,-0.03387279435992241, 0.33009645342826843
88,81035666,0.38742125,0.40461734,-0.5074933,0.65470624,8.9771089553833,-3.3544180393218994,1.7133792638778687,-2.1065421104431152,-0.10907168686389923, 0.40129339694976807
89,81052333,0.3874274,0.4045063,-0.50762326,0.6546704,8.988608360290527,-3.365079879760742,1.7141940593719482,-2.2268576622009277,-0.03607548773288727, 0.5948101282119751
90,81069000,0.38744292,0.40439716,-0.5077421,0.6546364,8.97861385345459,-3.3408820629119873,1.7175114154815674,-2.2867400646209717,0.05184650793671608, 0.5061517357826233
91,81085667,0.3874557,0.40428194,-0.5078987,0.6545785,8.977258682250977,-3.3769419193267822,1.7275266647338867,-2.3267600536346436,-0.18836861848831177, 0.622561514377594
92,81102334,0.38747355,0.40416107,-0.50804377,0.65453,9.000648498535156,-3.3288559913635254,1.695408821105957,-2.43711256980896,-0.033859990537166595, 0.5860506296157837
93,81119001,0.387504,0.40402567,-0.5081973,0.65447646,8.974761009216309,-3.410252332687378,1.7301268577575684,-2.6612491607666016,0.07036449015140533, 0.580236554145813
94,81135668,0.38753846,0.4039158,-0.5083229,0.65442634,8.959789276123047,-3.3811824321746826,1.7355704307556152,-2.288315534591675,-0.023397201672196388, 0.4335781931877136
95,81152335,0.3875451,0.4038275,-0.5084805,0.65435445,8.944388389587402,-3.3501627445220947,1.7647243738174438,-2.369418144226074,-0.3740606904029846, 0.5162304043769836
96,81169002,0.38754976,0.40371254,-0.5086922,0.65425813,8.989436149597168,-3.3425326347351074,1.7323553562164307,-2.6418092250823975,-0.5324496030807495, 0.7275095582008362
97,81185669,0.38752815,0.40361217,-0.50889784,0.6541729,8.96433162689209,-3.409351348876953,1.6870994567871094,-2.3464179039001465,-0.6966526508331299, 0.8325600028038025
98,81202336,0.38748872,0.40353286,-0.5090426,0.65413254,9.01327896118164,-3.3794631958007812,1.6784807443618774,-2.1462929248809814,-0.44242098927497864, 0.7327345013618469
99,81219003,0.38750026,0.40341392,-0.50919,0.6540843,8.961784362792969,-3.4133965969085693,1.731520414352417,-2.4820499420166016,-0.10032495111227036, 0.6235091686248779
100,81235670,0.3875052,0.40332562,-0.5092988,0.65405124,8.989538192749023,-3.376758337020874,1.7325372695922852,-2.065613269805908,-0.16009217500686646, 0.4942418932914734
101,81252337,0.38754705,0.40319112,-0.5094732,0.65397346,8.957942008972168,-3.3661344051361084,1.7343864440917969,-2.2939116954803467,-0.30340802669525146, 0.6322174668312073
102,81269004,0.38755897,0.40306568,-0.50963783,0.65391546,9.01089096069336,-3.399479389190674,1.7233977317810059,-2.328232765197754,-0.2804206609725952, 0.7210167050361633
103,81285671,0.38757572,0.40300182,-0.50976735,0.653844,8.956624984741211,-3.4538066387176514,1.7201156616210938,-2.3042850494384766,-0.4005570411682129, 0.3130192458629608
104,81302338,0.38760513,0.40297708,-0.5098446,0.6537815,8.958950996398926,-3.4226343631744385,1.7547296285629272,-1.906314730644226,-0.40108203887939453, 0.005935742985457182
105,81319005,0.38761368,0.4029565,-0.5099505,0.6537066,8.960883140563965,-3.3196537494659424,1.739529013633728,-2.0820820331573486,-0.5871968269348145, 0.11965613812208176
106,81335672,0.3875851,0.40290725,-0.5101109,0.65362865,9.028936386108398,-3.3738820552825928,1.7275922298431396,-2.5788791179656982,-0.6501528024673462, 0.49235936999320984
107,81352339,0.38753664,0.40289778,-0.5102214,0.653577,8.972670555114746,-3.392472267150879,1.7213269472122192,-1.9099644422531128,-0.7748354077339172, 0.41216596961021423
108,81369006,0.3875281,0.40285915,-0.51036584,0.6534931,8.94460678100586,-3.456953525543213,1.718493103981018,-2.2132575511932373,-0.7506826519966125, 0.3706606328487396
109,81385673,0.38754824,0.40284258,-0.5104885,0.65339553,8.966787338256836,-3.4267706871032715,1.7087035179138184,-2.3448939323425293,-0.6762009263038635, 0.03875841945409775
110,81402340,0.38756573,0.4028068,-0.510607,0.6533148,8.983930587768555,-3.366000175476074,1.7322804927825928,-2.1353566646575928,-0.6170867681503296, 0.18117785453796387
111,81419007,0.3875565,0.4027461,-0.5107665,0.65323275,8.993790626525879,-3.3451061248779297,1.7058964967727661,-2.449047803878784,-0.6718851327896118, 0.48193496465682983
112,81435674,0.38752595,0.40269437,-0.51091707,0.6531652,8.97360610961914,-3.451767683029175,1.7253648042678833,-2.1824326515197754,-0.7668442726135254, 0.5830026865005493
113,81452341,0.38746864,0.40274957,-0.5109878,0.6531098,9.002568244934082,-3.408933401107788,1.734266996383667,-1.7072144746780396,-0.9949252605438232, 0.08983013778924942
114,81469008,0.38747802,0.40280697,-0.51111907,0.65296596,8.886444091796875,-3.4599971771240234,1.7817412614822388,-2.2873547077178955,-1.2568022012710571, -0.2517088055610657
115,81485675,0.38750455,0.40287444,-0.5113227,0.65274936,8.943639755249023,-3.40568208694458,1.7158993482589722,-2.807612657546997,-1.6829848289489746, -0.34694960713386536
116,81502342,0.38747558,0.40295815,-0.51148456,0.65258783,9.010443687438965,-3.398411512374878,1.6791863441467285,-2.2353100776672363,-1.6953045129776, -0.12276167422533035
117,81519009,0.3874294,0.40299028,-0.51158303,0.65251833,9.039284706115723,-3.3079237937927246,1.6366169452667236,-1.8884884119033813,-1.041297197341919, 0.18199746310710907
118,81535676,0.38746244,0.40290198,-0.5117544,0.6524188,9.002870559692383,-3.3463339805603027,1.6588281393051147,-2.7199535369873047,-0.5584208965301514, 0.4054938852787018
119,81552343,0.38753608,0.40273774,-0.51193076,0.6523382,8.969054222106934,-3.3905720710754395,1.6829270124435425,-2.947906017303467,-0.05876833572983742, 0.5685058236122131
120,81569010,0.38758326,0.40262663,-0.5120815,0.65226036,8.957196235656738,-3.4416708946228027,1.7409847974777222,-2.6647837162017822,-0.3006290793418884, 0.4306967258453369
121,81585677,0.38760048,0.40253714,-0.5122025,0.6522104,8.954178810119629,-3.3928678035736084,1.7147319316864014,-2.0952470302581787,-0.43536463379859924, 0.5127214193344116
122,81602344,0.38760146,0.40243462,-0.5123509,0.65215653,8.976717948913574,-3.3565990924835205,1.6933072805404663,-2.4252662658691406,-0.4505017399787903, 0.6664872765541077
123,81619011,0.3876166,0.40228358,-0.51254445,0.65208876,9.006295204162598,-3.4265918731689453,1.760115385055542,-2.8897533416748047,-0.33337491750717163, 0.8607853651046753
124,81635678,0.38773477,0.40197313,-0.51283467,0.6519818,8.984075546264648,-3.4231297969818115,1.7954676151275635,-4.007145404815674,0.3014422357082367, 1.1520782709121704
125,81652345,0.38794994,0.4015065,-0.5131361,0.65190405,8.96271800994873,-3.410254955291748,1.674518346786499,-4.592907905578613,1.3606425523757935, 1.3863450288772583
126,81669012,0.38815483,0.4010529,-0.5133963,0.65185636,8.951987266540527,-3.4002227783203125,1.6468697786331177,-4.338753700256348,1.4895004034042358, 1.3396530151367188
127,81685679,0.38829777,0.40068716,-0.51362306,0.6518176,8.97317886352539,-3.4111883640289307,1.6697455644607544,-3.876750946044922,1.0339910984039307, 1.2207974195480347
128,81702346,0.3883868,0.4003838,-0.5137949,0.65181565,8.980491638183594,-3.405085563659668,1.6703170537948608,-3.112762451171875,0.7772364616394043, 1.2037135362625122
129,81719013,0.38843185,0.40013868,-0.5139446,0.6518212,8.979150772094727,-3.4296791553497314,1.6628904342651367,-2.666269063949585,0.41635364294052124, 1.1657299995422363
130,81735680,0.38839796,0.4000498,-0.5139813,0.65186703,8.937378883361816,-3.469456911087036,1.7357969284057617,-1.736527919769287,-0.017800824716687202, 0.7090938687324524
131,81752347,0.38839862,0.39998323,-0.51410306,0.6518114,8.8980712890625,-3.440720796585083,1.7551454305648804,-2.2230031490325928,-0.6263073086738586, 0.4858280420303345
132,81769014,0.38837862,0.3999701,-0.51420134,0.65175384,8.969416618347168,-3.414257764816284,1.669424057006836,-1.9511241912841797,-0.8845474720001221, 0.3166946470737457
133,81785681,0.38836226,0.39992505,-0.51432633,0.65169257,8.994660377502441,-3.4021241664886475,1.68588387966156,-2.1781551837921143,-0.8167120814323425, 0.4805646538734436
134,81802348,0.38834915,0.39987832,-0.5144502,0.6516314,8.954216003417969,-3.4470338821411133,1.7123537063598633,-2.1923320293426514,-0.8000510931015015, 0.47482743859291077
135,81819015,0.38836056,0.3998056,-0.5145781,0.65156806,8.934401512145996,-3.4645378589630127,1.7467665672302246,-2.3481595516204834,-0.6263073682785034, 0.46581175923347473
136,81835682,0.38837624,0.39972228,-0.51472306,0.65149534,8.982050895690918,-3.4399495124816895,1.6772352457046509,-2.4722018241882324,-0.6578877568244934, 0.5109413266181946
137,81852349,0.38841036,0.39959255,-0.5148871,0.651425,8.95242977142334,-3.4117400646209717,1.7121539115905762,-2.5786099433898926,-0.4923657774925232, 0.6780129671096802
138,81869016,0.38841662,0.39944682,-0.5150307,0.6513972,9.005916595458984,-3.4228131771087646,1.6797101497650146,-2.274535894393921,-0.3688485026359558, 0.926174521446228
139,81885683,0.3883863,0.39937273,-0.51507753,0.6514236,8.943714141845703,-3.470855474472046,1.703024983406067,-1.5991289615631104,-0.3253965675830841, 0.6808688044548035
140,81902350,0.38837084,0.399308,-0.51510435,0.6514513,8.933979988098145,-3.4674715995788574,1.749449372291565,-1.497190237045288,-0.2754133343696594, 0.5346202254295349
141,81919017,0.38839906,0.39921877,-0.5152071,0.651408,8.940682411193848,-3.4543161392211914,1.7548531293869019,-2.2807726860046387,-0.4188060760498047, 0.4445532560348511
142,81935684,0.38844714,0.39906883,-0.5153758,0.6513377,8.968449592590332,-3.495518684387207,1.8623173236846924,-2.993920087814331,-0.29811906814575195, 0.6642846465110779
143,81952351,0.38852945,0.39886558,-0.5156082,0.65122914,8.921634674072266,-3.4742183685302734,1.835914134979248,-3.5097086429595947,-0.28852710127830505, 0.7963437438011169
144,81969018,0.38817692,0.39940095,-0.5153107,0.65134674,8.839585304260254,-3.418076276779175,1.7543678283691406,2.6843581199645996,-3.0618317127227783, -0.7458930015563965
145,81985685,0.38769937,0.40013388,-0.5149573,0.6514608,8.927685737609863,-3.399385452270508,1.6473851203918457,3.9110279083251953,-4.3106818199157715, -1.025801420211792
146,82002352,0.38717324,0.40068778,-0.5147798,0.6515734,8.968928337097168,-3.3433053493499756,1.6539227962493896,2.7530386447906494,-4.151140213012695, 0.307986319065094
147,82019019,0.38671905,0.4010159,-0.5147672,0.6516514,8.991386413574219,-3.480074405670166,1.6499605178833008,1.051971197128296,-3.410036563873291, 1.150618553161621
148,82035686,0.38621944,0.4012341,-0.51478153,0.6518019,8.82129192352295,-3.6072967052459717,1.6244971752166748,0.9721492528915405,-2.9350359439849854, 2.004533052444458
149,82052353,0.38591337,0.40132904,-0.51481366,0.6518994,9.167953491210938,-3.295989990234375,1.6089363098144531,-0.14067775011062622,-1.9027931690216064, 1.474529504776001
150,82069020,0.3858563,0.40098292,-0.51513785,0.65189004,9.043794631958008,-3.2145910263061523,1.643057942390442,-3.619279623031616,-0.1415998339653015, 2.4700441360473633
151,82085687,0.38586795,0.40044275,-0.5156047,0.65184635,8.95671558380127,-3.5673885345458984,1.6938282251358032,-5.1654534339904785,0.5256045460700989, 3.156310796737671
152,82102354,0.3857636,0.4000679,-0.515956,0.6518603,8.853472709655762,-3.6077208518981934,1.7722104787826538,-3.5914645195007324,-0.20701466500759125, 2.9356577396392822
153,82119021,0.38552946,0.40011767,-0.51610506,0.65185,8.886598587036133,-3.518338680267334,1.9811540842056274,-1.0681136846542358,-2.202333688735962, 1.4181944131851196
154,82135688,0.3852159,0.40037718,-0.51619333,0.6518063,8.82031536102295,-3.6213040351867676,1.7124383449554443,-0.3539291024208069,-3.2986085414886475, 0.7402390241622925
155,82152355,0.38480642,0.40058655,-0.5164021,0.6517542,8.907588005065918,-3.366431951522827,1.7392563819885254,-0.8598566651344299,-3.741835832595825, 1.6396288871765137
156,82169022,0.38449925,0.40062436,-0.51686025,0.651549,9.038467407226562,-3.3883485794067383,1.5413259267807007,-3.2421329021453857,-3.7099742889404297, 2.083279609680176
157,82185689,0.38419756,0.40056434,-0.5172792,0.6514314,9.046452522277832,-3.5364625453948975,1.5153675079345703,-3.043031692504883,-2.9003052711486816, 2.538621664047241
158,82202356,0.3839762,0.4003948,-0.51761496,0.6513993,8.979121208190918,-3.4568557739257812,1.539898157119751,-2.883157253265381,-1.6637239456176758, 2.5662834644317627
159,82219023,0.3838155,0.40011147,-0.51800334,0.65135944,8.940780639648438,-3.490758180618286,1.6805187463760376,-3.647338628768921,-1.0852487087249756, 2.823870897293091
160,82235690,0.3836613,0.39976212,-0.51852083,0.6512531,8.861013412475586,-3.5562856197357178,1.698842167854309,-4.541695594787598,-1.3451277017593384, 3.230081796646118
161,82252357,0.38329118,0.39958102,-0.519004,0.6511972,8.814077377319336,-3.5612874031066895,1.6376240253448486,-3.2885169982910156,-2.6031339168548584, 3.616225004196167
162,82269024,0.38274387,0.3996621,-0.51935846,0.65118676,8.999899864196777,-3.515803813934326,1.5876696109771729,-1.335984230041504,-3.967689275741577, 3.2438552379608154
163,82285691,0.38203,0.39985687,-0.5196717,0.6512366,8.85396957397461,-3.6099443435668945,1.6385233402252197,-0.10608780384063721,-4.830695629119873, 3.646127462387085
164,82302358,0.3812629,0.40015602,-0.5200072,0.6512344,8.887534141540527,-3.477760076522827,1.6568909883499146,-0.036011453717947006,-5.673047065734863, 3.424654722213745
165,82319025,0.38083225,0.40015692,-0.52056307,0.65104187,9.07734489440918,-3.522526741027832,1.7418714761734009,-3.2984166145324707,-4.291344165802002, 3.1159839630126953
166,82335692,0.3808009,0.39963424,-0.52134115,0.6507587,9.059919357299805,-3.4860966205596924,1.8347210884094238,-7.220553398132324,-1.3106276988983154, 3.5641419887542725
167,82352359,0.38121775,0.39814624,-0.52247703,0.6505156,9.045373916625977,-3.4009788036346436,1.7845919132232666,-12.426573753356934,3.7625274658203125, 6.117911338806152
168,82369026,0.38121685,0.3970181,-0.523508,0.65037656,8.940502166748047,-3.664916515350342,1.4994395971298218,-9.553552627563477,1.2171992063522339, 6.684590816497803
169,82385693,0.38075283,0.3966756,-0.52424604,0.65026313,8.64450454711914,-3.7626802921295166,1.6351522207260132,-4.819401264190674,-3.1281819343566895, 5.19494104385376
170,82402360,0.38020176,0.3968123,-0.52511936,0.64979726,8.624972343444824,-4.051690578460693,1.5470476150512695,-5.239220142364502,-6.896388053894043, 3.2866032123565674
171,82419027,0.37896407,0.39815855,-0.52517974,0.64964783,8.55455493927002,-4.080320835113525,1.5366792678833008,4.7015910148620605,-11.850963592529297, 0.5909301042556763
172,82435694,0.3769889,0.40069264,-0.5243887,0.64987814,8.454766273498535,-4.271419048309326,1.485396146774292,14.918647766113281,-16.540477752685547, -1.7804187536239624
173,82452361,0.3746227,0.40389043,-0.52325964,0.6501769,8.446276664733887,-3.8661863803863525,1.626875400543213,19.498075485229492,-19.86833953857422, -3.2122769355773926
174,82469028,0.3718738,0.40759715,-0.5221544,0.6503301,8.918923377990723,-3.252652168273926,1.5045732259750366,21.234647750854492,-24.00096321105957, -3.653087854385376
175,82485695,0.36898544,0.41126615,-0.5212114,0.65042186,9.109140396118164,-3.334712266921997,1.299639344215393,20.467214584350586,-24.88394546508789, -2.5801947116851807
176,82502362,0.36612347,0.4147259,-0.52026695,0.6505984,9.084051132202148,-3.5132782459259033,1.109920620918274,20.124113082885742,-23.588748931884766, -1.7133032083511353
177,82519029,0.36352807,0.41781142,-0.5191055,0.65100724,9.092199325561523,-3.403855085372925,1.3721210956573486,20.25664520263672,-19.754600524902344, -1.5801925659179688
178,82535696,0.36163482,0.4201316,-0.5183508,0.6511697,9.427270889282227,-2.940190553665161,1.422363042831421,14.107748031616211,-15.747583389282227, -1.359268069267273
179,82552363,0.36105147,0.42085373,-0.5188633,0.6506189,9.415088653564453,-3.120980739593506,1.2469218969345093,-1.9859963655471802,-9.0964937210083, 0.39222660660743713
180,82569030,0.36199677,0.41971758,-0.5205584,0.64947253,9.42298412322998,-3.3208940029144287,1.6286195516586304,-18.43720817565918,0.00954714510589838, 2.159761428833008
181,82585697,0.36416045,0.4171267,-0.5227094,0.64820325,9.222066879272461,-3.292583465576172,0.9882054328918457,-28.401987075805664,9.49259090423584, 2.9131147861480713
182,82602364,0.36668497,0.41445184,-0.52493846,0.64669293,9.167685508728027,-3.1587069034576416,0.9729496240615845,-30.75361442565918,10.245457649230957, 1.2518061399459839
183,82619031,0.3692116,0.4116238,-0.52740854,0.6450494,8.97721004486084,-3.858048439025879,1.3158663511276245,-32.758880615234375,9.982828140258789, 2.1589736938476562
184,82635698,0.37140334,0.40886956,-0.5296411,0.64371246,8.714295387268066,-4.088338375091553,1.1039952039718628,-29.519237518310547,9.928112030029297, 3.454671859741211
185,82652365,0.37334007,0.40646026,-0.5314989,0.6425856,8.769686698913574,-3.8818163871765137,1.1443508863449097,-25.61492156982422,9.071664810180664, 2.7594363689422607
186,82669032,0.3750551,0.40446422,-0.5333753,0.64129037,8.47042465209961,-4.091979503631592,1.289649486541748,-24.511856079101562,5.869732856750488, 1.8402702808380127
187,82685699,0.37574783,0.40403366,-0.53423643,0.6404388,8.450693130493164,-3.9556283950805664,1.2834014892578125,-11.50880241394043,-0.9478238821029663, -1.1067380905151367
188,82702366,0.37588808,0.40429193,-0.5347317,0.63978,8.700135231018066,-3.7333552837371826,1.1968656778335571,-5.792440414428711,-4.573544979095459, -1.738500714302063
189,82719033,0.37581807,0.40475783,-0.5351633,0.63916546,8.98025131225586,-3.4724948406219482,1.1894994974136353,-4.275221347808838,-5.957757949829102, -1.6524676084518433
190,82735700,0.3756465,0.40512437,-0.5357265,0.6385619,8.98797607421875,-3.4514594078063965,1.2008334398269653,-4.8887224197387695,-6.165310859680176, -0.4449823796749115
191,82752367,0.3753801,0.40543053,-0.5363499,0.63800055,9.008898735046387,-3.5370399951934814,1.1058964729309082,-4.837496757507324,-6.313492774963379, 0.4897853434085846
192,82769034,0.37510508,0.4057827,-0.5369433,0.63743913,8.921479225158691,-3.8009939193725586,1.2163194417953491,-4.595303535461426,-6.4565653800964355, 0.2799660563468933
193,82785701,0.37519017,0.40602857,-0.5377997,0.63650966,8.880931854248047,-3.72469425201416,1.349825143814087,-8.319520950317383,-6.4013848304748535, -1.1210428476333618
194,82802368,0.37538242,0.40621287,-0.5388896,0.63535607,8.866230010986328,-3.695664882659912,1.2871025800704956,-10.701760292053223,-6.9499969482421875, -1.2992817163467407
195,82819035,0.37536463,0.40663108,-0.5400516,0.6341111,8.74343490600586,-3.832608699798584,1.1765810251235962,-10.240425109863281,-9.175986289978027, -1.2924562692642212
196,82835702,0.37521952,0.4073399,-0.54108083,0.6328634,8.79903793334961,-3.7136576175689697,1.0923491716384888,-8.456191062927246,-10.636063575744629, -2.193920850753784
197,82852369,0.37495846,0.408147,-0.54215276,0.63157946,8.861222267150879,-3.7883121967315674,1.0512076616287231,-8.319625854492188,-11.663212776184082, -2.043830633163452
198,82869036,0.37442812,0.40911126,-0.54314244,0.6304189,8.7537841796875,-3.6762609481811523,1.0050032138824463,-6.289638042449951,-12.818497657775879, -1.3740451335906982
199,82885703,0.37381142,0.4101785,-0.5440827,0.6292797,8.990525245666504,-3.3759946823120117,0.9355241060256958,-5.603998184204102,-13.358813285827637, -1.479621171951294
200,82902370,0.37308887,0.41143894,-0.54507923,0.6280218,9.090007781982422,-3.3553481101989746,0.9155709147453308,-5.432394504547119,-15.099403381347656, -1.8671419620513916
201,82919037,0.37222245,0.4129671,-0.5461849,0.6265707,8.84165096282959,-3.672414779663086,0.9587000608444214,-5.560946464538574,-17.613759994506836, -2.4161643981933594
202,82935704,0.3709608,0.4151825,-0.54714346,0.6250165,8.645051002502441,-4.073249340057373,0.9312282800674438,-2.454955816268921,-21.976093292236328, -3.975687026977539
203,82952371,0.36948404,0.41806307,-0.54784685,0.6233529,8.762776374816895,-3.775789260864258,0.8622646927833557,0.529166042804718,-25.312490463256836, -6.5819292068481445
204,82969038,0.36805102,0.42104387,-0.5486542,0.62148136,9.212868690490723,-3.3104610443115234,0.7034369111061096,-0.5916164517402649,-26.442079544067383, -7.380419731140137
205,82985705,0.36674255,0.4238236,-0.54978293,0.61936426,9.117332458496094,-3.5306625366210938,0.6868880391120911,-3.7926998138427734,-26.629619598388672, -6.818976402282715
206,83002372,0.36548042,0.42659014,-0.55093396,0.6171845,8.938281059265137,-3.6685032844543457,0.8331910371780396,-4.317455291748047,-26.635604858398438, -7.047572612762451
207,83019039,0.3639885,0.42964476,-0.5519737,0.6150146,8.770429611206055,-3.7092063426971436,0.8051738739013672,-2.392425298690796,-28.447649002075195, -7.4615020751953125
208,83035706,0.36250168,0.43272012,-0.5530811,0.61273766,8.98376750946045,-3.5539183616638184,0.6575285792350769,-3.0335774421691895,-29.030521392822266, -7.632774829864502
209,83052373,0.36111805,0.43563512,-0.5544742,0.61022484,9.04955768585205,-3.477764844894409,0.6462119221687317,-5.894115924835205,-29.373537063598633, -7.189367771148682
210,83069040,0.35951787,0.43887168,-0.55587137,0.6075735,8.77585220336914,-3.66656231880188,0.6353771090507507,-3.9959557056427,-32.37876892089844, -7.82165002822876
211,83085707,0.3578584,0.4422288,-0.5576021,0.6045256,8.840302467346191,-3.465111494064331,0.5013605952262878,-6.433017730712891,-35.15118408203125, -8.020565032958984
212,83102374,0.35611057,0.44557196,-0.5596741,0.60117865,9.0200834274292,-3.300783634185791,0.38728925585746765,-8.767427444458008,-37.19896697998047, -7.301117897033691
213,83119041,0.35413224,0.44909537,-0.5618825,0.5976553,8.960890769958496,-3.5255954265594482,0.21284258365631104,-8.865530967712402,-39.72229766845703, -7.048325061798096
214,83135708,0.35185456,0.4529534,-0.5640466,0.59403986,8.826339721679688,-3.618602752685547,0.02637629210948944,-7.30388069152832,-42.44412612915039, -7.476805686950684
215,83152375,0.34957707,0.4568706,-0.5663738,0.59015757,9.13574504852295,-3.3742423057556152,-0.07448390126228333,-8.862276077270508,-43.91983413696289, -7.857277870178223
216,83169042,0.34734052,0.4613288,-0.5684464,0.5860027,9.53540325164795,-4.076064586639404,-0.17358949780464172,-7.719961643218994,-46.21107482910156, -11.581953048706055
217,83185709,0.34536728,0.46571052,-0.5705495,0.5816428,9.388631820678711,-2.415210485458374,-0.3808206021785736,-9.664556503295898,-45.6106071472168, -12.760799407958984
218,83202376,0.34345227,0.46997496,-0.57321566,0.5767043,9.65561294555664,-3.4251174926757812,-0.37691277265548706,-14.645964622497559,-48.11188888549805, -12.055817604064941
219,83219043,0.34122053,0.47456238,-0.5756068,0.57187086,9.664055824279785,-3.785550594329834,-0.16095834970474243,-11.356782913208008,-49.66899108886719, -12.709428787231445
220,83235710,0.33923265,0.47926635,-0.57814306,0.56654733,9.552506446838379,-4.126794338226318,-0.09829141199588776,-14.39748764038086,-51.135929107666016, -14.820921897888184
221,83252377,0.3370514,0.48439297,-0.58043885,0.5611156,10.295056343078613,-3.9388859272003174,0.32609525322914124,-12.28095817565918,-53.38825225830078, -16.82508659362793
222,83269044,0.33530346,0.48895526,-0.5836391,0.55485123,10.739564895629883,-2.889404058456421,-0.2018185257911682,-21.866559982299805,-54.4250373840332, -15.178089141845703
223,83285711,0.3336299,0.49335802,-0.5873031,0.5480548,10.754215240478516,-2.4563093185424805,-0.4001281261444092,-26.397790908813477,-56.43436813354492, -14.45343017578125
224,83302378,0.3318053,0.49786687,-0.59120476,0.54084283,10.743945121765137,-2.2077019214630127,-0.48285362124443054,-28.218984603881836,-59.45644760131836, -14.409754753112793
225,83319045,0.32991046,0.5025654,-0.59531564,0.53309155,10.45042610168457,-1.7952651977539062,-0.4685487449169159,-30.518211364746094,-62.833683013916016, -15.376157760620117
226,83335712,0.32786977,0.5074929,-0.5998628,0.52451605,10.295827865600586,-1.9538846015930176,-0.5942268967628479,-34.466773986816406,-68.17842102050781, -16.07382583618164
227,83352379,0.32546556,0.5125418,-0.60460925,0.51557815,10.474364280700684,-2.3105876445770264,-0.83016437292099,-35.13652801513672,-71.90145111083984, -15.332748413085938
228,83369046,0.32277104,0.51761186,-0.6093269,0.5065744,10.323295593261719,-2.277904510498047,-1.2150019407272339,-34.238975524902344,-73.42424774169922, -14.60578727722168
229,83385713,0.31979334,0.5226758,-0.6137242,0.4978805,9.872313499450684,-2.6233208179473877,-1.8215709924697876,-30.82775115966797,-72.83991241455078, -14.015114784240723
230,83402380,0.31660765,0.52770686,-0.61759204,0.48976043,9.448387145996094,-2.649174928665161,-2.0344698429107666,-25.915576934814453,-70.42034912109375, -13.797307968139648
231,83419047,0.3134409,0.53276044,-0.62096083,0.48200512,9.270794868469238,-2.637070417404175,-2.3831241130828857,-22.702720642089844,-68.040771484375, -14.973084449768066
232,83435714,0.31035408,0.53777164,-0.62407887,0.47434977,9.118329048156738,-2.5716476440429688,-2.3823158740997314,-21.824953079223633,-66.67791748046875, -15.763725280761719
233,83452381,0.30731362,0.54290783,-0.6270584,0.4664838,9.167811393737793,-2.6836724281311035,-2.159451961517334,-22.178363800048828,-67.4019775390625, -17.416898727416992
234,83469048,0.30383423,0.5483373,-0.63004935,0.45831087,9.311897277832031,-3.065394401550293,-1.7613104581832886,-21.28423309326172,-71.45470428466797, -17.89016342163086
235,83485715,0.300018,0.5539013,-0.63325924,0.44962794,9.698978424072266,-2.85762357711792,-1.623339295387268,-22.65032386779785,-75.79483795166016, -17.67807960510254
236,83502382,0.2959001,0.55962235,-0.63693213,0.43998143,10.061752319335938,-2.8306822776794434,-1.5718393325805664,-26.82280158996582,-82.31720733642578, -17.670122146606445
237,83519049,0.29155165,0.565513,-0.64101565,0.42929238,10.622262954711914,-2.802776336669922,-1.235903263092041,-31.41884994506836,-88.80164337158203, -18.272502899169922
238,83535716,0.28696775,0.5714087,-0.6455779,0.41757736,10.78537654876709,-2.6033284664154053,-1.4752445220947266,-36.45573806762695,-94.953369140625, -17.808399200439453
239,83552383,0.28230324,0.57718784,-0.650764,0.40455583,10.785951614379883,-2.560781478881836,-2.646186113357544,-43.98285675048828,-101.49470520019531, -17.196882247924805
240,83569050,0.27773312,0.5836282,-0.65548456,0.39061818,10.986032485961914,-2.177105188369751,-1.9766868352890015,-45.890380859375,-105.76481628417969, -24.059659957885742
241,83585717,0.27435282,0.59017485,-0.6601395,0.3750203,10.010695457458496,-2.0942962169647217,-2.5637025833129883,-57.77748107910156,-107.39000701904297, -31.176925659179688
242,83602384,0.27132732,0.5964198,-0.6645961,0.35913387,9.476302146911621,-3.2875590324401855,-3.4046263694763184,-60.586307525634766,-105.92957305908203, -32.09925079345703
243,83619051,0.26805165,0.60230297,-0.668628,0.34397128,8.44132137298584,-2.890019416809082,-5.059578895568848,-55.90959167480469,-102.5168685913086, -30.299903869628906
244,83635718,0.2652221,0.6075209,-0.67185426,0.33043566,8.20045280456543,-3.2644078731536865,-3.732517957687378,-49.615604400634766,-90.69236755371094, -28.70829963684082
245,83652385,0.26344022,0.610862,-0.6744973,0.32015672,6.35556697845459,-3.7768516540527344,-2.493898391723633,-41.093116760253906,-66.99224090576172, -19.002756118774414
246,83669052,0.26231074,0.61347693,-0.6750237,0.3149325,7.610124588012695,-2.9116389751434326,-1.0642486810684204,-17.123872756958008,-37.37128448486328, -16.9126033782959
247,83685719,0.26003346,0.6163064,-0.67271394,0.31623587,7.457526683807373,-2.093269109725952,2.4094431400299072,24.477123260498047,-10.669224739074707, -15.661105155944824
248,83702386,0.25879714,0.6182544,-0.66894794,0.3213945,7.532265663146973,-0.38535353541374207,2.626652240753174,39.432228088378906,14.739562034606934, -13.125956535339355
249,83719053,0.2603411,0.61872125,-0.6643734,0.32865614,7.7047319412231445,0.5534301996231079,1.1578766107559204,36.42461395263672,40.91436004638672, -12.089558601379395
250,83735720,0.2653884,0.61702293,-0.65970594,0.33710507,7.987934589385986,-0.08334177732467651,-0.3885048031806946,23.297813415527344,66.81472778320312, -8.304080963134766
251,83752387,0.27177566,0.613495,-0.6544137,0.34857515,7.804792404174805,-1.2269643545150757,-0.7761958837509155,29.42852210998535,90.93032836914062, -0.1944066435098648
252,83769054,0.27892587,0.6086068,-0.64774716,0.36362368,7.781848907470703,-0.8659383654594421,-0.2907755672931671,43.03306198120117,115.15628051757812, 5.0090155601501465
253,83785721,0.2874227,0.6024698,-0.6397999,0.38088667,8.514874458312988,-0.7063115239143372,-0.3293526768684387,48.038238525390625,135.86703491210938, 6.1342620849609375
254,83802388,0.29763514,0.59479433,-0.63082325,0.39961898,9.004758834838867,-1.102877140045166,-0.9862176179885864,47.02335739135742,155.43075561523438, 7.10090446472168
255,83819055,0.3089286,0.58561504,-0.6205304,0.42019084,9.391136169433594,-1.103745698928833,-1.4823154211044312,51.087745666503906,174.3668670654297, 9.075095176696777
256,83835722,0.32115254,0.5750466,-0.608828,0.4421664,9.922989845275879,-0.8039499521255493,-1.7764921188354492,54.4199333190918,190.92617797851562, 9.664165496826172
257,83852389,0.33396763,0.5632169,-0.5956928,0.4651908,10.091205596923828,-0.920682430267334,-1.7970342636108398,58.016902923583984,204.50189208984375, 9.859845161437988
258,83869056,0.34743276,0.5500086,-0.58094966,0.48916107,10.563178062438965,-1.1185362339019775,-1.5131827592849731,61.32585906982422,218.90948486328125, 9.430697441101074
259,83885723,0.3615696,0.53540504,-0.5641879,0.5141021,11.010899543762207,-1.0446839332580566,-1.5043952465057373,66.08480834960938,234.7747802734375, 7.487389087677002
260,83902390,0.37607718,0.52028704,-0.5447342,0.5395666,11.318181991577148,-1.1670503616333008,-1.4571198225021362,74.96502685546875,246.67160034179688, -0.37042078375816345
261,83919057,0.39119616,0.5041773,-0.5230498,0.56496894,11.845952033996582,-2.224809169769287,-1.6567902565002441,78.23492431640625,258.2388916015625, -6.998815536499023
262,83935724,0.40733254,0.48590374,-0.49976888,0.59009254,12.749224662780762,-2.6873435974121094,-1.9823176860809326,74.07333374023438,273.72393798828125, -9.43206787109375
263,83952391,0.42351905,0.4659204,-0.47545958,0.6144006,13.132011413574219,-3.2703664302825928,-2.7554821968078613,70.48171997070312,281.12725830078125, -9.479521751403809
264,83969058,0.43856478,0.44539693,-0.44945768,0.63817763,14.38961410522461,-3.5191445350646973,-3.1910147666931152,77.99471282958984,283.1152038574219, -9.885629653930664
265,83985725,0.45246723,0.42421377,-0.42396984,0.6599743,15.655832290649414,-3.6160945892333984,-3.5865795612335205,71.15886688232422,275.12481689453125, -7.2515997886657715
266,84002392,0.46465364,0.40256053,-0.40096262,0.6791694,15.147716522216797,-3.872112512588501,-4.257094383239746,55.90205383300781,257.2738342285156, 1.0206656455993652
267,84019059,0.475773,0.38122,-0.38071784,0.69524485,13.662087440490723,-3.0666251182556152,-5.290953636169434,38.41136932373047,235.79168701171875, 2.767554759979248
268,84035726,0.48610952,0.36176747,-0.36406627,0.70730305,10.226702690124512,-2.029630661010742,-5.718020915985107,19.017555236816406,202.8546600341797, -2.195034980773926
269,84052393,0.49463445,0.3455355,-0.354518,0.7143243,7.692854881286621,-2.454216241836548,-6.8230156898498535,-12.796314239501953,146.7787322998047, -0.6408275365829468
270,84069060,0.5000429,0.3342868,-0.35252842,0.71689135,6.072775840759277,-3.2131097316741943,-7.5360894203186035,-36.330657958984375,78.81156921386719, 5.272866249084473
271,84085727,0.5013925,0.3314087,-0.35454887,0.71628845,5.1052632331848145,-3.3661274909973145,-7.178312301635742,-25.548681259155273,7.029698848724365, 3.2349624633789062
272,84102394,0.49960002,0.33472222,-0.3582757,0.71414256,6.7002739906311035,-3.0543525218963623,-6.0613555908203125,-9.083649635314941,-40.16975784301758, 2.114565372467041
273,84119061,0.49799106,0.3389666,-0.36584437,0.7094114,10.733230590820312,-3.2628135681152344,2.9137895107269287,-31.429126739501953,-63.09442138671875, -1.1664355993270874
274,84135728,0.49644727,0.33804423,-0.37384525,0.70675755,9.525374412536621,-3.5174436569213867,17.368309020996094,-46.108154296875,-34.24711990356445, 19.6002254486084
275,84152395,0.49670604,0.33647436,-0.3840459,0.7018384,7.337226867675781,-1.2349985837936401,-2.9268593788146973,-69.08548736572266,-39.62205505371094, 9.82861614227295
276,84169062,0.4929368,0.33939132,-0.39161897,0.6989002,12.529276847839355,-4.6470866203308105,2.0745205879211426,-26.485530853271484,-58.113338470458984, 18.120080947875977
277,84185729,0.4890688,0.34428287,-0.40031347,0.6942839,11.096081733703613,-0.6069860458374023,2.0878965854644775,-29.40436363220215,-75.42280578613281, 10.15744686126709
278,84202396,0.4867098,0.3465247,-0.41398084,0.6867709,12.033348083496094,-3.187727451324463,-1.184287428855896,-73.60186767578125,-82.07711029052734, 12.350244522094727
279,84219063,0.48070467,0.35137203,-0.4257382,0.6813281,13.324764251708984,-7.36135196685791,-1.9367371797561646,-41.217742919921875,-93.19937133789062, 24.529071807861328
280,84235730,0.47089148,0.36094734,-0.43076456,0.68001485,11.758904457092285,-4.138974189758301,-0.7963452935218811,27.354717254638672,-94.00821685791016, 25.78934097290039
281,84252397,0.46303025,0.3686057,-0.43513572,0.6785203,11.003971099853516,-0.8602941632270813,-0.010084055364131927,18.895315170288086,-77.40631103515625, 20.089075088500977
282,84269064,0.45702392,0.37405527,-0.43882164,0.6772353,11.7294282913208,-0.6537164449691772,0.4621381163597107,11.000809669494629,-58.70201873779297, 17.039419174194336
283,84285731,0.4542256,0.37601984,-0.44350663,0.67497426,10.908160209655762,0.09222572296857834,1.0327863693237305,-15.788026809692383,-38.322715759277344, 12.20300006866455
284,84302398,0.45321578,0.37548864,-0.4486051,0.67257524,10.220489501953125,-0.6858068704605103,1.8520700931549072,-30.54988670349121,-22.849868774414062, 12.259478569030762
285,84319065,0.45400894,0.37255386,-0.45537773,0.6691119,9.686822891235352,-1.844619870185852,2.1357345581054688,-53.72341537475586,-14.096891403198242, 12.424318313598633
286,84335732,0.45427597,0.3697325,-0.46171466,0.66614646,9.364721298217773,-3.991215944290161,2.5391976833343506,-48.454315185546875,-13.608633041381836, 14.971853256225586
287,84352399,0.4527668,0.3681259,-0.46647644,0.6647446,8.621628761291504,-4.311675071716309,2.6907920837402344,-27.946863174438477,-15.912546157836914, 20.099262237548828
288,84369066,0.4504152,0.36772087,-0.46954784,0.6644038,8.056791305541992,-3.7601256370544434,3.1084253787994385,-10.926610946655273,-16.170133590698242, 19.068132400512695
289,84385733,0.4483186,0.3680384,-0.4723042,0.6636919,8.146099090576172,-3.831099510192871,3.0993053913116455,-9.08731460571289,-18.641704559326172, 13.583653450012207
290,84402400,0.4462518,0.36903927,-0.47542602,0.6622986,8.23692512512207,-3.887791395187378,3.2603321075439453,-10.932401657104492,-24.544925689697266, 10.013959884643555
291,84419067,0.4441856,0.37043995,-0.4789249,0.66038203,8.044486045837402,-3.778240919113159,2.9090023040771484,-13.134805679321289,-28.883975982666016, 8.015735626220703
292,84435734,0.44230714,0.37225643,-0.48232794,0.65814084,8.868202209472656,-2.731196641921997,2.7979896068573,-12.976895332336426,-30.716184616088867, 4.522242069244385
293,84452401,0.44106477,0.3735772,-0.4868553,0.6548847,9.017433166503906,-2.8660645484924316,2.6751492023468018,-24.573442459106445,-32.40042495727539, 3.0874946117401123
294,84469068,0.4395787,0.3749347,-0.4917092,0.6514729,8.822924613952637,-3.858642578125,2.5640921592712402,-25.834535598754883,-34.78845977783203, 4.435616970062256
295,84485735,0.43731174,0.37738433,-0.49501893,0.6490731,8.51759147644043,-3.829533815383911,2.2684473991394043,-10.183235168457031,-35.06268310546875, 3.2917532920837402
296,84502402,0.4359064,0.37955287,-0.4981879,0.64632356,8.959136009216309,-3.2444465160369873,1.9007060527801514,-13.826854705810547,-31.374177932739258, -1.044708013534546
297,84519069,0.43563083,0.3807441,-0.50211436,0.6427605,9.179752349853516,-3.292282819747925,1.6501187086105347,-25.858036041259766,-27.556663513183594, -3.1830475330352783
298,84535736,0.43541038,0.3816862,-0.50596666,0.63932097,9.098374366760254,-3.1808457374572754,1.5048829317092896,-25.99370765686035,-25.714258193969727, -2.39294171333313
299,84552403,0.4348577,0.3828822,-0.50934297,0.6362937,9.301204681396484,-2.696045160293579,1.6029819250106812,-20.83539390563965,-25.473255157470703, -1.8311357498168945
300,84569070,0.4343238,0.38419107,-0.5127467,0.63312787,9.357882499694824,-2.8527634143829346,1.689933180809021,-21.155866622924805,-26.34749412536621, -2.6337645053863525
301,84585737,0.43389443,0.38552454,-0.5162454,0.62975967,9.032296180725098,-3.442338705062866,1.5822454690933228,-22.490827560424805,-26.90874671936035, -3.5160882472991943
302,84602404,0.4334769,0.3869808,-0.51952654,0.62644714,9.035923957824707,-3.4113433361053467,1.1438039541244507,-21.018238067626953,-26.606733322143555, -4.423599720001221
303,84619071,0.43326667,0.3884135,-0.5224519,0.6232648,9.232970237731934,-3.1214840412139893,0.9114410877227783,-19.64292335510254,-24.35292625427246, -5.8000688552856445
304,84635738,0.4334439,0.3895718,-0.5253157,0.620003,9.351288795471191,-2.7838189601898193,0.87603759765625,-21.515907287597656,-21.802745819091797, -6.873422145843506
305,84652405,0.43368602,0.39052427,-0.52815264,0.6168161,9.280614852905273,-2.9964919090270996,1.0616086721420288,-21.917932510375977,-20.40020751953125, -6.241873264312744
306,84669072,0.4337243,0.3914791,-0.5308766,0.6138384,9.098993301391602,-2.898172378540039,1.0334256887435913,-20.127031326293945,-20.25075340270996, -5.060149192810059
307,84685739,0.433293,0.3925751,-0.5334034,0.61124706,8.872036933898926,-3.294614315032959,0.9857630133628845,-16.20294189453125,-20.933874130249023, -2.965407371520996
308,84702406,0.43235227,0.39389256,-0.5357358,0.60902166,8.743840217590332,-3.547820806503296,0.9149089455604553,-12.010306358337402,-22.168798446655273, -1.0818442106246948
309,84719073,0.43116444,0.39538872,-0.53774154,0.60712355,8.740930557250977,-3.4513211250305176,0.42862436175346375,-8.238469123840332,-21.97330665588379, -0.6362463235855103
310,84735740,0.43013883,0.39668873,-0.5394981,0.60544246,9.16574478149414,-2.6253662109375,-0.09051293879747391,-7.415643215179443,-19.216032028198242, -0.6397293210029602
311,84752407,0.42957392,0.3974477,-0.54124695,0.6037826,9.592284202575684,-2.4242563247680664,-0.21298183500766754,-10.155869483947754,-15.149020195007324, -0.4963362514972687
312,84769074,0.42952532,0.3975129,-0.5428458,0.60233724,9.700760841369629,-2.458667039871216,0.28301119804382324,-12.18742847442627,-9.290899276733398, 0.18869531154632568
313,84785741,0.42982423,0.39705727,-0.54443717,0.6009866,9.844173431396484,-2.8364548683166504,1.1945892572402954,-14.288135528564453,-5.544527053833008, 0.9773622751235962
314,84802408,0.42990047,0.39669096,-0.5461066,0.5996578,9.309151649475098,-3.088599681854248,1.281369924545288,-13.662543296813965,-6.935272216796875, 1.855494499206543
315,84819075,0.4290304,0.3971713,-0.54768014,0.59852695,8.567726135253906,-4.044513702392578,1.8609955310821533,-7.447449684143066,-13.17747688293457, 2.9021456241607666
316,84835742,0.42677912,0.39890397,-0.549232,0.5975612,8.092097282409668,-3.5048766136169434,2.2745237350463867,0.7158955335617065,-23.059452056884766, 4.261250019073486
317,84852409,0.42317426,0.40168583,-0.55162853,0.596052,7.831099510192871,-4.052950859069824,2.0935349464416504,1.9675962924957275,-36.5070686340332, 6.557183265686035
318,84869076,0.4184408,0.40556496,-0.5544756,0.59412223,8.245091438293457,-4.035227298736572,1.4671434164047241,4.81783390045166,-47.8099479675293, 6.99683952331543
319,84885743,0.41312385,0.40982398,-0.5576863,0.5919114,8.496042251586914,-4.369915008544922,0.5376353859901428,4.9681010246276855,-53.45186996459961, 8.097813606262207
320,84902410,0.4072837,0.41505298,-0.5601586,0.58997756,8.867196083068848,-3.67278790473938,-0.1566769778728485,13.257770538330078,-56.53749084472656, 5.167788028717041
321,84919077,0.40293106,0.42006332,-0.56296563,0.5867393,10.171358108520508,-2.1264407634735107,-0.045309193432331085,2.01692533493042,-54.57460021972656, -2.7429823875427246
322,84935744,0.39922458,0.42478114,-0.56620836,0.58274245,10.170900344848633,-2.5210041999816895,0.1904529482126236,-5.354506969451904,-54.29108810424805, -5.022523880004883
323,84952411,0.395388,0.43001935,-0.5697532,0.57804245,9.08881664276123,-3.384002685546875,0.5042588114738464,-7.499162673950195,-59.77619934082031, -7.54900598526001
324,84969078,0.3907841,0.43650123,-0.5731637,0.57292056,8.329338073730469,-4.069549083709717,0.3860047161579132,-2.980395555496216,-68.63074493408203, -10.925168991088867
325,84985745,0.38505465,0.44472367,-0.5762264,0.5673773,8.374337196350098,-4.709765911102295,0.2896817922592163,4.7653489112854,-80.27783203125, -15.563987731933594
326,85002412,0.3789217,0.45392996,-0.5792976,0.56105304,9.11512279510498,-3.9598615169525146,-0.07222855091094971,5.452274799346924,-88.1519546508789, -19.985448837280273
327,85019079,0.37297848,0.46309146,-0.58319545,0.5534587,9.866655349731445,-4.1148176193237305,0.19162467122077942,-3.5244085788726807,-93.36400604248047, -21.295368194580078
328,85035746,0.3671445,0.47265932,-0.5870607,0.5451221,11.483936309814453,-3.5861222743988037,0.3708050847053528,-5.710451602935791,-96.79191589355469, -25.372276306152344
329,85052413,0.36213452,0.4809791,-0.59212375,0.5356373,13.138856887817383,-2.3087759017944336,0.7860634326934814,-20.688304901123047,-95.59980773925781, -22.424407958984375
330,85069080,0.35731873,0.48896804,-0.59808683,0.5249055,12.840156555175781,-2.333094596862793,0.800624430179596,-30.565288543701172,-100.04161071777344, -21.869169235229492
331,85085747,0.35189566,0.49732664,-0.6042836,0.5134949,12.768084526062012,-2.9412736892700195,1.1647578477859497,-31.269561767578125,-106.82349395751953, -22.034448623657227
332,85102414,0.34590024,0.5063368,-0.6105199,0.5012402,12.383885383605957,-3.4919300079345703,1.4904389381408691,-31.41008758544922,-114.59837341308594, -24.60276222229004
333,85119081,0.33975708,0.51584226,-0.6168606,0.4878062,12.43880558013916,-3.7582626342773438,1.6474820375442505,-35.06456756591797,-121.41040802001953, -28.608781814575195
334,85135748,0.3338789,0.5251958,-0.623511,0.47321075,12.425413131713867,-3.266261577606201,1.4523956775665283,-42.3651237487793,-124.76530456542969, -30.47210121154785
335,85152415,0.32878152,0.5335178,-0.6310769,0.45716897,12.612981796264648,-2.991579294204712,0.822655439376831,-56.767677307128906,-125.53642272949219, -28.60103988647461
336,85169082,0.3237311,0.5409846,-0.63945836,0.44003057,12.664876937866211,-3.3969674110412598,0.33728498220443726,-66.22511291503906,-128.6569366455078, -24.519872665405273
337,85185749,0.3190615,0.54747343,-0.64918524,0.4207507,12.657691955566406,-3.207880973815918,0.29990291595458984,-83.33977508544922,-135.1288299560547, -21.14590072631836
338,85202416,0.31520686,0.5528437,-0.6593796,0.40028387,11.711055755615234,-2.8288190364837646,0.06463387608528137,-95.54694366455078,-133.90191650390625, -19.371463775634766
339,85219083,0.3135767,0.55808634,-0.67049044,0.37503636,11.699196815490723,-2.507537841796875,-2.615335702896118,-128.51121520996094,-143.77377319335938, -31.818532943725586
340,85235750,0.31209138,0.56362516,-0.68020886,0.34963086,11.394434928894043,-3.550619602203369,-2.1645219326019287,-125.57980346679688,-141.5626220703125, -39.270137786865234
341,85252417,0.30917865,0.5698965,-0.68748605,0.3270925,9.064626693725586,-1.8685051202774048,-2.4974451065063477,-99.22921752929688,-133.75424194335938, -42.6308708190918
342,85269084,0.30708414,0.57534754,-0.69336224,0.3064694,7.9133524894714355,-1.8470525741577148,-3.12593412399292,-91.98439025878906,-117.62937927246094, -42.04217529296875
343,85285751,0.3062827,0.578891,-0.6982609,0.28897735,7.368008613586426,-1.9485925436019897,-3.163095712661743,-84.15353393554688,-93.03950500488281, -32.964969635009766
344,85302418,0.3041013,0.58191794,-0.70085603,0.27873796,7.029410362243652,-4.940410614013672,-1.3668830394744873,-40.37112808227539,-64.96292877197266, -21.676836013793945
345,85319085,0.29811326,0.5868592,-0.6992596,0.2788568,6.393187999725342,-2.0997657775878906,2.7838666439056396,36.72428512573242,-36.85625076293945, -18.795976638793945
346,85335752,0.29368255,0.5910907,-0.6958853,0.2830303,6.008543491363525,-0.660598874092102,2.4179701805114746,51.863616943359375,-8.172792434692383, -17.241130828857422
347,85352419,0.2913599,0.5940038,-0.6911086,0.29092607,5.701791763305664,-0.8752357363700867,0.876254141330719,61.18008804321289,22.285717010498047, -13.197583198547363
348,85369086,0.29088837,0.595325,-0.6853166,0.302181,5.5820393562316895,-1.242866039276123,-0.14976850152015686,68.4271469116211,49.907371520996094, -6.730048656463623
349,85385753,0.2915678,0.5954045,-0.677958,0.31757626,5.761327743530273,-1.4294363260269165,-1.0196573734283447,83.99557495117188,77.90629577636719, -1.381062388420105
350,85402420,0.2932674,0.5942179,-0.66896784,0.3367218,6.061872482299805,-1.60291588306427,-0.7424525618553162,98.32323455810547,103.98548889160156, 3.1579084396362305
351,85419087,0.29651996,0.59178734,-0.65815943,0.35873383,6.732306957244873,-1.6767733097076416,-0.20038726925849915,106.86125183105469,129.31686401367188, 3.665252923965454
352,85435754,0.30118442,0.5884575,-0.6453477,0.38279516,8.020068168640137,-1.771138310432434,-0.5444870591163635,113.49751281738281,150.26251220703125, 0.31295591592788696
353,85452421,0.30741677,0.5840103,-0.6306063,0.4083661,9.033893585205078,-1.966455340385437,-0.8438658714294434,116.62115478515625,170.17921447753906, -3.4955575466156006
354,85469088,0.3153379,0.5781673,-0.61415964,0.43484774,9.750033378601074,-2.089879274368286,-1.6188292503356934,115.62939453125,188.6022491455078, -7.062679767608643
355,85485755,0.3246965,0.5706377,-0.5962135,0.46203285,10.155029296875,-2.3039090633392334,-1.6347471475601196,113.72161102294922,205.7094268798828, -8.628884315490723
356,85502422,0.33538482,0.5610772,-0.5769119,0.48977774,10.699031829833984,-2.5579254627227783,-1.5234458446502686,110.58104705810547,222.79615783691406, -8.555599212646484
357,85519089,0.34731358,0.5493275,-0.5562225,0.5179083,11.430753707885742,-2.4705734252929688,-1.300107479095459,106.95808410644531,239.75253295898438, -8.47861099243164
358,85535756,0.36101732,0.5346347,-0.5347722,0.5457573,12.43981647491455,-2.631718635559082,-0.8643653392791748,94.86589050292969,257.7744445800781, -7.054205417633057
359,85552423,0.3759192,0.51728266,-0.51254404,0.57306373,13.332462310791016,-3.012503147125244,-0.5508869886398315,84.7968978881836,272.12481689453125, -5.951714515686035
360,85569090,0.39143065,0.49767664,-0.48954332,0.59953946,13.959839820861816,-3.4661998748779297,-0.09248650074005127,76.93132019042969,282.2593994140625, -5.290541648864746
361,85585757,0.4070069,0.47649562,-0.46587753,0.6247043,14.43658447265625,-3.937303304672241,-0.4672709107398987,70.81849670410156,286.3656921386719, -6.060300350189209
362,85602424,0.4227692,0.4530069,-0.44245157,0.648296,15.243014335632324,-4.249683380126953,-1.7158193588256836,57.708065032958984,291.18963623046875, -3.0992796421051025
363,85619091,0.4381249,0.42703456,-0.42040846,0.67003363,15.38056468963623,-4.0697455406188965,-2.947144031524658,39.984745025634766,291.431640625, 5.1604790687561035
364,85635758,0.45233896,0.39946854,-0.40047914,0.689515,15.522698402404785,-3.9235148429870605,-3.675710916519165,22.318967819213867,282.7297668457031, 14.408774375915527
365,85652425,0.46482342,0.37188825,-0.38219893,0.7067973,14.371576309204102,-3.8977408409118652,-4.300834655761719,13.20276927947998,267.1398620605469, 20.314851760864258
366,85669092,0.47583583,0.34546477,-0.36575243,0.72142893,11.679269790649414,-3.2725298404693604,-5.007008075714111,4.8451457023620605,245.2877197265625, 20.623517990112305
367,85685759,0.48617926,0.32075605,-0.35495567,0.7312675,8.999258041381836,-2.756523609161377,-6.575830459594727,-27.979228973388672,205.48170471191406, 17.35066032409668
368,85702426,0.49492505,0.30012783,-0.35052386,0.73627824,7.037597179412842,-2.721493721008301,-7.184793472290039,-54.5414924621582,149.38072204589844, 13.311275482177734
369,85719093,0.5007148,0.28684548,-0.35352126,0.7362249,4.546883583068848,-4.009172439575195,-6.06622838973999,-73.20250701904297,69.55216217041016, 8.656041145324707
370,85735760,0.5016049,0.2829182,-0.3615985,0.73320955,5.288102149963379,-4.43635368347168,-6.044392108917236,-64.19066619873047,-12.88473129272461, 10.505908966064453
371,85752427,0.5005268,0.28481892,-0.37333956,0.72730243,7.265961647033691,-4.01583194732666,-6.946771621704102,-65.87669372558594,-65.27263641357422, 3.0618672370910645
372,85769094,0.49700102,0.29237178,-0.38351208,0.7214064,7.787453651428223,-3.975428819656372,-8.720766067504883,-33.7227783203125,-94.24121856689453, -2.254573345184326
373,85785761,0.4895465,0.30341452,-0.3893295,0.7188229,11.339903831481934,-8.510735511779785,2.5621395111083984,16.47185707092285,-100.20730590820312, 10.581347465515137
374,85802428,0.47424453,0.31867328,-0.38081166,0.72699517,10.91026782989502,-7.2879414558410645,19.28969955444336,146.7051544189453,-71.34713745117188, 44.317535400390625
375,85819095,0.4636574,0.337489,-0.3713806,0.73020524,10.195469856262207,11.984468460083008,-3.796525716781616,139.49530029296875,-84.88142395019531, -6.779820442199707
376,85835762,0.45464256,0.3493612,-0.37585345,0.7279981,17.55720329284668,0.14777497947216034,0.08333748579025269,29.997722625732422,-102.80748748779297, 18.251876831054688
377,85852429,0.45119008,0.35688978,-0.3869141,0.7206628,13.297752380371094,10.276409149169922,0.9521759152412415,-43.17335510253906,-99.51699829101562, 1.4961702823638916
378,85869096,0.45462808,0.3508238,-0.41867393,0.70352566,14.84850025177002,-3.723978281021118,-2.882988929748535,-230.97787475585938,-102.08589172363281, 24.09564971923828
379,85885763,0.445548,0.3573732,-0.43513602,0.6960086,12.260671615600586,-15.986577987670898,-4.437320709228516,-59.59207534790039,-128.03526306152344, 41.51109313964844
380,85902430,0.43425733,0.3712542,-0.43942988,0.69317555,9.431396484375,-3.9640605449676514,-0.012773469090461731,40.59905242919922,-120.87516021728516, 14.449837684631348
381,85919097,0.42626554,0.38160887,-0.44496074,0.68897194,8.638162612915039,-4.778928756713867,0.03276149928569794,11.61063289642334,-101.29817199707031, 8.428776741027832
382,85935764,0.42049935,0.39143938,-0.44823042,0.6848687,9.065043449401855,-1.6499977111816406,0.979096531867981,15.24936580657959,-85.12760925292969, -6.17382287979126
383,85952431,0.41685253,0.3990592,-0.45242634,0.6799238,9.413701057434082,-2.469724416732788,1.3588579893112183,-3.8133301734924316,-73.1534194946289, -9.266914367675781
384,85969098,0.41403198,0.40518346,-0.45725244,0.6747772,9.890565872192383,-2.9801416397094727,1.72654128074646,-13.95124340057373,-65.9765396118164, -7.318997859954834
385,85985765,0.41079324,0.4102071,-0.46239376,0.67020243,9.152566909790039,-2.7147552967071533,1.6168454885482788,-15.59312915802002,-61.51716613769531, 0.5920779705047607
386,86002432,0.4059441,0.4154343,-0.46650422,0.66708153,9.607767105102539,-2.754563093185425,1.3143603801727295,-1.1122205257415771,-60.591590881347656, 8.56802749633789
387,86019099,0.40022227,0.4211183,-0.4691208,0.6651371,10.038681030273438,-1.9943783283233643,1.183429479598999,13.273201942443848,-57.979148864746094, 10.12442684173584
388,86035766,0.3947424,0.42574754,-0.47208112,0.663368,9.546210289001465,-2.542654037475586,1.1497811079025269,8.659536361694336,-52.83658218383789, 13.90828800201416
389,86052433,0.3895773,0.42994875,-0.474239,0.66217136,9.19580364227295,-3.1326558589935303,0.8219993710517883,12.08912467956543,-46.03142166137695, 13.06993293762207
390,86069100,0.38511804,0.43348718,-0.47615084,0.6611004,9.214455604553223,-2.607241630554199,0.9300795197486877,9.752283096313477,-39.702457427978516, 11.624750137329102
391,86085767,0.38172373,0.43572125,-0.4789174,0.6595999,9.706666946411133,-2.545332908630371,0.8767171502113342,-2.171403408050537,-33.85137176513672, 12.467902183532715
392,86102434,0.37936008,0.43665165,-0.48249263,0.6577402,9.566142082214355,-2.5856804847717285,0.996778130531311,-13.534419059753418,-27.76342010498047, 13.572665214538574
393,86119101,0.3775213,0.4369842,-0.4862639,0.6557972,9.142724990844727,-3.457902193069458,0.9976600408554077,-17.836519241333008,-24.100116729736328, 13.559983253479004
394,86135768,0.37573072,0.43738222,-0.48947215,0.6541715,9.068429946899414,-3.676952600479126,0.8907943367958069,-14.21586799621582,-21.837373733520508, 12.254796028137207
395,86152435,0.3742109,0.43761033,-0.49234936,0.65272945,9.4518404006958,-3.266732931137085,0.9969510436058044,-13.366415977478027,-18.771310806274414, 11.084900856018066
396,86169102,0.37381613,0.43666095,-0.49557865,0.6511456,9.537637710571289,-2.9831254482269287,1.508675456047058,-21.84592056274414,-11.027946472167969, 10.717936515808105
397,86185769,0.3750263,0.43426704,-0.500097,0.6485911,9.253863334655762,-3.1887786388397217,1.3262182474136353,-39.45790481567383,-5.337705612182617, 9.835380554199219
398,86202436,0.37642157,0.43211526,-0.50459826,0.6457274,9.252427101135254,-3.4084341526031494,0.8995882272720337,-40.378082275390625,-6.676426410675049, 7.332083702087402
399,86219103,0.37743634,0.43078256,-0.50840324,0.64303535,9.238646507263184,-3.2035303115844727,0.8760228753089905,-33.44432830810547,-9.333292961120605, 4.557024002075195
400,86235770,0.37830207,0.43014744,-0.51233053,0.6398267,8.886859893798828,-3.666506290435791,1.0540549755096436,-33.54198455810547,-14.797459602355957, 1.8014583587646484
401,86252437,0.3788763,0.43044344,-0.51571596,0.63655984,8.95859432220459,-3.819537401199341,0.9976818561553955,-28.082796096801758,-18.694501876831055, -1.9519004821777344
402,86269104,0.3791227,0.4311839,-0.5188037,0.63339514,8.853080749511719,-3.7693843841552734,0.6763646006584167,-24.293195724487305,-20.734859466552734, -2.709871530532837
403,86285771,0.3790077,0.43203086,-0.5216908,0.6305088,8.989468574523926,-3.2964396476745605,0.2743517756462097,-21.08078956604004,-21.14767837524414, -1.3873544931411743
404,86302438,0.37883604,0.4328024,-0.52447486,0.6277672,9.15735149383545,-3.0404882431030273,0.05887327343225479,-20.144704818725586,-20.33161163330078, -0.7992210388183594
405,86319105,0.37863266,0.43362784,-0.5269775,0.6252192,9.122867584228516,-3.4680488109588623,0.04716353490948677,-17.998369216918945,-19.37371253967285, -1.1877022981643677
406,86335772,0.37842825,0.43452775,-0.52893865,0.6230584,9.122279167175293,-3.5286865234375,-0.055459074676036835,-14.07298469543457,-17.13798713684082, -2.059354066848755
407,86352439,0.37860888,0.43487933,-0.53095907,0.6209814,9.109345436096191,-3.226224422454834,-0.025485673919320107,-16.599925994873047,-13.296868324279785, -1.3202087879180908
408,86369106,0.37893516,0.43473703,-0.5333406,0.6188374,8.976374626159668,-3.212986707687378,0.14287735521793365,-20.108427047729492,-11.799586296081543, 0.7667623162269592
409,86385773,0.37895387,0.43463585,-0.5361069,0.61650234,8.61292552947998,-3.8091182708740234,0.5432183146476746,-21.420591354370117,-14.680952072143555, 2.5781357288360596
410,86402440,0.37818038,0.4354615,-0.53891647,0.6139398,8.245646476745605,-4.182053089141846,0.8748270273208618,-17.66295051574707,-22.32834243774414, 2.053356647491455
411,86419107,0.3768539,0.4371326,-0.54208666,0.6107688,8.48203182220459,-3.769652843475342,0.7806002497673035,-17.588638305664062,-30.713268280029297, 0.7477467656135559
412,86435774,0.3751028,0.43909666,-0.5459621,0.6069741,8.993782997131348,-2.838050365447998,0.40242525935173035,-20.840944290161133,-37.2342414855957, 1.9408979415893555
413,86452441,0.37278536,0.4415079,-0.5503331,0.6026901,9.187434196472168,-3.204655885696411,0.10263903439044952,-21.884315490722656,-43.98703384399414, 2.8623523712158203
414,86469108,0.36966684,0.4446446,-0.5545637,0.5984119,9.068551063537598,-3.6330230236053467,0.31296324729919434,-16.99042510986328,-49.65106964111328, 3.0277388095855713
415,86485775,0.36543608,0.44915727,-0.5584398,0.59401983,8.711373329162598,-4.232486248016357,0.07793202251195908,-9.06974983215332,-59.005130767822266, 0.9828290939331055
416,86502442,0.35991535,0.45575732,-0.56137943,0.5895755,8.953448295593262,-3.944319009780884,0.5942082405090332,3.780545711517334,-70.29595184326172, -4.790107250213623
417,86519109,0.35505742,0.4622252,-0.5660919,0.5829427,9.145819664001465,-4.368029594421387,0.6789321899414062,-14.261115074157715,-78.45460510253906, -6.829383373260498
418,86535776,0.34941554,0.46949548,-0.57152706,0.57518697,9.062066078186035,-5.837363243103027,1.404158592224121,-17.080411911010742,-90.06336212158203, -7.258828639984131
419,86552443,0.34264717,0.47813934,-0.5766402,0.5669761,9.67585563659668,-4.815185070037842,1.101243019104004,-10.66700267791748,-100.6290283203125, -10.34384822845459
420,86569110,0.33603942,0.4873603,-0.5819879,0.5575371,11.813844680786133,-2.86667799949646,0.5142907500267029,-15.622865676879883,-106.8448486328125, -15.384119987487793
421,86585777,0.3306569,0.49568066,-0.5885413,0.5464303,13.092635154724121,-2.4136712551116943,0.3173448443412781,-33.10712432861328,-106.87494659423828, -16.28302001953125
422,86602444,0.3255109,0.5038412,-0.5954981,0.5343865,13.132491111755371,-3.188405752182007,0.727292001247406,-39.5798454284668,-109.44225311279297, -17.271528244018555
423,86619111,0.32042423,0.51250935,-0.60246295,0.52124965,13.228533744812012,-3.624716281890869,1.3178311586380005,-43.15607452392578,-114.8857650756836, -21.980663299560547
424,86635778,0.31563547,0.5215849,-0.6093712,0.50694203,13.464097023010254,-3.556817054748535,1.7850005626678467,-47.95634460449219,-119.13446807861328, -27.511680603027344
425,86652445,0.3115768,0.52997935,-0.6169056,0.49139526,13.487519264221191,-2.722195863723755,1.6344342231750488,-59.42698287963867,-119.52943420410156, -27.645753860473633
426,86669112,0.30854362,0.5370738,-0.62541616,0.47456035,13.568746566772461,-1.9963202476501465,0.8026994466781616,-74.712646484375,-117.59638977050781, -24.794971466064453
427,86685779,0.30621082,0.5429302,-0.63515115,0.4561197,13.004595756530762,-2.359290361404419,0.15085279941558838,-90.82241821289062,-119.09689331054688, -20.63766098022461
428,86702446,0.3035639,0.5482185,-0.6454047,0.43675882,12.288572311401367,-2.8724310398101807,-0.923843502998352,-96.48811340332031,-123.2358169555664, -17.173521041870117
429,86719113,0.30039048,0.5536528,-0.6555023,0.41659448,11.514555931091309,-1.866416096687317,-0.6558491587638855,-97.294677734375,-128.73056030273438, -18.510250091552734
430,86735780,0.29932094,0.55958176,-0.6656116,0.3927296,10.703938484191895,-1.8249958753585815,-1.1956658363342285,-120.99785614013672,-134.7963409423828, -34.36713790893555
431,86752447,0.29939464,0.5650843,-0.675329,0.36738715,10.291094779968262,-3.8843491077423096,-1.0261170864105225,-131.97511291503906,-133.3079071044922, -40.059329986572266
432,86769114,0.29841793,0.570971,-0.68374664,0.34268007,9.203365325927734,-4.33324670791626,-3.376347541809082,-120.87269592285156,-134.02401733398438, -42.94597244262695
433,86785781,0.29388997,0.5780753,-0.68935937,0.32286444,8.328694343566895,-3.537721872329712,-4.909327507019043,-74.83195495605469,-128.62850952148438, -41.28825759887695
434,86802448,0.29105756,0.58271414,-0.6941479,0.3064122,7.640174388885498,-3.047783613204956,-1.4709891080856323,-68.7853775024414,-100.07975769042969, -29.85426139831543
435,86819115,0.29032743,0.5847346,-0.6981637,0.29387617,6.681969165802002,-5.276658058166504,-2.5743002891540527,-62.134552001953125,-67.30109405517578, -17.05364990234375
436,86835782,0.28544393,0.5886313,-0.69732857,0.29286167,6.048948287963867,-3.4796652793884277,2.754894733428955,23.402864456176758,-35.02882766723633, -14.184975624084473
437,86852449,0.28276703,0.59128433,-0.695126,0.29533997,5.665232181549072,-0.6905795335769653,3.0161235332489014,31.521812438964844,-5.149313449859619, -11.35014820098877
438,86869116,0.28357872,0.5921792,-0.6919858,0.30010468,6.022049903869629,-0.3875136971473694,1.743721842765808,26.757375717163086,26.18896484375, -9.398014068603516
439,86885783,0.28768688,0.59139395,-0.6876779,0.30755278,6.467459201812744,-0.3992094397544861,0.09844590723514557,25.244001388549805,58.521995544433594, -7.72975492477417
440,86902450,0.29344675,0.5894571,-0.68187624,0.31855068,6.7158660888671875,-0.7023835182189941,-0.8912570476531982,36.19828414916992,86.14320373535156, -4.826503753662109
441,86919117,0.29941246,0.58635974,-0.67485267,0.33332905,6.937272548675537,-1.948036551475525,-1.0557878017425537,53.428733825683594,107.42864227294922, 2.8419692516326904
442,86935784,0.3050181,0.5823067,-0.6661627,0.35229272,7.324972152709961,-2.150148630142212,-0.6510426998138428,76.15404510498047,128.24545288085938, 10.001631736755371
443,86952451,0.3115492,0.5772646,-0.655588,0.37404168,7.4598069190979,-1.5635675191879272,-0.501778244972229,87.70127868652344,149.97711181640625, 10.587493896484375
444,86969118,0.3196843,0.5711432,-0.6432357,0.39729777,8.214276313781738,-1.1537131071090698,-1.2359811067581177,90.39165496826172,169.7665252685547, 7.506569862365723
445,86985785,0.32961625,0.5634767,-0.6291707,0.42189032,9.025762557983398,-1.3968334197998047,-1.752661943435669,90.53534698486328,190.94483947753906, 5.651865005493164
446,87002452,0.34079325,0.55411124,-0.61353,0.44766274,9.968018531799316,-1.5811516046524048,-1.6240917444229126,91.54362487792969,209.40248107910156, 5.967956066131592
447,87019119,0.3530935,0.5429131,-0.59632915,0.47430158,10.536076545715332,-1.845625638961792,-1.483586311340332,91.43101501464844,226.74168395996094, 6.3391547203063965
448,87035786,0.36627924,0.5300062,-0.5770369,0.50195765,11.364272117614746,-1.531952142715454,-1.3438105583190918,94.97632598876953,244.8260498046875, 5.129082679748535
449,87052453,0.3806952,0.51474094,-0.55615413,0.5299109,12.21625804901123,-1.6954265832901,-1.0608551502227783,91.22907257080078,262.9444580078125, 5.205211162567139
450,87069120,0.3962201,0.4970662,-0.5337128,0.55775046,13.089160919189453,-1.8538174629211426,-1.0060343742370605,86.24388122558594,279.65338134765625, 4.576238632202148
451,87085787,0.41240042,0.47744378,-0.5097142,0.58494884,13.851014137268066,-2.3493778705596924,-0.5791091918945312,82.31927490234375,291.5932922363281, 2.1531178951263428
452,87102454,0.4294986,0.45521012,-0.48486096,0.61092114,14.61606502532959,-2.785313367843628,-0.7490881681442261,71.04106140136719,303.7282409667969, 1.3407660722732544
453,87119121,0.44688648,0.43088353,-0.45959768,0.63513935,15.436319351196289,-3.3301239013671875,-1.9258780479431152,59.82324981689453,309.22662353515625, 0.6439170837402344
454,87135788,0.46368128,0.40497848,-0.43442783,0.6574685,15.820603370666504,-4.57747220993042,-3.497499942779541,50.34672546386719,308.39044189453125, 2.6966326236724854
455,87152455,0.4778995,0.3786398,-0.41054922,0.6780069,15.876320838928223,-4.814633846282959,-5.084526062011719,44.948272705078125,293.58319091796875, 13.521781921386719
456,87169122,0.48912093,0.35447812,-0.38812032,0.69603777,14.101631164550781,-4.098710536956787,-5.988104343414307,46.065731048583984,263.7210693359375, 16.87102699279785
457,87185789,0.4997245,0.33218578,-0.3687808,0.7098795,11.15282917022705,-2.486833095550537,-6.970291614532471,27.88931655883789,232.57203674316406, 8.266210556030273
458,87202456,0.5099802,0.31099117,-0.3562704,0.7185237,8.969931602478027,-1.9275104999542236,-7.963253498077393,-14.055071830749512,191.0425567626953, 4.914477348327637
459,87219123,0.51861405,0.29349977,-0.35212192,0.7217393,6.508190631866455,-2.563459873199463,-7.579963684082031,-52.20751953125,127.89859771728516, 2.6926074028015137
460,87235790,0.5230259,0.28410983,-0.355634,0.7205902,4.255706787109375,-3.651785373687744,-6.403894424438477,-63.37404251098633,41.402591705322266, 3.9133219718933105
461,87252457,0.5226218,0.28456625,-0.3625441,0.71725196,6.156410217285156,-3.7956976890563965,-6.662871837615967,-40.73919677734375,-35.60597610473633, 2.444417715072632
462,87269124,0.521591,0.2861291,-0.3753209,0.71077937,11.085229873657227,-6.519416332244873,-1.136841058731079,-72.27899169921875,-69.78596496582031, 2.976039171218872
463,87285791,0.52012867,0.28884822,-0.39008123,0.7027586,9.347317695617676,-4.146736145019531,7.12603235244751,-80.96832275390625,-86.6661148071289, 0.43039795756340027
464,87302458,0.51411253,0.30131343,-0.39220363,0.7007676,10.388751983642578,1.7292560338974,-1.0613930225372314,40.16593933105469,-88.80542755126953, -7.245641708374023
465,87319125,0.5066953,0.31312972,-0.3990925,0.6970904,14.249063491821289,-3.8876125812530518,-0.6220910549163818,13.257915496826172,-109.76823425292969, 5.190451145172119
466,87335792,0.49589053,0.32718265,-0.4077992,0.693357,13.787367820739746,0.3011574447154999,-0.6314720511436462,19.477750778198242,-136.19732666015625, 19.000694274902344
467,87352459,0.4894777,0.3363649,-0.42489,0.68318295,13.525997161865234,0.825791597366333,-1.4050354957580566,-65.04106140136719,-143.70303344726562, 8.643375396728516
468,87369126,0.480242,0.34601408,-0.44172642,0.6741808,12.724150657653809,-9.679068565368652,-2.6065361499786377,-52.322715759277344,-150.5389862060547, 23.92327880859375
469,87385793,0.46746758,0.36095485,-0.44900522,0.6705074,10.015148162841797,-5.997349739074707,-2.669037342071533,34.06315612792969,-141.52978515625, 19.071210861206055
470,87402460,0.45690453,0.37581962,-0.45282456,0.6670441,11.26064682006836,-1.4317337274551392,-0.14232702553272247,44.9264030456543,-122.6742172241211, 1.172498345375061
471,87419127,0.45038563,0.385475,-0.45870873,0.6619276,9.733345031738281,-0.7723754048347473,-0.49540483951568604,3.4924519062042236,-96.92920684814453, -1.0083158016204834
472,87435794,0.44665787,0.39193672,-0.46343985,0.65734774,10.631999969482422,1.0126404762268066,0.4277805685997009,-6.855674743652344,-68.58137512207031, -5.022222995758057
473,87452461,0.44580355,0.39296296,-0.4716864,0.65142286,11.624075889587402,-1.298052191734314,1.0855534076690674,-51.46121597290039,-49.27154541015625, 4.682027816772461
474,87469128,0.4436595,0.39224914,-0.47993842,0.64727575,10.275888442993164,-3.0079286098480225,0.6916704773902893,-47.565582275390625,-40.867027282714844, 21.584199905395508
475,87485795,0.4402172,0.39261502,-0.48466754,0.64587915,9.179798126220703,-3.515420436859131,1.0237064361572266,-16.01403045654297,-31.78354835510254, 22.691055297851562
476,87502462,0.4379061,0.39247847,-0.48832992,0.6447737,9.440410614013672,-2.9414546489715576,0.9649035334587097,-14.87939167022705,-21.764698028564453, 17.340097427368164
477,87519129,0.4361117,0.3915563,-0.49190027,0.6438359,9.295742988586426,-3.2731568813323975,1.2769864797592163,-17.66663360595703,-15.814265251159668, 17.94425392150879
478,87535796,0.43439844,0.39051116,-0.49491856,0.6433155,9.086437225341797,-3.67328143119812,1.1556425094604492,-14.395984649658203,-12.216594696044922, 17.76577377319336
479,87552463,0.4328862,0.38967165,-0.49726483,0.64303446,8.583954811096191,-3.4044363498687744,1.4495364427566528,-10.534148216247559,-9.793044090270996, 15.084539413452148
480,87569130,0.43195486,0.38855845,-0.49996868,0.64223737,8.842780113220215,-3.487621307373047,1.627779483795166,-16.250980377197266,-9.050263404846191, 12.871820449829102
481,87585797,0.43125883,0.3874896,-0.50288075,0.6410763,8.688410758972168,-3.778057336807251,1.9433703422546387,-18.91788673400879,-10.036639213562012, 11.154757499694824
482,87602464,0.43062297,0.3865462,-0.50587124,0.6397189,8.638785362243652,-3.6438181400299072,1.7007081508636475,-19.732192993164062,-11.150460243225098, 10.079737663269043
483,87619131,0.4297681,0.38574106,-0.50878644,0.6384666,8.881799697875977,-3.4275546073913574,1.5447251796722412,-18.045156478881836,-12.029386520385742, 10.67184066772461
484,87635798,0.42869347,0.3852211,-0.51143736,0.6373841,9.20266342163086,-3.0796427726745605,1.4234299659729004,-14.866241455078125,-12.83108901977539, 10.439903259277344
485,87652465,0.42773202,0.38481218,-0.51413953,0.63610184,8.943157196044922,-3.5383243560791016,1.3473848104476929,-15.76579761505127,-13.612406730651855, 9.103608131408691
486,87669132,0.42669025,0.38486797,-0.51665497,0.6347282,8.673927307128906,-3.9342565536499023,1.4066755771636963,-13.694158554077148,-15.632877349853516, 7.049414157867432
487,87685799,0.42557675,0.3853647,-0.5190355,0.6332304,8.729273796081543,-3.798823356628418,1.5104358196258545,-12.064703941345215,-17.757816314697266, 5.071188926696777
488,87702466,0.4243471,0.38603422,-0.52158344,0.631552,8.587925910949707,-3.877230405807495,1.4973405599594116,-12.626842498779297,-19.907445907592773, 4.873741626739502
489,87719133,0.42300147,0.38677484,-0.52445185,0.62962323,8.421492576599121,-3.9886293411254883,1.3906091451644897,-14.403182029724121,-22.24595069885254, 5.240057468414307
490,87735800,0.42137963,0.38793463,-0.52717656,0.62771875,8.602433204650879,-3.4564785957336426,1.0702165365219116,-11.742789268493652,-24.588193893432617, 4.609100818634033
491,87752467,0.4198526,0.38952565,-0.52985924,0.625494,9.79549789428711,-2.4021918773651123,1.007176399230957,-11.727027893066406,-26.84998893737793, 1.5978082418441772
492,87769134,0.41830906,0.39089963,-0.53275096,0.62321067,9.801051139831543,-2.7317111492156982,0.8469840884208679,-13.4207124710083,-26.74915313720703, 2.859417200088501
493,87785801,0.4168066,0.3921152,-0.5355641,0.62103873,9.366670608520508,-3.4643898010253906,0.6737633943557739,-13.24145793914795,-25.406259536743164, 3.3798553943634033
494,87802468,0.41558218,0.39311218,-0.5380284,0.619096,9.115838050842285,-3.6169214248657227,0.4187247157096863,-12.284825325012207,-21.84121322631836, 2.7153682708740234
495,87819135,0.41487738,0.3936209,-0.54032695,0.6172409,9.218515396118164,-3.3631465435028076,0.2612575888633728,-14.055211067199707,-17.138179779052734, 2.111879825592041
496,87835802,0.4144279,0.3938143,-0.54248613,0.61552304,9.342560768127441,-3.3418514728546143,0.3591775596141815,-14.545230865478516,-14.090129852294922, 2.2160396575927734
497,87852469,0.4138668,0.3940306,-0.54459673,0.6138962,9.095118522644043,-3.368134021759033,0.8149377703666687,-13.633543968200684,-14.226797103881836, 2.7328338623046875
498,87869136,0.41296133,0.39468405,-0.54703385,0.61191624,8.509815216064453,-3.8080883026123047,1.1873270273208618,-14.156871795654297,-19.258548736572266, 2.4306821823120117
499,87885803,0.41152996,0.3960463,-0.5498393,0.60948104,8.446064949035645,-3.7258927822113037,1.2337383031845093,-13.982848167419434,-26.51291275024414, 1.6821895837783813
500,87902470,0.40960982,0.39803723,-0.5531806,0.60644656,8.412215232849121,-3.9406681060791016,1.128442645072937,-15.38529109954834,-34.15534591674805, 1.1153682470321655
501,87919137,0.40674984,0.40119323,-0.5563702,0.60336643,8.590980529785156,-3.768857002258301,0.916013240814209,-9.075356483459473,-42.29750061035156, 0.056252263486385345
502,87935804,0.40329015,0.40521595,-0.55956936,0.6000327,9.040231704711914,-3.3089349269866943,0.6291301846504211,-6.009572505950928,-48.92453384399414, -1.4562995433807373
503,87952471,0.39946923,0.40987396,-0.56283915,0.59635544,9.322361946105957,-3.408672571182251,0.47622784972190857,-4.854207515716553,-54.09785461425781, -3.164238452911377
504,87969138,0.39551556,0.41488636,-0.5665338,0.59201044,9.066250801086426,-3.540761709213257,0.40631920099258423,-7.83475399017334,-59.1220703125, -4.626761436462402
505,87985805,0.39119905,0.42064598,-0.5706562,0.5868321,8.923818588256836,-3.681762218475342,0.36089932918548584,-9.756510734558105,-67.1266860961914, -7.106142044067383
506,88002472,0.3866198,0.427247,-0.57521385,0.5806154,9.30732536315918,-3.913886308670044,0.42626428604125977,-12.567124366760254,-75.73516845703125, -10.882259368896484
507,88019139,0.3819396,0.43447864,-0.5802131,0.5733266,9.72034740447998,-3.9128799438476562,0.4170096516609192,-16.59980583190918,-82.98538970947266, -14.52748966217041
508,88035806,0.37716404,0.44186795,-0.58570224,0.5652016,9.982941627502441,-4.004039764404297,0.6217101216316223,-21.17020034790039,-87.78300476074219, -15.513609886169434
509,88052473,0.3723037,0.4491197,-0.59159046,0.556509,10.85855484008789,-3.9672341346740723,0.5587562918663025,-25.108680725097656,-90.36235046386719, -14.890362739562988
510,88069140,0.36800936,0.45564002,-0.5979404,0.547201,11.73719310760498,-3.3271493911743164,0.31574487686157227,-33.001766204833984,-88.358642578125, -14.230167388916016
511,88085807,0.36369887,0.46246585,-0.6047569,0.5367659,11.74585247039795,-4.265379905700684,0.5130105018615723,-38.565391540527344,-94.30241394042969, -16.810182571411133
512,88102474,0.35914832,0.4695681,-0.61166203,0.5257263,11.615647315979004,-3.600008964538574,0.9759477376937866,-39.95500183105469,-98.48209381103516, -18.302906036376953
513,88119141,0.35421103,0.4776071,-0.61900854,0.51308364,11.61223316192627,-4.152043342590332,1.3807350397109985,-44.73307800292969,-109.78290557861328, -23.376415252685547
514,88135808,0.34817952,0.48673552,-0.6261373,0.49981168,13.036887168884277,-3.76236629486084,2.3682079315185547,-40.39875030517578,-119.8456039428711, -26.401714324951172
515,88152475,0.34238756,0.49555066,-0.6344262,0.4844624,13.836569786071777,-2.8722503185272217,2.803035020828247,-54.881988525390625,-127.50334930419922, -26.965782165527344
516,88169142,0.33691835,0.5037093,-0.6434391,0.46770632,14.397480010986328,-2.2404158115386963,2.5822362899780273,-66.07132720947266,-130.44923400878906, -26.018632888793945
517,88185809,0.3326503,0.51033163,-0.6533845,0.44943765,14.264264106750488,-1.5927072763442993,1.5118169784545898,-83.47795867919922,-127.63580322265625, -23.353466033935547
518,88202476,0.32866937,0.5161882,-0.6642257,0.4293375,13.270549774169922,-3.0779309272766113,0.5735329389572144,-97.22200775146484,-132.4962615966797, -21.843488693237305
519,88219143,0.32249212,0.5228218,-0.67462456,0.4093142,12.594931602478027,-4.565387725830078,-0.6753093004226685,-86.01534271240234,-143.58041381835938, -20.3082332611084
520,88235810,0.31598786,0.53075933,-0.68405545,0.3879621,12.223604202270508,-1.3933258056640625,-0.37332212924957275,-85.39179992675781,-151.4250030517578, -31.877504348754883
521,88252477,0.3121461,0.5381069,-0.69416845,0.3621271,12.107935905456543,-3.6117465496063232,0.04983296990394592,-119.2956771850586,-155.20285034179688, -43.45880889892578
522,88269144,0.30872616,0.54412323,-0.70303166,0.3381784,10.413281440734863,-4.252520561218262,0.6106832027435303,-111.59476470947266,-140.2416229248047, -38.74681854248047
523,88285811,0.30616087,0.5487427,-0.7117387,0.31396654,8.679706573486328,-3.0607242584228516,-4.359744071960449,-118.67194366455078,-133.54515075683594, -35.14726638793945
524,88302478,0.303952,0.551953,-0.71889305,0.29352003,8.677445411682129,-2.989361524581909,-1.4940415620803833,-101.21150970458984,-111.2778549194336, -26.96136474609375
525,88319145,0.30510536,0.5523247,-0.725812,0.27394375,6.70517110824585,-2.1104235649108887,-5.63737678527832,-115.1264877319336,-85.1510238647461, -18.811552047729492
526,88335812,0.3055775,0.55225796,-0.7299872,0.26220658,7.290850639343262,-6.125799655914307,0.33794358372688293,-69.18254852294922,-52.18516159057617, -9.31603717803955
527,88352479,0.303168,0.5537265,-0.7304416,0.26063645,4.768580436706543,-2.9360246658325195,3.270212411880493,2.7060189247131348,-23.01641082763672, -4.622601509094238
528,88369146,0.30331504,0.55377614,-0.7299056,0.26185873,4.735440731048584,-0.9285616278648376,1.7706876993179321,5.803370952606201,5.0333251953125, -0.03515343368053436
529,88385813,0.30613264,0.5526163,-0.72781366,0.26680598,5.5868239402771,-0.7993512153625488,0.030265294015407562,14.613418579101562,38.0199089050293, 3.0652754306793213
530,88402480,0.31083697,0.550453,-0.72400546,0.27604026,5.363185882568359,-1.1489295959472656,-0.8081328868865967,29.93690299987793,69.18792724609375, 7.129496097564697
531,88419147,0.31648675,0.54722315,-0.7186533,0.28969035,5.5290398597717285,-1.5145937204360962,-1.2019323110580444,48.99612808227539,95.92178344726562, 14.238697052001953
532,88435814,0.3221658,0.5432041,-0.71141714,0.30826023,6.095571041107178,-1.7390259504318237,-0.7401734590530396,75.2359848022461,120.24235534667969, 21.697994232177734
533,88452481,0.32815647,0.5386725,-0.7017991,0.3310943,7.164827346801758,-1.4243407249450684,-0.48331230878829956,98.84422302246094,144.04771423339844, 24.103330612182617
534,88469148,0.33557636,0.5333993,-0.6897611,0.35651565,8.109841346740723,-1.196454405784607,-0.4718345105648041,109.88174438476562,167.6629638671875, 21.310338973999023
535,88485815,0.34495464,0.52691346,-0.6756252,0.38327438,8.84562873840332,-1.2982325553894043,-1.1650241613388062,111.39967346191406,189.65541076660156, 17.6629695892334
536,88502482,0.35616416,0.51896274,-0.6594785,0.41099048,9.871854782104492,-1.314697265625,-1.5367937088012695,111.047119140625,210.25326538085938, 14.641454696655273
537,88519149,0.36980668,0.5087982,-0.6421182,0.43823716,10.728917121887207,-1.272006869316101,-1.5916509628295898,98.24778747558594,228.83349609375, 12.342743873596191
538,88535816,0.38515285,0.4966194,-0.62341994,0.46516043,11.21712589263916,-1.218900203704834,-1.6594425439834595,89.7867431640625,244.69032287597656, 10.612767219543457
539,88552483,0.40187502,0.482311,-0.60331386,0.491818,12.015667915344238,-1.1457587480545044,-1.2567050457000732,82.8131103515625,260.2275695800781, 9.849632263183594
540,88569150,0.4203959,0.46506068,-0.58231866,0.5175817,12.800536155700684,-1.3635282516479492,-0.9376360177993774,68.02629089355469,277.13848876953125, 10.570844650268555
541,88585817,0.43933874,0.44610935,-0.5595624,0.54300827,13.563310623168945,-2.048835277557373,-0.6253138780593872,66.6879653930664,288.9057922363281, 9.292820930480957
542,88602484,0.45848384,0.42572182,-0.53462833,0.5680898,14.297743797302246,-2.166597843170166,-0.49366438388824463,68.54125213623047,300.58428955078125, 6.3575825691223145
543,88619151,0.47809255,0.40355682,-0.5081832,0.5918777,14.77340316772461,-2.304365634918213,-1.0273436307907104,62.72776794433594,310.2356872558594, 2.5952329635620117
544,88635818,0.49707013,0.38062298,-0.48023856,0.6143439,15.481432914733887,-3.082350015640259,-2.4984660148620605,63.435791015625,312.45245361328125, -0.6408416628837585
545,88652485,0.51422036,0.35703433,-0.45215124,0.6353449,16.454452514648438,-4.389623641967773,-4.505660533905029,61.74262237548828,305.88079833984375, 3.8691344261169434
546,88669152,0.5271935,0.3341363,-0.42458302,0.6558578,16.407716751098633,-5.218339920043945,-6.666779041290283,70.64698791503906,286.90008544921875, 19.51775360107422
547,88685819,0.535773,0.31620568,-0.39638755,0.67515796,13.996851921081543,-3.595365524291992,-8.151033401489258,98.03646850585938,251.2283172607422, 18.980010986328125
548,88702486,0.5433458,0.3003096,-0.37382537,0.6890895,10.457758903503418,-1.7101949453353882,-9.618630409240723,66.91826629638672,206.683349609375, 10.56071949005127
549,88719153,0.54945046,0.28706935,-0.3600508,0.69717926,7.233051776885986,-2.1091926097869873,-9.526506423950195,23.209606170654297,145.50479125976562, 6.999930381774902
550,88735820,0.5515228,0.28163826,-0.35649917,0.6995792,3.7224974632263184,-2.564077615737915,-10.214192390441895,-2.4168474674224854,48.30652618408203, 5.6650710105896
551,88752487,0.55054164,0.28418314,-0.36330628,0.6958107,3.938894271850586,-2.580486297607422,-10.836530685424805,-31.210006713867188,-48.697757720947266, -2.5593152046203613
552,88769154,0.5493113,0.2884776,-0.37888607,0.68664634,10.830366134643555,-5.651378631591797,-2.5147526264190674,-79.54798126220703,-101.37763977050781, -9.037432670593262
553,88785821,0.5454377,0.29227677,-0.3936767,0.67977273,11.078482627868652,-5.463971138000488,9.107669830322266,-66.48426818847656,-98.35102844238281, 11.794669151306152
554,88802488,0.5400774,0.30280527,-0.40354764,0.6736282,12.830181121826172,-1.630609154701233,-3.615471601486206,-13.293584823608398,-113.92887115478516, -6.63411283493042
555,88819155,0.529426,0.31695166,-0.41519043,0.66848105,15.692673683166504,-3.7758145332336426,-0.7115128040313721,5.71697473526001,-149.82415771484375, 15.233288764953613
556,88835822,0.5184015,0.3309379,-0.43055004,0.6605807,12.209779739379883,-0.016324196010828018,-4.363918304443359,-19.002853393554688,-169.6455841064453, 15.479414939880371
557,88852489,0.50807416,0.3414385,-0.44951534,0.65055084,15.417399406433105,-5.908356666564941,-3.6523144245147705,-55.698463439941406,-169.40362548828125, 23.26470184326172
558,88869156,0.49483562,0.3557267,-0.46069378,0.64525765,11.403877258300781,-7.422022342681885,-5.276377201080322,13.837261199951172,-156.96800231933594, 22.830657958984375
559,88885823,0.48179257,0.3730976,-0.4642083,0.6427947,13.55513858795166,1.2912510633468628,-1.505156397819519,66.81019592285156,-136.98350524902344, 3.0463104248046875
560,88902490,0.47616714,0.38024178,-0.4747535,0.6350514,10.476926803588867,2.0939271450042725,-0.802116870880127,-34.023948669433594,-104.92554473876953, 3.475696325302124
561,88919157,0.4724132,0.38426274,-0.48368105,0.6286658,10.142334938049316,-2.376814365386963,-0.49819985032081604,-37.642616271972656,-76.32931518554688, 5.750589370727539
562,88935824,0.4695345,0.38633308,-0.49109113,0.6237898,10.390576362609863,-2.596198081970215,0.9905575513839722,-34.71184539794922,-56.06695556640625, 9.354589462280273
563,88952491,0.46535194,0.38670236,-0.49822557,0.6210317,10.264070510864258,-3.1875979900360107,0.2065695822238922,-28.405250549316406,-46.665523529052734, 26.80099868774414
564,88969158,0.46080258,0.38848943,-0.50185215,0.62038845,8.935511589050293,-3.535008192062378,1.3168500661849976,-0.668700635433197,-37.13298034667969, 20.950597763061523
565,88985825,0.45761257,0.38909614,-0.50564796,0.61928606,9.00646686553955,-3.6787092685699463,0.752914309501648,-10.344246864318848,-29.181989669799805, 18.218019485473633
566,89002492,0.4542994,0.38977754,-0.5083126,0.6191155,8.715509414672852,-3.435014486312866,0.9816023707389832,-1.7249823808670044,-23.884967803955078, 18.383363723754883
567,89019159,0.45159608,0.38971987,-0.5111341,0.6188065,9.55026912689209,-2.540154218673706,0.9753486514091492,-6.818362712860107,-19.478601455688477, 18.35492515563965
568,89035826,0.4496696,0.38898483,-0.5145686,0.61782473,9.063650131225586,-3.162693738937378,1.0757204294204712,-15.973320960998535,-17.582393646240234, 16.98836326599121
569,89052493,0.4479316,0.3888,-0.51763976,0.6166369,8.73686408996582,-4.049558639526367,0.9130390882492065,-13.960479736328125,-18.69072151184082, 12.632399559020996
570,89069160,0.44634843,0.38903382,-0.5201231,0.6155468,8.853445053100586,-3.4928393363952637,1.048921823501587,-10.246480941772461,-17.85274887084961, 9.21096420288086
571,89085827,0.44526783,0.38873765,-0.5231506,0.6139488,9.127857208251953,-2.926161050796509,1.1799390316009521,-17.33685302734375,-16.851362228393555, 8.874711990356445
572,89102494,0.4441662,0.3884242,-0.52614176,0.61238694,9.458268165588379,-2.7435710430145264,0.911625325679779,-17.049285888671875,-16.658267974853516, 9.042129516601562
573,89119161,0.44306344,0.38811326,-0.52895385,0.6109589,9.461053848266602,-2.709216356277466,0.8400033712387085,-15.800134658813477,-15.77932357788086, 8.97275447845459
574,89135828,0.44177058,0.38794184,-0.5315024,0.609791,9.337559700012207,-3.0523228645324707,0.855740487575531,-12.813248634338379,-15.570473670959473, 9.358607292175293
575,89152495,0.4406394,0.38760424,-0.53396606,0.6086709,9.312790870666504,-3.0130767822265625,0.8111003041267395,-13.219171524047852,-13.907461166381836, 9.208708763122559
576,89169162,0.439903,0.38682503,-0.53650796,0.60746264,9.190911293029785,-3.084533214569092,0.6597887873649597,-16.258390426635742,-11.092493057250977, 9.122278213500977
577,89185829,0.43957418,0.38563815,-0.5390832,0.6061742,9.199453353881836,-3.2433650493621826,0.4583815932273865,-19.009740829467773,-8.209409713745117, 8.771883964538574
578,89202496,0.4396475,0.38400158,-0.5415974,0.6049175,9.40506649017334,-3.0241427421569824,0.321178674697876,-21.063169479370117,-4.583644866943359, 8.698928833007812
579,89219163,0.4397372,0.38244784,-0.5437588,0.60389674,9.31651782989502,-3.4705498218536377,0.5346145629882812,-18.509685516357422,-3.1848928928375244, 8.106898307800293
580,89235830,0.43965802,0.3814431,-0.54549897,0.60301995,8.887909889221191,-3.73915433883667,0.9070966839790344,-14.118078231811523,-4.4512858390808105, 6.084078311920166
581,89252497,0.4394465,0.38093793,-0.5472651,0.6018921,8.704631805419922,-3.574214458465576,1.2205442190170288,-13.31153392791748,-7.7653422355651855, 4.066282272338867
582,89269164,0.4388598,0.3808483,-0.5494712,0.6003652,8.889881134033203,-3.3085813522338867,1.3280222415924072,-14.396997451782227,-13.283534049987793, 4.001471519470215
583,89285831,0.4378793,0.38135362,-0.5521992,0.59825367,8.927485466003418,-3.4423863887786865,1.2732694149017334,-15.933402061462402,-20.344341278076172, 2.982407331466675
584,89302498,0.43643472,0.38271758,-0.555216,0.5956402,8.754316329956055,-3.7979650497436523,1.3355505466461182,-15.226507186889648,-27.834938049316406, 0.8776542544364929
585,89319165,0.43439752,0.3849643,-0.55861545,0.5924949,8.640074729919434,-3.449881076812744,1.2635952234268188,-14.617219924926758,-36.27138900756836, -0.6559062600135803
586,89335832,0.43156806,0.3880239,-0.56249136,0.5888889,8.599822044372559,-3.3685412406921387,1.0228850841522217,-13.803984642028809,-45.27994155883789, -0.6655640602111816
587,89352499,0.42800957,0.39196074,-0.56642777,0.5850935,9.177531242370605,-3.197465181350708,0.6015955805778503,-10.234219551086426,-52.34600067138672, -1.5066180229187012
588,89369166,0.42449203,0.3959359,-0.5709862,0.58053106,9.274605751037598,-3.0532264709472656,0.43876734375953674,-15.722009658813477,-56.24652862548828, -2.3999390602111816
589,89385833,0.42046583,0.40044126,-0.5761671,0.57522774,8.957550048828125,-3.337615489959717,0.42974650859832764,-18.183265686035156,-64.20138549804688, -2.9164998531341553
590,89402500,0.41539845,0.40613386,-0.5817066,0.56931263,8.69948673248291,-3.7244391441345215,0.5241334438323975,-15.727416038513184,-75.7507553100586, -4.2825469970703125
591,89419167,0.40917072,0.41293043,-0.58743674,0.56301504,8.544654846191406,-3.9458727836608887,0.2534368932247162,-11.612828254699707,-86.33555603027344, -4.717986106872559
592,89435834,0.40231127,0.42038405,-0.5927412,0.55684894,8.925495147705078,-4.726502895355225,-0.1055762842297554,-5.795091152191162,-89.86790466308594, -5.768747329711914
593,89452501,0.39606485,0.4275403,-0.5980547,0.5501568,9.724757194519043,-4.050504684448242,-0.35293102264404297,-10.573868751525879,-87.78286743164062, -8.339829444885254
594,89469168,0.3909971,0.4338405,-0.6041219,0.54216266,10.555068969726562,-3.63224720954895,0.123496413230896,-24.576797485351562,-85.58503723144531, -10.609501838684082
595,89485835,0.38638723,0.4396464,-0.6107633,0.53327674,11.544560432434082,-3.0255231857299805,0.2658764719963074,-33.11545944213867,-86.05760955810547, -10.945317268371582
596,89502502,0.38187745,0.44518754,-0.61838627,0.52304524,11.276037216186523,-3.121316909790039,0.2767452299594879,-43.37107849121094,-91.35786437988281, -10.801551818847656
597,89519169,0.37690696,0.45194852,-0.62610996,0.5115369,11.876091957092285,-4.25771427154541,0.794025182723999,-44.55070114135742,-101.89324188232422, -17.37033462524414
598,89535836,0.37138212,0.4593458,-0.6341843,0.4988859,12.311482429504395,-3.4377942085266113,1.237950086593628,-47.33164978027344,-111.00054168701172, -20.03191566467285
599,89552503,0.36508733,0.46798894,-0.6424941,0.48466367,12.724624633789062,-3.3923897743225098,1.722488522529602,-49.37315368652344,-124.22562408447266, -26.089521408081055
600,89569170,0.35812578,0.4772673,-0.6509628,0.4692646,13.982259750366211,-2.883876323699951,2.3887715339660645,-51.36735534667969,-133.50595092773438, -29.112760543823242
601,89585837,0.35169196,0.48595116,-0.66017133,0.452038,14.583580017089844,-2.3706369400024414,2.6057188510894775,-65.11825561523438,-137.08975219726562, -30.225427627563477
602,89602504,0.34612054,0.49344352,-0.6697053,0.4338306,14.724767684936523,-2.0861611366271973,1.7587957382202148,-76.3365707397461,-133.58352661132812, -28.778186798095703
603,89619171,0.34081632,0.49985033,-0.67992663,0.4143594,13.664643287658691,-2.6561262607574463,0.4892362952232361,-87.69628143310547,-135.08152770996094, -25.24700927734375
604,89635838,0.33465615,0.50615174,-0.69012326,0.39439288,13.073090553283691,-3.2226264476776123,-0.8361083269119263,-87.2375259399414,-140.4654083251953, -23.56729507446289
605,89652505,0.32766277,0.51316786,-0.6995691,0.37403044,12.81054401397705,-2.20306658744812,-0.2833981215953827,-82.52944946289062,-146.0392608642578, -28.23394012451172
606,89669172,0.3231595,0.5206786,-0.70911294,0.3487414,11.51674747467041,-2.978455066680908,-0.6649383306503296,-114.15255737304688,-152.97525024414062, -47.77924346923828
607,89685839,0.3189075,0.52780837,-0.7170052,0.32499233,10.453425407409668,-4.795583724975586,-0.6067938804626465,-104.42684173583984,-141.68002319335938, -49.02971649169922
608,89702506,0.31414628,0.5344389,-0.7236467,0.30335256,8.250069618225098,-4.244861125946045,-4.036895751953125,-90.47900390625,-132.70358276367188, -45.372344970703125
609,89719173,0.30935636,0.5405299,-0.7285438,0.2852192,8.959914207458496,-3.395181655883789,-2.0207619667053223,-70.47418975830078,-115.06505584716797, -41.47282028198242
610,89735840,0.30705336,0.5440864,-0.73267245,0.26996174,6.289944171905518,-2.241525650024414,-4.547025680541992,-69.19902801513672,-85.33076477050781, -30.409313201904297
611,89752507,0.30576637,0.5469474,-0.7340411,0.26180023,7.590008735656738,-4.674350738525391,0.0815550684928894,-33.60637283325195,-46.54389190673828, -24.141462326049805
612,89769174,0.30315912,0.5504862,-0.7322903,0.26231825,5.229149341583252,-2.098245859146118,3.581663131713867,22.189228057861328,-15.256386756896973, -18.687990188598633
613,89785841,0.30330297,0.55236137,-0.72951376,0.2659212,5.144992828369141,-0.5424579977989197,3.2565715312957764,25.691713333129883,15.374457359313965, -12.735065460205078
614,89802508,0.30752376,0.55236787,-0.7256865,0.27147394,5.433396816253662,0.24115821719169617,1.0413508415222168,18.02216339111328,48.80347442626953, -10.744556427001953
615,89819175,0.3154646,0.5507514,-0.7207515,0.27869764,5.464178562164307,-0.4517403244972229,-1.4918200969696045,10.879401206970215,79.06085205078125, -10.262948036193848
616,89835842,0.32442635,0.54806143,-0.7143244,0.29002944,5.600025653839111,-1.899693489074707,-1.6525598764419556,27.91252326965332,104.96221160888672, -3.6384737491607666
617,89852509,0.33333558,0.54434097,-0.70620894,0.3063483,6.261213779449463,-2.16912841796875,-0.36520302295684814,53.674827575683594,129.31272888183594, 6.288346290588379
618,89869176,0.34283072,0.54001606,-0.69589597,0.32646406,7.232918739318848,-1.2095080614089966,0.18762807548046112,73.1580810546875,152.66720581054688, 8.471649169921875
619,89885843,0.35406283,0.5350733,-0.68343693,0.3482099,8.4405517578125,-1.0152884721755981,-0.05771884322166443,77.88276672363281,173.45729064941406, 3.4066994190216064
620,89902510,0.36660698,0.52923054,-0.6691322,0.3711827,9.484116554260254,-1.7184977531433105,-1.135491132736206,81.07262420654297,190.7642364501953, 0.6955990791320801
621,89919177,0.37992227,0.5219298,-0.6531769,0.39573798,10.14513874053955,-2.0407233238220215,-2.9810171127319336,86.0953140258789,207.9402313232422, 3.428187131881714
622,89935844,0.39348036,0.5130964,-0.6355137,0.42193335,10.235057830810547,-2.266002655029297,-2.4517581462860107,93.2360610961914,223.55242919921875, 7.821644306182861
623,89952511,0.40767097,0.5022995,-0.6164372,0.4488934,10.590468406677246,-2.0844016075134277,-1.3997583389282227,93.13614654541016,238.5384063720703, 11.662940979003906
624,89969178,0.4228496,0.48944545,-0.595978,0.47586936,11.27352237701416,-1.8536776304244995,-1.4174895286560059,88.30731964111328,253.00550842285156, 12.6142578125
625,89985845,0.43882343,0.47458985,-0.57379395,0.50295043,11.978257179260254,-2.14941143989563,-1.5469967126846313,85.88751220703125,268.1912536621094, 12.732431411743164
626,90002512,0.4555577,0.4569743,-0.5501544,0.5300679,13.307339668273926,-2.8233821392059326,-1.2588067054748535,80.2547836303711,285.26715087890625, 16.369401931762695
627,90019179,0.4722105,0.43727794,-0.52468836,0.5572318,14.320356369018555,-3.1720266342163086,-0.6109617352485657,80.82596588134766,298.43359375, 18.957151412963867
628,90035846,0.48932606,0.414738,-0.49824387,0.5833572,15.208158493041992,-3.326853036880493,-0.38711726665496826,70.1980209350586,311.0810241699219, 21.139440536499023
629,90052513,0.50614184,0.39062667,-0.47067156,0.6080295,15.767142295837402,-3.5703513622283936,-1.394435167312622,65.30467224121094,316.0390625, 19.62632179260254
630,90069180,0.5218824,0.36535138,-0.44320956,0.6306524,16.66187858581543,-3.888864040374756,-2.696758985519409,57.03871536254883,311.5780029296875, 21.05398941040039
631,90085847,0.53615224,0.3375774,-0.41895524,0.6504297,17.133888244628906,-4.4274797439575195,-4.260681629180908,29.169208526611328,299.32562255859375, 32.890052795410156
632,90102514,0.548008,0.31056434,-0.39720032,0.6674347,14.66489315032959,-3.88370418548584,-6.858234882354736,18.40201759338379,273.3863525390625, 37.05874252319336
633,90119181,0.5584767,0.28669164,-0.37913284,0.6798309,11.08325481414795,-2.549741506576538,-9.980846405029297,3.684713363647461,231.52694702148438, 25.334400177001953
634,90135848,0.5673206,0.2658787,-0.36990237,0.6860234,7.414715766906738,-3.6870338916778564,-11.820785522460938,-38.846435546875,166.9147186279297, 18.529739379882812
635,90152515,0.5718185,0.2529186,-0.36912578,0.6876061,4.277397155761719,-5.064956188201904,-9.685269355773926,-51.863426208496094,77.51502227783203, 16.497079849243164
636,90169182,0.56895036,0.25302282,-0.371498,0.68866855,3.6887366771698,-4.896038055419922,-6.483754634857178,-3.8899264335632324,-16.14862060546875, 21.553497314453125
637,90185849,0.5640365,0.25833756,-0.37843022,0.68696094,10.581232070922852,-2.3946568965911865,-1.049994707107544,-8.60866928100586,-68.64904022216797, 14.994034767150879
638,90202516,0.5605985,0.26244596,-0.39294362,0.68003446,8.557001113891602,-0.9345034956932068,0.4441975951194763,-65.30310821533203,-97.73423767089844, 4.389058589935303
639,90219183,0.5526292,0.2779173,-0.39581266,0.67874557,14.707263946533203,3.5385022163391113,1.8593837022781372,56.34063720703125,-108.02494812011719, -4.396854877471924
640,90235850,0.54423606,0.29116905,-0.40604463,0.6739108,14.90566635131836,0.3113287091255188,-1.8040227890014648,4.6938934326171875,-133.54150390625, 4.269387722015381
641,90252517,0.53630716,0.300409,-0.42303693,0.6657094,14.310269355773926,1.9427791833877563,0.32547760009765625,-51.97947692871094,-145.63934326171875, 14.281492233276367
642,90269184,0.53163266,0.3030407,-0.44772032,0.65198135,11.152538299560547,-3.028627395629883,-3.565589666366577,-134.36465454101562,-145.6734161376953, 14.162841796875
643,90285851,0.52039206,0.31197143,-0.4652022,0.64455634,13.486778259277344,-13.882478713989258,-5.095832824707031,-45.959815979003906,-154.61195373535156, 32.24824142456055
644,90302518,0.50642973,0.33056116,-0.46913177,0.6435633,11.678598403930664,-3.481971502304077,-1.7930558919906616,75.07342529296875,-143.76312255859375, 7.273114204406738
645,90319185,0.49724025,0.34227824,-0.4769398,0.6388476,10.262666702270508,-3.706559419631958,-3.2677884101867676,11.118267059326172,-119.89041900634766, 4.165920257568359
646,90335852,0.4909938,0.352789,-0.4820542,0.63410485,11.18597412109375,2.637071371078491,-0.13332270085811615,11.80179500579834,-95.7599868774414, -11.247115135192871
647,90352519,0.48861215,0.35672128,-0.49065775,0.6271069,11.295194625854492,-1.477987289428711,-0.22354847192764282,-42.46452713012695,-71.51548767089844, -5.3947553634643555
648,90369186,0.48648533,0.35900635,-0.49805528,0.6216008,11.188316345214844,-2.013110399246216,1.1418225765228271,-38.38881301879883,-55.83664321899414, 1.1384581327438354
649,90385853,0.4831751,0.35856062,-0.5063349,0.61773866,9.71861457824707,-2.5312411785125732,0.8559736609458923,-42.74020004272461,-47.11552810668945, 23.239717483520508
650,90402520,0.47787347,0.36035034,-0.5104747,0.6174142,8.904232025146484,-4.133974075317383,1.396860957145691,-0.5021794438362122,-41.07585525512695, 25.468456268310547
651,90419187,0.47378895,0.36216876,-0.513843,0.61670375,8.578398704528809,-3.5851128101348877,1.3547078371047974,-1.5029101371765137,-35.358585357666016, 17.01178550720215
652,90435854,0.4699534,0.36355677,-0.5172801,0.61594784,8.648853302001953,-4.256885051727295,1.3938744068145752,-3.974329710006714,-33.00362777709961, 17.495038986206055
653,90452521,0.4657994,0.36580184,-0.51985973,0.6156019,8.544598579406738,-3.835908889770508,1.4987635612487793,4.677113056182861,-33.98234939575195, 14.966705322265625
654,90469188,0.46210596,0.36812085,-0.52231896,0.61492115,8.272599220275879,-4.263577461242676,1.3455736637115479,3.0680627822875977,-33.11896514892578, 11.370955467224121
655,90485855,0.45936203,0.36998275,-0.52545416,0.6131861,8.44479751586914,-3.726855754852295,1.3292292356491089,-7.432927131652832,-32.6047477722168, 7.350344657897949
656,90502522,0.45716125,0.37127438,-0.5293014,0.6107364,9.718587875366211,-2.325451135635376,0.9284812211990356,-16.200828552246094,-32.31842803955078, 6.672403335571289
657,90519189,0.4544688,0.37245965,-0.53312826,0.60869235,10.018105506896973,-1.8210678100585938,0.9325366616249084,-13.715524673461914,-32.572410583496094, 10.356934547424316
658,90535856,0.45159754,0.3735092,-0.5371074,0.6066848,9.596430778503418,-3.174720525741577,0.6226150989532471,-14.181144714355469,-33.05504608154297, 12.121406555175781
659,90552523,0.4485944,0.375295,-0.5401387,0.6051174,9.173382759094238,-3.625098943710327,0.692723274230957,-5.976581573486328,-32.54950714111328, 8.888111114501953
660,90569190,0.44620895,0.37681353,-0.542982,0.60339016,9.22497844696045,-3.3531596660614014,0.4786825478076935,-8.206974983215332,-28.986650466918945, 6.331408977508545
661,90585857,0.44427943,0.3780586,-0.54565716,0.6016195,9.357465744018555,-3.2125391960144043,0.2981334924697876,-9.69140911102295,-25.756019592285156, 4.893440246582031
662,90602524,0.44269192,0.37901124,-0.5482248,0.5998533,9.483760833740234,-3.182615280151367,0.4629972577095032,-11.012283325195312,-22.932411193847656, 4.312824249267578
663,90619191,0.44136807,0.37975964,-0.5508978,0.5979033,9.104183197021484,-3.397550582885742,0.4848451614379883,-13.448041915893555,-21.905963897705078, 3.7137792110443115
664,90635858,0.4400844,0.38054276,-0.5536688,0.5957886,8.948678970336914,-3.548469305038452,0.40845999121665955,-14.474444389343262,-22.6350154876709, 3.1746890544891357
665,90652525,0.43882027,0.38145208,-0.55635,0.5936378,8.748504638671875,-3.9341280460357666,0.30679386854171753,-13.914071083068848,-22.910669326782227, 2.2696304321289062
666,90669192,0.43742055,0.3828868,-0.55842674,0.59179443,8.973862648010254,-3.6257405281066895,0.40299275517463684,-8.332686424255371,-22.953033447265625, 0.15233823657035828
667,90685859,0.43626076,0.38409707,-0.56065893,0.5897523,9.255343437194824,-3.098980188369751,0.4961557388305664,-11.035216331481934,-22.120288848876953, -0.15162749588489532
668,90702526,0.43497512,0.3851419,-0.5633737,0.5874288,9.162951469421387,-3.143160343170166,0.5589170455932617,-14.240406036376953,-24.13706398010254, 1.4307740926742554
669,90719193,0.43330473,0.38633186,-0.56629807,0.58506525,8.961518287658691,-3.4518754482269287,0.537339448928833,-13.789667129516602,-26.9587345123291, 2.861517906188965
670,90735860,0.4313122,0.38788897,-0.56923014,0.58265686,8.866472244262695,-3.507333517074585,0.38332805037498474,-12.04561996459961,-29.843299865722656, 2.6143808364868164
671,90752527,0.42926434,0.38960493,-0.5723749,0.57993734,8.929564476013184,-3.4202163219451904,0.2211449146270752,-13.498231887817383,-32.1678466796875, 1.858984112739563
672,90769194,0.42729583,0.3912183,-0.5759521,0.5767545,8.987043380737305,-3.3829479217529297,0.4122413098812103,-17.56317710876465,-33.97367477416992, 1.738208293914795
673,90785861,0.42506295,0.39303648,-0.58007985,0.57301956,8.986540794372559,-3.391752243041992,0.542172908782959,-20.61922264099121,-38.947486877441406, 1.8358347415924072
674,90802528,0.4223724,0.395374,-0.5845975,0.56879425,9.107965469360352,-3.4931070804595947,0.443473756313324,-21.35706901550293,-45.29677963256836, 1.1907129287719727
675,90819195,0.4192909,0.39834517,-0.58931816,0.56411034,9.25745677947998,-3.539597749710083,0.3189939856529236,-21.092426300048828,-51.19441223144531, -0.6063616275787354
676,90835862,0.4155378,0.40192452,-0.59420544,0.55920035,9.339336395263672,-2.83717679977417,0.07384970039129257,-19.063249588012695,-57.3873176574707, -0.6597530841827393
677,90852529,0.41105384,0.40610167,-0.5993527,0.5539789,9.329275131225586,-2.971242666244507,-0.09675484150648117,-17.606290817260742,-64.28681945800781, -0.4576549232006073
678,90869196,0.40564016,0.4113054,-0.6044538,0.54856163,9.449625015258789,-4.0799479484558105,0.3554588556289673,-12.739883422851562,-72.45624542236328, -1.8252211809158325
679,90885863,0.39994192,0.41710538,-0.61011446,0.542061,9.863375663757324,-4.059622287750244,0.47152215242385864,-16.887006759643555,-80.52783203125, -4.671995162963867
680,90902530,0.39422968,0.42319968,-0.61639744,0.53435886,10.16697883605957,-3.8082709312438965,0.19559268653392792,-23.400495529174805,-86.85833740234375, -7.374990940093994
681,90919197,0.3885775,0.4293616,-0.6234249,0.5253547,10.652915954589844,-3.5673136711120605,0.10196767747402191,-31.647117614746094,-92.67807006835938, -9.24429702758789
682,90935864,0.38295135,0.4355502,-0.6311168,0.5151078,10.932668685913086,-3.253573417663574,0.04308483004570007,-39.380069732666016,-98.12554931640625, -10.80734920501709
683,90952531,0.37714148,0.44241503,-0.6390355,0.50365365,11.340507507324219,-3.4402129650115967,0.018968045711517334,-43.090396881103516,-105.5540771484375, -15.585542678833008
684,90969198,0.37068608,0.4505615,-0.64650196,0.4915502,12.001221656799316,-3.9926605224609375,0.5879101753234863,-39.0890007019043,-113.6560287475586, -22.036588668823242
685,90985865,0.36433634,0.45895305,-0.6543384,0.4779774,11.90617847442627,-3.6748712062835693,1.0691545009613037,-46.57447814941406,-119.54279327392578, -26.081298828125
686,91002532,0.35781837,0.4678553,-0.6622316,0.4631702,13.391952514648438,-4.129510402679443,2.0960612297058105,-50.50301742553711,-126.05633544921875, -30.73855972290039
687,91019199,0.3524501,0.47485888,-0.67139745,0.4466695,14.847471237182617,-2.4226443767547607,2.924267530441284,-70.63790893554688,-123.40628814697266, -25.829992294311523
688,91035866,0.34853455,0.48031685,-0.6820571,0.427338,14.651211738586426,-2.0842196941375732,2.1813483238220215,-96.76996612548828,-124.88642120361328, -25.134767532348633
689,91052533,0.34250686,0.48682362,-0.69206774,0.408331,13.571900367736816,-2.9289748668670654,-0.4171988070011139,-83.8376235961914,-135.31198120117188, -25.210786819458008
690,91069200,0.33381084,0.49481916,-0.7012229,0.3898857,13.405409812927246,-3.254244327545166,-0.8669260144233704,-66.3172836303711,-148.33729553222656, -26.350032806396484
691,91085867,0.32511637,0.5038483,-0.70920277,0.37076655,11.57369613647461,-1.591262698173523,-1.7322055101394653,-64.04373931884766,-150.73873901367188, -36.89261245727539
692,91102534,0.32074988,0.51087886,-0.7180537,0.3471619,11.213253021240234,-3.4618077278137207,-1.732752799987793,-107.59159088134766,-142.05882263183594, -45.19628143310547
693,91119201,0.31658852,0.5165647,-0.7260761,0.32518637,9.574790000915527,-5.002205848693848,-1.7828173637390137,-101.25542449951172,-130.31512451171875, -38.38311767578125
694,91135868,0.31048074,0.52274644,-0.7325906,0.30602124,8.041679382324219,-4.421108245849609,-5.180943489074707,-75.87431335449219,-127.89952850341797, -35.771934509277344
695,91152535,0.3051106,0.5279193,-0.7368559,0.29198003,7.97728967666626,-3.364250898361206,-0.39330101013183594,-50.15740966796875,-98.8350601196289, -29.403486251831055
696,91169202,0.30342665,0.53035825,-0.740459,0.2799516,5.5595383644104,-2.3834590911865234,-4.536661148071289,-57.75263214111328,-66.00685119628906, -21.154762268066406
697,91185869,0.30206016,0.53268623,-0.7409841,0.27558658,6.837128162384033,-4.013955593109131,1.9346399307250977,-14.21223258972168,-29.802974700927734, -16.44426155090332
698,91202536,0.3017787,0.5340184,-0.7397511,0.2766269,5.001044273376465,-1.2977758646011353,4.127022743225098,10.601801872253418,1.0159348249435425, -8.660760879516602
699,91219203,0.30621216,0.53305656,-0.73809755,0.2780233,5.40762996673584,-0.057451583445072174,1.912070393562317,-8.851156234741211,31.491649627685547, -6.7795796394348145
700,91235870,0.31414205,0.5304462,-0.73544675,0.28117558,5.829267978668213,-0.7689235210418701,-0.6329021453857422,-14.30038070678711,60.8866081237793, -5.063021183013916
