PacketCounter,SampleTimeFine,Quat_W,Quat_X,Quat_Y,Quat_Z,Acc_X,Acc_Y,Acc_Z,Gyr_X,Gyr_Y,Gyr_Z 
2,109893458,0.71070653,0.11573766,-0.64527273,0.25519463,9.643620491027832,-1.5790263414382935,1.3934253454208374,-1.8965307474136353,-0.19294045865535736, 0.08537352830171585
3,109910125,0.71074075,0.11582017,-0.6453846,0.2547785,9.653458595275879,-1.5970966815948486,1.3777157068252563,-2.0905981063842773,-0.1881893128156662, 0.02418479137122631
4,109926792,0.7107229,0.115931086,-0.6455014,0.2544815,9.652052879333496,-1.6100660562515259,1.4040350914001465,-2.2772507667541504,-0.32512766122817993, -0.05362018942832947
5,109943459,0.7107445,0.11594184,-0.6455508,0.25429118,9.6526460647583,-1.6066967248916626,1.4041682481765747,-2.2440185546875,-0.3475387394428253, -0.026073729619383812
6,109960126,0.7107625,0.11595153,-0.645563,0.25420526,9.646103858947754,-1.616743564605713,1.3823506832122803,-2.390254020690918,-0.2611342966556549, -0.00984808336943388
7,109976793,0.71081054,0.11578662,-0.6456224,0.253995,9.65581226348877,-1.6230581998825073,1.3762832880020142,-2.2603721618652344,-0.22800426185131073, 0.004245305433869362
8,109993460,0.710788,0.115722045,-0.645679,0.25394353,9.643850326538086,-1.604114294052124,1.3654918670654297,-2.206137180328369,-0.2023659348487854, 0.04833757132291794
9,110010127,0.7107758,0.11559794,-0.64576656,0.25381163,9.653961181640625,-1.6197055578231812,1.4063804149627686,-2.2477195262908936,-0.229195237159729, 0.0336102657020092
10,110026794,0.7108457,0.115333006,-0.6458413,0.2535461,9.660229682922363,-1.6324074268341064,1.3792749643325806,-2.3924055099487305,-0.0384574756026268, -0.05634794011712074
11,110043461,0.7108845,0.11511881,-0.64591944,0.25333554,9.650060653686523,-1.6234689950942993,1.3531147241592407,-2.2012579441070557,-0.13570889830589294, -0.10626710206270218
12,110060128,0.7109007,0.11492363,-0.6460055,0.2531591,9.62990951538086,-1.6216598749160767,1.389832615852356,-2.1968140602111816,-0.1062798947095871, -0.04229937493801117
13,110076795,0.710923,0.11472835,-0.64608115,0.2529922,9.645956039428711,-1.6175717115402222,1.374392032623291,-2.0749616622924805,-0.09841679036617279, -0.02019561268389225
14,110093462,0.710934,0.11454585,-0.64617044,0.25281605,9.652442932128906,-1.6442502737045288,1.3691238164901733,-1.7985239028930664,-0.2798059582710266, -0.03984055295586586
15,110110129,0.71086967,0.11450432,-0.6462572,0.2527941,9.648758888244629,-1.61866295337677,1.385251760482788,-1.8851585388183594,-0.4466469883918762, -0.055694807320833206
16,110126796,0.71081364,0.11448581,-0.6463239,0.25278962,9.658432960510254,-1.6226750612258911,1.4055655002593994,-2.0187160968780518,-0.3078134059906006, -0.12762807309627533
17,110143463,0.71081346,0.11432316,-0.64641726,0.25262448,9.668749809265137,-1.6238113641738892,1.3716142177581787,-2.2968571186065674,-0.3327986001968384, -0.15847858786582947
18,110160130,0.71081394,0.11418423,-0.6464874,0.2525064,9.637350082397461,-1.635478138923645,1.3771002292633057,-2.4298129081726074,-0.11717811226844788, -0.11099264025688171
19,110176797,0.71081686,0.11404853,-0.64656824,0.25235245,9.647346496582031,-1.6066405773162842,1.3827990293502808,-2.058530807495117,-0.2839680016040802, -0.23667417466640472
20,110193464,0.7107996,0.11398483,-0.6466397,0.25224718,9.653874397277832,-1.6325122117996216,1.370399832725525,-1.7833993434906006,-0.3696296513080597, -0.30383065342903137
21,110210131,0.71076775,0.11392832,-0.6467215,0.2521527,9.662830352783203,-1.6214708089828491,1.3996965885162354,-1.773423194885254,-0.4673677086830139, -0.2655012011528015
22,110226798,0.7107762,0.1137656,-0.64681476,0.25196302,9.640685081481934,-1.6230854988098145,1.3785502910614014,-2.0277445316314697,-0.3848308026790619, -0.20536260306835175
23,110243465,0.71075904,0.11366385,-0.6469045,0.25182688,9.65873908996582,-1.6208791732788086,1.400766372680664,-2.130387783050537,-0.43580010533332825, -0.263900488615036
24,110260132,0.7107466,0.1135669,-0.64698637,0.25169528,9.655458450317383,-1.615172266960144,1.373905062675476,-2.1631462574005127,-0.38839098811149597, -0.28170129656791687
25,110276799,0.7107128,0.11346306,-0.64709944,0.2515471,9.652791023254395,-1.6211129426956177,1.3534443378448486,-2.017153739929199,-0.6794281601905823, -0.21968013048171997
26,110293466,0.7106669,0.11339632,-0.6472,0.25144783,9.648677825927734,-1.6190650463104248,1.3882900476455688,-2.132321357727051,-0.5865692496299744, -0.2078983038663864
27,110310133,0.71061754,0.11334268,-0.6472965,0.25136295,9.655311584472656,-1.623952865600586,1.353497862815857,-2.1530933380126953,-0.5784244537353516, -0.21076691150665283
28,110326800,0.71058595,0.11323445,-0.6474167,0.25119156,9.639291763305664,-1.653615117073059,1.3747841119766235,-2.191960573196411,-0.6861130595207214, -0.3091837167739868
29,110343467,0.7105434,0.113137074,-0.64753914,0.2510399,9.658787727355957,-1.6260924339294434,1.3748302459716797,-2.3767945766448975,-0.6970753073692322, -0.3060845732688904
30,110360134,0.7104647,0.11306902,-0.6476915,0.25090036,9.647153854370117,-1.6183807849884033,1.3605930805206299,-2.528050184249878,-0.9933884739875793, -0.3346427381038666
31,110376801,0.71042717,0.11291018,-0.64785844,0.2506471,9.6509370803833,-1.6207956075668335,1.3668804168701172,-2.6844286918640137,-0.9537658095359802, -0.422161340713501
32,110393468,0.71035415,0.11277577,-0.64804465,0.25043386,9.661588668823242,-1.615282654762268,1.3862336874008179,-2.901073694229126,-1.132503867149353, -0.32652348279953003
33,110410135,0.7102827,0.11269727,-0.6482011,0.25026712,9.660503387451172,-1.6304590702056885,1.38568115234375,-3.0694258213043213,-0.9353117942810059, -0.4635770618915558
34,110426802,0.71018165,0.11267155,-0.6483639,0.25014326,9.659951210021973,-1.6192013025283813,1.3456755876541138,-2.9090394973754883,-1.1157788038253784, -0.47590959072113037
35,110443469,0.710093,0.11263115,-0.64852273,0.25000066,9.642913818359375,-1.6358952522277832,1.3539611101150513,-2.520148754119873,-1.116790533065796, -0.4471977651119232
36,110460136,0.7100614,0.11243939,-0.6487123,0.24968563,9.667450904846191,-1.618438720703125,1.3482364416122437,-2.638761281967163,-1.1357311010360718, -0.49044477939605713
37,110476803,0.7099245,0.11253958,-0.6488409,0.24969494,9.658523559570312,-1.6224122047424316,1.342494010925293,-2.622727632522583,-1.0446652173995972, -0.4853990972042084
38,110493470,0.70985204,0.11249929,-0.64897424,0.2495727,9.640641212463379,-1.6368426084518433,1.3336905241012573,-2.678870439529419,-0.8528259992599487, -0.4331362843513489
39,110510137,0.7098122,0.112410605,-0.6490986,0.24940263,9.645241737365723,-1.6356642246246338,1.340698480606079,-2.480282783508301,-0.7242502570152283, -0.429281622171402
40,110526804,0.70977634,0.11235949,-0.64918643,0.24929872,9.665192604064941,-1.621053695678711,1.3279212713241577,-2.5107614994049072,-0.44628846645355225, -0.3897227942943573
41,110543471,0.7097595,0.11230828,-0.64926404,0.24916798,9.675233840942383,-1.6165801286697388,1.3323427438735962,-2.405224561691284,-0.36542922258377075, -0.5282747149467468
42,110560138,0.7097304,0.112285465,-0.64934516,0.24904929,9.678156852722168,-1.630357027053833,1.3252413272857666,-2.3504390716552734,-0.45078352093696594, -0.5877986550331116
43,110576805,0.7097235,0.11223949,-0.64941597,0.24890485,9.657450675964355,-1.611051321029663,1.3351513147354126,-2.3654227256774902,-0.31261584162712097, -0.6281386613845825
44,110593472,0.7096923,0.112244144,-0.64948106,0.24882217,9.641427993774414,-1.6142158508300781,1.3205734491348267,-2.326683282852173,-0.3479357659816742, -0.5807679891586304
45,110610139,0.70969754,0.11219616,-0.6495473,0.24865618,9.643425941467285,-1.6201419830322266,1.3350366353988647,-1.9922327995300293,-0.3285597264766693, -0.6797482967376709
46,110626806,0.7097396,0.11210816,-0.64959246,0.24845763,9.639449119567871,-1.6333833932876587,1.3317124843597412,-2.0279366970062256,-0.06965373456478119, -0.6994316577911377
47,110643473,0.7097702,0.11219842,-0.6495507,0.24843879,9.650124549865723,-1.6219820976257324,1.3490101099014282,-1.8072445392608643,0.4059164226055145, -0.884739339351654
48,110660140,0.7098708,0.112159885,-0.6494998,0.24830183,9.647025108337402,-1.635459065437317,1.2954367399215698,-1.8050551414489746,0.6869006156921387, -0.8537097573280334
49,110676807,0.7098436,0.112401344,-0.6494184,0.24848327,9.642929077148438,-1.6174166202545166,1.2966949939727783,-1.8139808177947998,0.5330579280853271, -0.7552928328514099
50,110693474,0.70991975,0.11234875,-0.6493984,0.2483418,9.663078308105469,-1.61785089969635,1.3131263256072998,-1.7907887697219849,0.4401862323284149, -0.7344568967819214
51,110710141,0.709948,0.11236629,-0.6493913,0.24827148,9.661806106567383,-1.6174522638320923,1.33363676071167,-1.7450956106185913,0.2068033367395401, -0.6932333111763
52,110726808,0.7099932,0.11230524,-0.64941204,0.24811566,9.670907020568848,-1.5827836990356445,1.3412872552871704,-1.6421966552734375,0.05981205403804779, -0.6431092619895935
53,110743475,0.71001154,0.112298846,-0.64942,0.2480455,9.6587553024292,-1.5786375999450684,1.3217140436172485,-1.5662035942077637,0.07533334195613861, -0.5094108581542969
54,110760142,0.7100092,0.11230578,-0.64943594,0.24800701,9.652823448181152,-1.6210038661956787,1.3426048755645752,-1.638738989830017,-0.005442698486149311, -0.4042068421840668
55,110776809,0.7100003,0.11228539,-0.6494781,0.24793135,9.65284538269043,-1.6052855253219604,1.36831796169281,-1.4596291780471802,-0.23288346827030182, -0.36531391739845276
56,110793476,0.70997876,0.11228471,-0.6495138,0.24789982,9.697732925415039,-1.5700050592422485,1.3450230360031128,-1.4083014726638794,-0.2204228788614273, -0.2558324635028839
57,110810143,0.7099761,0.112263106,-0.6495282,0.2478797,9.69526481628418,-1.5781208276748657,1.3351982831954956,-1.2129278182983398,-0.027354363352060318, -0.11776720732450485
58,110826810,0.7099613,0.112264805,-0.64951915,0.24794482,9.68426513671875,-1.5762050151824951,1.311268925666809,-1.4605259895324707,0.19187115132808685, 0.09616928547620773
59,110843477,0.7099729,0.11220002,-0.6495166,0.24794725,9.664125442504883,-1.6206607818603516,1.3374384641647339,-1.0077059268951416,0.1656053066253662, 0.19789013266563416
60,110860144,0.709966,0.11220838,-0.649485,0.24804614,9.673380851745605,-1.6014020442962646,1.3261126279830933,-0.9834764003753662,0.3111110329627991, 0.23798678815364838
61,110876811,0.71001345,0.11215256,-0.6494274,0.24808617,9.699505805969238,-1.6106284856796265,1.3038549423217773,-1.0186810493469238,0.6559733152389526, 0.19756996631622314
62,110893478,0.71009785,0.112136245,-0.64929616,0.24819548,9.714338302612305,-1.5788731575012207,1.2864995002746582,-1.1174821853637695,1.287992238998413, 0.14597317576408386
63,110910145,0.71025825,0.11208254,-0.6490833,0.24831748,9.710906028747559,-1.603205680847168,1.2769123315811157,-1.2939152717590332,2.1293182373046875, 0.16848674416542053
64,110926812,0.7104999,0.111953795,-0.6488135,0.24838947,9.67750358581543,-1.6163663864135742,1.2783383131027222,-1.4423409700393677,2.8005635738372803, 0.13201427459716797
65,110943479,0.71079725,0.11176706,-0.648517,0.24839765,9.654706954956055,-1.6325373649597168,1.3324130773544312,-1.3389679193496704,3.1269967555999756, 0.05252524092793465
66,110960146,0.7111059,0.11162243,-0.64818513,0.24844503,9.649680137634277,-1.6284091472625732,1.3619720935821533,-1.4287787675857544,3.396519184112549, -0.06532519310712814
67,110976813,0.71142673,0.11145046,-0.6478736,0.24841654,9.635965347290039,-1.6064189672470093,1.3797374963760376,-1.8155819177627563,3.3176324367523193, -0.30566197633743286
68,110993480,0.7117695,0.111233115,-0.647579,0.24829996,9.651768684387207,-1.6169617176055908,1.414661169052124,-2.2621779441833496,3.303776264190674, -0.529235303401947
69,111010147,0.7121114,0.11105933,-0.64726675,0.24821162,9.627715110778809,-1.6362817287445068,1.4130947589874268,-2.613058567047119,3.4484872817993164, -0.6996876001358032
70,111026814,0.7124896,0.11080972,-0.64697224,0.24800599,9.621454238891602,-1.6319897174835205,1.4214401245117188,-3.2236526012420654,3.501940965652466, -0.9414715766906738
71,111043481,0.71287787,0.1105168,-0.64669824,0.24773493,9.628647804260254,-1.6257461309432983,1.4505550861358643,-3.4899096488952637,3.4197630882263184, -1.0353678464889526
72,111060148,0.7132513,0.11023328,-0.6464569,0.24741657,9.611241340637207,-1.6398247480392456,1.448569655418396,-3.444485664367676,3.093022108078003, -1.2254014015197754
73,111076815,0.713615,0.109970376,-0.6462186,0.2471073,9.636629104614258,-1.6105719804763794,1.4506663084030151,-3.3220572471618652,3.004991054534912, -1.2613102197647095
74,111093482,0.71396405,0.10968328,-0.64600646,0.24678111,9.634538650512695,-1.5936779975891113,1.464890718460083,-3.6231093406677246,2.8479855060577393, -1.2036179304122925
75,111110149,0.7142461,0.109512776,-0.64581364,0.246545,9.644490242004395,-1.5860576629638672,1.4877680540084839,-3.5775439739227295,2.4781763553619385, -1.2875250577926636
76,111126816,0.7145455,0.10923447,-0.6456715,0.24617334,9.668701171875,-1.6016263961791992,1.4842841625213623,-3.8833723068237305,2.226710796356201, -1.3298243284225464
77,111143483,0.7148233,0.10897937,-0.64555395,0.24578738,9.652079582214355,-1.6087703704833984,1.4764741659164429,-3.9896395206451416,1.9781265258789062, -1.46742844581604
78,111160150,0.7150675,0.10878131,-0.6454474,0.24544406,9.630212783813477,-1.6006264686584473,1.5371427536010742,-3.5912721157073975,1.720360279083252, -1.4590147733688354
79,111176817,0.7152926,0.10868336,-0.6453195,0.24516799,9.618532180786133,-1.6348485946655273,1.5260672569274902,-3.065673828125,1.6629749536514282, -1.6038289070129395
80,111193484,0.7154805,0.10869085,-0.64518803,0.24496226,9.583439826965332,-1.618369698524475,1.4914747476577759,-2.5366437435150146,1.4377754926681519, -1.7198288440704346
81,111210151,0.7156612,0.108657375,-0.6450967,0.2446898,9.592914581298828,-1.6143317222595215,1.5119245052337646,-2.4306962490081787,1.1134415864944458, -1.7303040027618408
82,111226818,0.71580166,0.108669184,-0.6450227,0.2444685,9.611613273620605,-1.5851128101348877,1.4761897325515747,-2.560488700866699,0.9017143249511719, -1.68817138671875
83,111243485,0.7158545,0.10878236,-0.6449883,0.24435365,9.61054801940918,-1.5892002582550049,1.4726310968399048,-1.8228940963745117,0.2628054916858673, -1.471885085105896
84,111260152,0.71588016,0.108876586,-0.6450072,0.24418642,9.648270606994629,-1.5647333860397339,1.4788134098052979,-1.6196447610855103,-0.22640348970890045, -1.4729094505310059
85,111276819,0.7159029,0.10898481,-0.64499956,0.24409229,9.666520118713379,-1.5756858587265015,1.5022850036621094,-1.2244535684585571,-0.07125454396009445, -1.1951782703399658
86,111293486,0.71597236,0.10901661,-0.6449664,0.24396168,9.684852600097656,-1.5463615655899048,1.4320735931396484,-1.476328730583191,0.3128911256790161, -1.0913442373275757
87,111310153,0.7160771,0.10901555,-0.6448905,0.24385568,9.689346313476562,-1.5277283191680908,1.4186835289001465,-1.2723749876022339,0.7226688265800476, -0.882472813129425
88,111326820,0.7162171,0.109019995,-0.6447483,0.24381863,9.676138877868652,-1.5324956178665161,1.4307711124420166,-1.3159037828445435,1.3268723487854004, -0.739963710308075
89,111343487,0.7163827,0.10900543,-0.6445723,0.24380389,9.666874885559082,-1.551893711090088,1.447006344795227,-1.0046836137771606,1.6155145168304443, -0.5713039636611938
90,111360154,0.7165284,0.10904765,-0.6443921,0.24383333,9.644861221313477,-1.5628026723861694,1.46314537525177,-0.830914318561554,1.5403286218643188, -0.6226319074630737
91,111376821,0.716666,0.109097,-0.6442116,0.24388373,9.652652740478516,-1.5489513874053955,1.4607291221618652,-0.7199859023094177,1.5129231214523315, -0.5411067008972168
92,111393488,0.716794,0.109188676,-0.64401627,0.24398232,9.64883804321289,-1.5438717603683472,1.520808219909668,-0.5849684476852417,1.5617024898529053, -0.5347931981086731
93,111410155,0.7169465,0.109258085,-0.64380044,0.24407278,9.63967227935791,-1.5472981929779053,1.5040781497955322,-0.4766523241996765,1.7604953050613403, -0.495644211769104
94,111426822,0.71711904,0.10930976,-0.6435663,0.24416032,9.650020599365234,-1.5364404916763306,1.5204156637191772,-0.6157933473587036,1.9736698865890503, -0.48743534088134766
95,111443489,0.71733135,0.10931786,-0.6432973,0.24424146,9.62962532043457,-1.5461771488189697,1.487930417060852,-0.6602314114570618,2.3595635890960693, -0.39163097739219666
96,111460156,0.7175448,0.10932482,-0.64302135,0.24433811,9.648324966430664,-1.5584415197372437,1.4965856075286865,-0.4397059977054596,2.389338254928589, -0.2941490709781647
97,111476823,0.71773386,0.10934016,-0.6427738,0.2444269,9.645200729370117,-1.5417460203170776,1.5368146896362305,-0.3630088269710541,2.10478138923645, -0.29311177134513855
98,111493490,0.71791786,0.10936136,-0.6425327,0.24451159,9.656229019165039,-1.5253558158874512,1.552000880241394,-0.2573307752609253,2.019554853439331, -0.3097343444824219
99,111510157,0.7180678,0.10944979,-0.6422958,0.24465436,9.64601993560791,-1.5282056331634521,1.5466445684432983,-0.22965624928474426,1.8690674304962158, -0.34684714674949646
100,111526824,0.71823186,0.10948683,-0.6420682,0.24475327,9.647233963012695,-1.5552761554718018,1.5741348266601562,-0.385253369808197,1.8855109214782715, -0.302242636680603
101,111543491,0.7184261,0.10947449,-0.64183366,0.24480407,9.605978012084961,-1.549311637878418,1.5756174325942993,-0.5213337540626526,2.043682336807251, -0.32643386721611023
102,111560158,0.71860605,0.10949792,-0.6416071,0.24485907,9.620193481445312,-1.5603634119033813,1.5671974420547485,-0.517555832862854,1.909996509552002, -0.46412768959999084
103,111576825,0.71878487,0.109523274,-0.64138454,0.24490607,9.610960006713867,-1.5553432703018188,1.57320237159729,-0.4465445876121521,1.8568629026412964, -0.4917253851890564
104,111593492,0.7189648,0.10955917,-0.6411654,0.24493542,9.618728637695312,-1.5432653427124023,1.5980945825576782,-0.44619882106781006,1.8060474395751953, -0.620979905128479
105,111610159,0.71914595,0.10959716,-0.64093965,0.24497736,9.621679306030273,-1.5583796501159668,1.5979652404785156,-0.5316299796104431,1.8704121112823486, -0.6010916233062744
106,111626826,0.7193026,0.10964858,-0.6407402,0.24501666,9.621590614318848,-1.5258382558822632,1.5804791450500488,-0.5804349780082703,1.6168593168258667, -0.62657630443573
107,111643493,0.7194602,0.10966405,-0.64057076,0.24498966,9.625099182128906,-1.549452781677246,1.5840896368026733,-0.8016519546508789,1.4335237741470337, -0.7249419093132019
108,111660160,0.7195763,0.10969845,-0.64043915,0.24497773,9.598773002624512,-1.5228914022445679,1.617221474647522,-0.7985015511512756,1.0604491233825684, -0.6581695675849915
109,111676827,0.71968234,0.10976669,-0.6403081,0.24497825,9.643564224243164,-1.533974051475525,1.6009905338287354,-0.8290830850601196,1.0034093856811523, -0.7693158388137817
110,111693494,0.7197713,0.10978145,-0.6402175,0.24494651,9.626227378845215,-1.5147438049316406,1.5920742750167847,-1.3270066976547241,0.7965100407600403, -0.640368640422821
111,111710161,0.71981966,0.109821394,-0.640157,0.24494517,9.623730659484863,-1.5301337242126465,1.608799695968628,-1.321474552154541,0.4848932921886444, -0.5454608798027039
112,111726828,0.71986616,0.109824516,-0.6401212,0.24490035,9.623115539550781,-1.532232642173767,1.6330751180648804,-1.3447436094284058,0.31855159997940063, -0.5120490789413452
113,111743495,0.7198881,0.109883204,-0.6400877,0.24489711,9.626182556152344,-1.5208090543746948,1.615822434425354,-1.2968350648880005,0.200080007314682, -0.5771437883377075
114,111760162,0.71991193,0.10991947,-0.6400663,0.24486652,9.61962890625,-1.5292006731033325,1.636871337890625,-1.1975603103637695,0.1066448837518692, -0.5496485233306885
115,111776829,0.7199436,0.109926224,-0.6400495,0.24481452,9.649694442749023,-1.5290628671646118,1.6212321519851685,-1.295080542564392,0.12206372618675232, -0.508821964263916
116,111793496,0.7199923,0.109954014,-0.6400129,0.24475469,9.643272399902344,-1.5200049877166748,1.6416105031967163,-1.364017128944397,0.27641865611076355, -0.7100095748901367
117,111810163,0.7200406,0.10995074,-0.640001,0.2446452,9.646498680114746,-1.499693512916565,1.608673095703125,-1.5416412353515625,0.1256238967180252, -0.7592757344245911
118,111826830,0.72008204,0.11000394,-0.6399746,0.24456783,9.633769035339355,-1.510680913925171,1.600953221321106,-1.5179623365402222,0.16013701260089874, -0.917664647102356
119,111843497,0.7201408,0.11002458,-0.63994604,0.24446045,9.622228622436523,-1.5145217180252075,1.6485391855239868,-1.573131799697876,0.23869110643863678, -0.9119143486022949
120,111860164,0.720199,0.11005653,-0.6399087,0.24437256,9.619574546813965,-1.5385136604309082,1.6089842319488525,-1.539194941520691,0.289007306098938, -0.8896570801734924
121,111876831,0.720281,0.11007603,-0.6398465,0.24428508,9.618266105651855,-1.5278358459472656,1.5875097513198853,-1.4061628580093384,0.5097375512123108, -0.86471027135849
122,111893498,0.7203704,0.11009286,-0.6397764,0.24419731,9.628255844116211,-1.5069026947021484,1.6049625873565674,-1.2719395160675049,0.5630888342857361, -0.8505082130432129
123,111910165,0.7204558,0.11010214,-0.63970274,0.24413373,9.650094985961914,-1.5000663995742798,1.6267211437225342,-1.4596166610717773,0.6336262226104736, -0.7376842498779297
124,111926832,0.7205353,0.11010746,-0.63963956,0.24406283,9.654228210449219,-1.4937947988510132,1.624060869216919,-1.6242930889129639,0.5690820217132568, -0.7522960901260376
125,111943499,0.72063035,0.110015064,-0.6396005,0.24392611,9.6471529006958,-1.4976067543029785,1.6261686086654663,-2.0836827754974365,0.5728985071182251, -0.5953800082206726
126,111960166,0.72071356,0.10995054,-0.6395572,0.24382296,9.620163917541504,-1.4944078922271729,1.6258701086044312,-1.9856501817703247,0.5496165156364441, -0.5673854351043701
127,111976833,0.72079825,0.10992811,-0.63949203,0.24375352,9.621528625488281,-1.52064847946167,1.6131343841552734,-1.9322091341018677,0.6684594750404358, -0.6597831845283508
128,111993500,0.7208817,0.10989927,-0.6394378,0.24366188,9.617116928100586,-1.4985679388046265,1.6231815814971924,-1.751895785331726,0.5501671433448792, -0.6770844459533691
129,112010167,0.7209609,0.10984277,-0.63938224,0.24359895,9.640218734741211,-1.5110223293304443,1.685712218284607,-1.9005134105682373,0.6258142590522766, -0.4311385452747345
130,112026834,0.721061,0.10977034,-0.6393052,0.2435373,9.619257926940918,-1.530142068862915,1.6456162929534912,-1.7708492279052734,0.8181528449058533, -0.37357398867607117
131,112043501,0.7211587,0.10974912,-0.6392012,0.24353093,9.609079360961914,-1.5114885568618774,1.662143349647522,-1.2572762966156006,0.8974626660346985, -0.348844975233078
132,112060168,0.7212728,0.10976645,-0.63904774,0.24358746,9.623099327087402,-1.5224519968032837,1.6631485223770142,-0.9038593173027039,1.2216553688049316, -0.3042532205581665
133,112076835,0.7213879,0.109817125,-0.6388739,0.24367984,9.610015869140625,-1.4989932775497437,1.625897765159607,-0.6047670245170593,1.303180456161499, -0.2995789349079132
134,112093502,0.72150046,0.10982575,-0.6387287,0.24372339,9.62222957611084,-1.4706158638000488,1.5788218975067139,-0.7556002140045166,1.1326639652252197, -0.2776288688182831
135,112110169,0.7215906,0.10980242,-0.6386255,0.24373767,9.63089656829834,-1.4780783653259277,1.6137951612472534,-1.1883653402328491,0.8742831945419312, -0.22559666633605957
136,112126836,0.7216363,0.10978161,-0.6385786,0.24373467,9.614167213439941,-1.4938769340515137,1.6536670923233032,-1.3401459455490112,0.3854007124900818, -0.21035708487033844
137,112143503,0.72165126,0.10978464,-0.6385961,0.24364276,9.605835914611816,-1.4598863124847412,1.6790027618408203,-1.8317689895629883,-0.15701866149902344, -0.6759575009346008
138,112160170,0.7216685,0.10971646,-0.63867474,0.24341655,9.618936538696289,-1.4800901412963867,1.7501225471496582,-2.6976191997528076,-0.46569010615348816, -0.9552127718925476
139,112176837,0.7216694,0.10960092,-0.6388059,0.2431216,9.612512588500977,-1.512281060218811,1.7546989917755127,-3.279437303543091,-0.7843505144119263, -1.0151082277297974
140,112193504,0.721621,0.10967242,-0.63893604,0.24289052,9.63983154296875,-1.4943740367889404,1.727869987487793,-2.6407463550567627,-1.1758277416229248, -1.540501356124878
141,112210171,0.7215735,0.10971901,-0.63909817,0.24258412,9.667118072509766,-1.4919253587722778,1.6710922718048096,-3.0309300422668457,-1.3722261190414429, -1.7607067823410034
142,112226838,0.7215351,0.10975585,-0.6392527,0.24227427,9.648268699645996,-1.4358084201812744,1.6577783823013306,-3.282383441925049,-1.2543436288833618, -1.7850645780563354
143,112243505,0.72157645,0.10959526,-0.6394092,0.24181035,9.684870719909668,-1.419536828994751,1.6653305292129517,-4.353672504425049,-0.8044437766075134, -1.7015414237976074
144,112260172,0.7216997,0.109254226,-0.6395333,0.24126804,9.653873443603516,-1.4440674781799316,1.6642142534255981,-5.658652305603027,-0.03750980272889137, -1.4608845710754395
145,112276839,0.72184634,0.108962946,-0.63961124,0.24075383,9.610490798950195,-1.4306445121765137,1.6461018323898315,-5.6594719886779785,0.2936047911643982, -1.682434320449829
146,112293506,0.72202325,0.10863926,-0.63969976,0.24013409,9.635502815246582,-1.4755947589874268,1.6384432315826416,-5.956477165222168,0.28848227858543396, -2.042818069458008
147,112310173,0.72215456,0.108445995,-0.63979965,0.23955977,9.653010368347168,-1.5070778131484985,1.6359549760818481,-5.968438148498535,-0.020221229642629623, -2.4527876377105713
148,112326840,0.7222923,0.108165696,-0.6399629,0.238834,9.648300170898438,-1.517045021057129,1.6399601697921753,-5.998891830444336,-0.4581984579563141, -2.5942721366882324
149,112343507,0.7224052,0.10790817,-0.6401463,0.23811662,9.709120750427246,-1.5000057220458984,1.689588189125061,-6.248629093170166,-0.6414061784744263, -2.659085273742676
150,112360174,0.72249866,0.10768694,-0.64035267,0.23737742,9.748406410217285,-1.4399842023849487,1.6081678867340088,-6.413459300994873,-0.8897340297698975, -2.918170690536499
151,112376841,0.72255415,0.10751901,-0.64057255,0.23668998,9.642343521118164,-1.4645111560821533,1.655159831047058,-5.876834392547607,-1.1792984008789062, -2.8150668144226074
152,112393508,0.7226099,0.10740436,-0.64079016,0.23598176,9.671626091003418,-1.4486678838729858,1.5901098251342773,-6.368688106536865,-1.1737276315689087, -3.2620720863342285
153,112410175,0.7226534,0.107256226,-0.64101994,0.23529069,9.590692520141602,-1.4623312950134277,1.619813084602356,-6.406184673309326,-1.2324318885803223, -2.9924213886260986
154,112426842,0.7227375,0.10699302,-0.6412939,0.23440428,9.623114585876465,-1.4555405378341675,1.6154850721359253,-7.190101146697998,-1.3471770286560059, -3.3678781986236572
155,112443509,0.7227744,0.10676521,-0.6416196,0.23350134,9.642549514770508,-1.4559537172317505,1.6519509553909302,-7.365176677703857,-1.8504536151885986, -3.5274453163146973
156,112460176,0.7227312,0.10657221,-0.6420214,0.23261736,9.620745658874512,-1.4478497505187988,1.6622514724731445,-7.136456489562988,-2.634023666381836, -3.3960912227630615
157,112476843,0.7225804,0.106600694,-0.64247376,0.23182175,9.634889602661133,-1.479904055595398,1.6224603652954102,-5.941186904907227,-3.6164371967315674, -3.774313449859619
158,112493510,0.72235656,0.106737666,-0.6429967,0.23100543,9.689227104187012,-1.4138933420181274,1.5666686296463013,-5.172255039215088,-4.538942337036133, -4.130842685699463
159,112510177,0.7220923,0.10692222,-0.6435528,0.23019637,9.691296577453613,-1.3321527242660522,1.512711524963379,-5.7310991287231445,-4.839148998260498, -4.339099407196045
160,112526844,0.72178525,0.1070141,-0.64420027,0.22930373,9.659231185913086,-1.3054877519607544,1.4717597961425781,-6.04540491104126,-5.4874186515808105, -4.103577613830566
161,112543511,0.7213991,0.107113235,-0.64494187,0.22838587,9.652463912963867,-1.3275673389434814,1.441670536994934,-6.095709323883057,-6.34912109375, -4.041121482849121
162,112560178,0.7209029,0.10729496,-0.64578336,0.22748816,9.659048080444336,-1.350748896598816,1.4982854127883911,-6.030973434448242,-7.3947224617004395, -4.108931541442871
163,112576845,0.7203236,0.10749117,-0.64674604,0.22649318,9.651999473571777,-1.3674335479736328,1.4524890184402466,-6.047724723815918,-8.527175903320312, -4.362088203430176
164,112593512,0.7196345,0.1078692,-0.6477817,0.22554214,9.65911865234375,-1.3733680248260498,1.4620295763015747,-5.1482834815979,-9.607532501220703, -4.749403476715088
165,112610179,0.7188028,0.108447894,-0.6489444,0.22457293,9.640868186950684,-1.3654578924179077,1.4740153551101685,-4.256474494934082,-11.207905769348145, -5.406152248382568
166,112626846,0.7179045,0.10925957,-0.650083,0.22375794,9.6904296875,-1.3309128284454346,1.3735896348953247,-2.55472731590271,-11.608232498168945, -5.627317905426025
167,112643513,0.71702456,0.11000018,-0.65120685,0.22294724,9.782512664794922,-1.3308863639831543,1.4413467645645142,-2.9338462352752686,-11.335737228393555, -5.331695079803467
168,112660180,0.7162077,0.110558376,-0.65229946,0.22210103,9.728569984436035,-1.2947747707366943,1.3577929735183716,-3.9025447368621826,-10.666337013244629, -4.795301914215088
169,112676847,0.71548736,0.11085537,-0.6533668,0.22113545,9.728309631347656,-1.2926478385925293,1.3122066259384155,-5.50335168838501,-9.840070724487305, -4.342750549316406
170,112693514,0.71481925,0.11104291,-0.65438086,0.22020146,9.734066009521484,-1.2981547117233276,1.2307921648025513,-5.756559371948242,-9.168915748596191, -3.8016436100006104
171,112710181,0.71424985,0.11116981,-0.65530115,0.21924646,9.738541603088379,-1.2559071779251099,1.1797852516174316,-6.048890113830566,-8.19243049621582, -3.8488223552703857
172,112726848,0.713791,0.11128322,-0.65607333,0.21837212,9.721345901489258,-1.1528419256210327,1.1775646209716797,-5.829337120056152,-6.856509685516357, -3.6943771839141846
173,112743515,0.7134377,0.111373655,-0.6567355,0.21748827,9.705488204956055,-1.154930830001831,1.268823504447937,-5.882917881011963,-5.815415859222412, -3.8708224296569824
174,112760182,0.71332926,0.11131579,-0.6571276,0.21668755,9.789745330810547,-1.181743860244751,1.39592707157135,-6.01577091217041,-3.107691764831543, -3.3592472076416016
175,112776849,0.7137279,0.11106376,-0.65689754,0.21620148,9.848234176635742,-1.2515408992767334,1.4713761806488037,-5.057342529296875,2.7570595741271973, -2.1718671321868896
176,112793516,0.71425694,0.110695966,-0.6565221,0.2157827,9.661876678466797,-1.0877676010131836,1.1015361547470093,-5.082494735717773,4.24899959564209, -1.6105906963348389
177,112810183,0.7147768,0.110149525,-0.6562329,0.21522005,9.72564697265625,-1.1288150548934937,1.2898684740066528,-6.704432010650635,3.940892457962036, -1.4227343797683716
178,112826850,0.7156237,0.10931526,-0.655614,0.21471733,9.869497299194336,-1.2712582349777222,1.5044368505477905,-7.748754024505615,7.517784595489502, -0.5744674801826477
179,112843517,0.71631736,0.10867275,-0.65509504,0.2143135,9.555034637451172,-1.164349913597107,1.0051581859588623,-6.267453670501709,6.094395160675049, -0.6396515965461731
180,112860184,0.71656317,0.10833099,-0.6550449,0.2138175,9.653027534484863,-1.0851413011550903,1.0573409795761108,-5.528450012207031,1.2635064125061035, -1.433760404586792
181,112876851,0.7165397,0.10809281,-0.65534675,0.21309058,9.827842712402344,-1.0473941564559937,1.2323840856552124,-6.406800270080566,-1.9950374364852905, -2.3762316703796387
182,112893518,0.71630335,0.107793,-0.6559122,0.21229568,9.78525161743164,-1.1399900913238525,1.2379320859909058,-7.318536758422852,-4.203378200531006, -1.9237191677093506
183,112910185,0.71596706,0.10738897,-0.6566249,0.2114306,9.760591506958008,-1.1408036947250366,1.23053777217865,-8.26966381072998,-5.283298969268799, -1.5361732244491577
184,112926852,0.71540403,0.107114375,-0.65754414,0.21061635,9.818325996398926,-1.1974825859069824,1.422063946723938,-7.641386032104492,-7.463287830352783, -1.3948169946670532
185,112943519,0.7143038,0.106844105,-0.65904295,0.20980193,9.62952709197998,-1.1727590560913086,1.7038373947143555,-7.990335464477539,-12.771781921386719, -0.19862662255764008
186,112960186,0.7125091,0.10664738,-0.66134906,0.20874551,9.635259628295898,-1.3594905138015747,2.0163822174072266,-9.469720840454102,-20.18865203857422, -0.12947240471839905
187,112976853,0.7096422,0.10715965,-0.6647003,0.2076016,9.734070777893066,-1.4832714796066284,2.263453245162964,-7.176882743835449,-31.308372497558594, -1.4853370189666748
188,112993520,0.70491964,0.10960047,-0.66961205,0.20662953,9.830650329589844,-1.5892764329910278,2.610769510269165,2.270220994949341,-50.11306381225586, -5.654821872711182
189,113010187,0.698328,0.1132056,-0.67625,0.2054471,10.522549629211426,-0.955311119556427,3.561744451522827,5.846089839935303,-68.98570251464844, -8.086668968200684
190,113026854,0.69034076,0.11640373,-0.684266,0.20410776,11.383333206176758,-0.9184798002243042,3.622502088546753,2.28920841217041,-81.79188537597656, -3.862640142440796
191,113043521,0.68158877,0.11837623,-0.6932278,0.20213605,11.733842849731445,-0.560473620891571,3.0120537281036377,-7.330418586730957,-88.8159408569336, 0.7784493565559387
192,113060188,0.6724617,0.119303435,-0.7024988,0.20014387,11.729945182800293,-1.2918225526809692,2.4676902294158936,-12.390294075012207,-90.76515197753906, 6.508693695068359
193,113076855,0.6636287,0.11971421,-0.7113568,0.1980838,11.215150833129883,-0.8685913681983948,2.1486518383026123,-14.765411376953125,-86.90731048583984, 7.972806453704834
194,113093522,0.655777,0.119163744,-0.7195658,0.19488901,10.674018859863281,-0.8718187808990479,1.7597371339797974,-24.600324630737305,-78.89659118652344, 5.667900562286377
195,113110189,0.6503446,0.11808409,-0.72518194,0.19292353,9.657163619995117,-2.104503631591797,5.267487525939941,-19.479312896728516,-53.62459182739258, 8.501383781433105
196,113126856,0.6478256,0.12060748,-0.726081,0.1964239,8.36763858795166,0.05104989558458328,6.721938610076904,27.71674919128418,-18.651382446289062, 7.249582290649414
197,113143523,0.6499344,0.12252402,-0.7231019,0.19924074,7.890222549438477,0.7852131724357605,7.13114595413208,22.806142807006836,21.619977951049805, -2.1425094604492188
198,113160190,0.65675503,0.12350439,-0.715981,0.20196727,7.845274448394775,0.3193170130252838,7.234574317932129,19.728635787963867,64.38225555419922, -7.732073783874512
199,113176857,0.6678028,0.122921064,-0.70532095,0.20359856,8.511034965515137,0.7279684543609619,6.489960670471191,8.184686660766602,102.07342529296875, -13.79185676574707
200,113193524,0.68201447,0.12008152,-0.6919878,0.20393528,9.350655555725098,-0.06727033853530884,5.246137619018555,-7.546903133392334,131.43301391601562, -15.448168754577637
201,113210191,0.6979648,0.1160511,-0.6765186,0.20420581,9.905660629272461,-0.566429853439331,4.199578285217285,-11.835007667541504,151.075439453125, -14.326251983642578
202,113226858,0.7142973,0.11190414,-0.6597029,0.20505868,10.419422149658203,-0.8797440528869629,3.241720199584961,-7.77674674987793,159.73292541503906, -12.638849258422852
203,113243525,0.7300534,0.108019754,-0.64243037,0.20648809,10.789941787719727,-1.0485879182815552,2.2069196701049805,-2.183307409286499,159.2767791748047, -10.522217750549316
204,113260192,0.74472696,0.10440806,-0.6253705,0.20830892,10.982930183410645,-1.0542136430740356,1.382354736328125,1.9738337993621826,153.26512145996094, -8.00553035736084
205,113276859,0.75813776,0.10118871,-0.60888404,0.21035276,10.826408386230469,-0.7971958518028259,0.7002606391906738,6.049736022949219,144.45693969726562, -6.110795497894287
206,113293526,0.77032894,0.09786034,-0.59329784,0.21216589,10.709409713745117,-1.07020902633667,0.35097506642341614,4.370197772979736,134.7507781982422, -4.33475399017334
207,113310193,0.78149915,0.09419787,-0.5784176,0.21405403,10.495931625366211,-1.3374245166778564,-0.9112380743026733,2.580812931060791,127.5467529296875, -0.5624486804008484
208,113326860,0.7911319,0.09109575,-0.56499296,0.21585922,10.190145492553711,-1.3962939977645874,-1.7134267091751099,3.9534530639648438,112.99208068847656, -0.06682654470205307
209,113343527,0.7988289,0.08876907,-0.5538283,0.21740982,9.369600296020508,-1.7014878988265991,-2.2997939586639404,4.822573661804199,92.18293762207031, -0.25677502155303955
210,113360194,0.8046642,0.08714464,-0.5449587,0.21895549,9.598687171936035,-1.6147050857543945,-2.7435312271118164,6.254024505615234,71.76548767089844, 1.1457090377807617
211,113376861,0.80864894,0.08556097,-0.5390923,0.21942092,9.262338638305664,-0.8569838404655457,-3.7450571060180664,-1.0856928825378418,47.8672981262207, -0.4840583801269531
212,113393528,0.8104933,0.0835413,-0.5370802,0.21832687,8.680534362792969,-1.5085946321487427,-4.5877227783203125,-13.907363891601562,18.639619827270508, -2.0848264694213867
213,113410195,0.81019306,0.08054812,-0.5386459,0.21670225,9.061811447143555,-3.9689016342163086,-4.34135103225708,-25.408130645751953,-7.648829460144043, 3.772753953933716
214,113426862,0.8070613,0.07767415,-0.5445743,0.21461087,9.624530792236328,-2.8668599128723145,-4.506688117980957,-31.21561050415039,-42.487579345703125, 7.249215602874756
215,113443529,0.8033917,0.07696414,-0.55057424,0.2133219,11.254051208496094,-0.48570963740348816,9.233124732971191,-15.946044921875,-47.25514221191406, 4.330293655395508
216,113460196,0.7980588,0.080435485,-0.55635667,0.2170243,10.658347129821777,-3.240250825881958,3.464594841003418,27.206233978271484,-56.04680252075195, 18.43289566040039
217,113476863,0.79174346,0.08368781,-0.5636999,0.21995746,11.840459823608398,0.9179455041885376,0.2410380244255066,21.353412628173828,-68.42969512939453, 17.293529510498047
218,113493530,0.7852186,0.08096896,-0.57326514,0.21964273,11.746174812316895,-2.5370492935180664,1.6090630292892456,-26.976301193237305,-73.97464752197266, 24.451412200927734
219,113510197,0.77736306,0.08222551,-0.581796,0.2246315,10.743138313293457,-1.832589030265808,0.2993100881576538,17.84008026123047,-76.58291625976562, 38.82098388671875
220,113526864,0.7710404,0.08075331,-0.5899366,0.22572178,10.221893310546875,-0.6035940647125244,1.1225589513778687,-12.619071006774902,-66.19893646240234, 26.260082244873047
221,113543531,0.7656899,0.07984993,-0.59615916,0.22789766,10.42398452758789,-1.9082177877426147,0.9902902245521545,-2.7888216972351074,-52.27080154418945, 27.151288986206055
222,113560198,0.76165515,0.07659516,-0.60165626,0.22808857,10.346939086914062,-1.2909151315689087,1.7014189958572388,-22.920166015625,-40.365447998046875, 23.83833122253418
223,113576865,0.758429,0.07245711,-0.6063099,0.22786793,10.145733833312988,-1.3068867921829224,1.6336746215820312,-28.30987548828125,-31.392833709716797, 23.64468002319336
224,113593532,0.755504,0.06833398,-0.61017406,0.22854266,10.026402473449707,-1.2351378202438354,1.7880616188049316,-23.487672805786133,-25.543067932128906, 27.37883758544922
225,113610199,0.7526567,0.06522487,-0.61320186,0.23073223,9.709457397460938,-1.6375322341918945,1.9461287260055542,-10.689478874206543,-21.706968307495117, 30.473302841186523
226,113626866,0.7498336,0.06287725,-0.61570835,0.23387861,9.4409761428833,-1.7695046663284302,2.3533456325531006,-1.882414698600769,-19.674659729003906, 31.94904327392578
227,113643533,0.7472111,0.059608035,-0.6184298,0.23593901,9.308906555175781,-1.7035716772079468,2.7978763580322266,-11.755107879638672,-18.912240982055664, 29.99976921081543
228,113660200,0.7447981,0.054926004,-0.6216114,0.2363433,9.122157096862793,-2.15779185295105,2.783149003982544,-27.009326934814453,-18.782541275024414, 27.329225540161133
229,113676867,0.7423105,0.049951725,-0.62523437,0.2357162,8.839611053466797,-2.923525810241699,2.798283338546753,-33.83533477783203,-21.261070251464844, 23.52419090270996
230,113693534,0.73927706,0.047193598,-0.62897646,0.2358622,8.919743537902832,-3.461514949798584,1.9917491674423218,-19.291175842285156,-27.56344223022461, 18.80948257446289
231,113710201,0.73584765,0.04632334,-0.63269836,0.23680222,9.53104019165039,-2.720693588256836,1.6492525339126587,-6.230496406555176,-31.949234008789062, 15.22559642791748
232,113726868,0.7319666,0.04686533,-0.63647795,0.23858854,9.639707565307617,-2.3888235092163086,1.506779670715332,4.673029899597168,-36.22856140136719, 14.103060722351074
233,113743535,0.72801024,0.04753327,-0.64025545,0.24044688,9.829325675964355,-2.1026453971862793,1.5728970766067505,5.656064987182617,-36.71772766113281, 14.03602409362793
234,113760202,0.7243617,0.047230765,-0.64395577,0.2416412,9.929316520690918,-1.935717225074768,1.5805646181106567,-2.299121856689453,-33.52846908569336, 14.42935848236084
235,113776869,0.7210987,0.045977473,-0.64752966,0.24209121,9.696357727050781,-2.283935785293579,1.3289445638656616,-10.30497932434082,-29.834089279174805, 14.269091606140137
236,113793536,0.7181038,0.04437335,-0.6508912,0.2422777,9.558440208435059,-2.563321113586426,1.1664392948150635,-12.98944091796875,-27.0650577545166, 14.016853332519531
237,113810203,0.71520364,0.0430491,-0.65400773,0.2427024,9.492953300476074,-2.600437641143799,1.2797185182571411,-10.179584503173828,-25.806686401367188, 13.705381393432617
238,113826870,0.7122841,0.04183583,-0.6570971,0.24315533,9.371298789978027,-2.652961015701294,1.3863375186920166,-9.596211433410645,-25.89490509033203, 13.349489212036133
239,113843537,0.7092861,0.04062917,-0.66029567,0.24345885,9.321635246276855,-2.651214838027954,1.4882248640060425,-10.395297050476074,-26.844011306762695, 12.750603675842285
240,113860204,0.7061359,0.039195072,-0.6637831,0.24336797,9.290273666381836,-2.800591230392456,1.6022275686264038,-13.797272682189941,-28.669334411621094, 12.189435005187988
241,113876871,0.702755,0.037438363,-0.667661,0.24282266,9.201969146728516,-2.705984592437744,1.5291101932525635,-18.06171989440918,-31.215377807617188, 11.941975593566895
242,113893538,0.69905126,0.035398014,-0.67199284,0.24186786,9.255533218383789,-2.6621875762939453,1.434625506401062,-21.93039894104004,-34.561279296875, 11.931464195251465
243,113910205,0.69493014,0.033217236,-0.6767919,0.24066909,9.233360290527344,-2.7716774940490723,1.1845871210098267,-24.462520599365234,-38.5698356628418, 12.219868659973145
244,113926872,0.69029766,0.031307235,-0.68205076,0.23940748,9.220162391662598,-2.9717888832092285,0.996692955493927,-24.160337448120117,-43.609073638916016, 11.613296508789062
245,113943539,0.6851317,0.02991341,-0.6877144,0.23821953,9.310600280761719,-2.95371413230896,0.8001341223716736,-21.8772029876709,-48.89149475097656, 10.510978698730469
246,113960206,0.6796183,0.028984271,-0.69356847,0.23715407,9.527623176574707,-2.9163761138916016,0.6796984076499939,-19.361236572265625,-52.17622375488281, 9.502935409545898
247,113976873,0.67391145,0.028302573,-0.6995028,0.23608932,9.724150657653809,-2.8229191303253174,0.46050047874450684,-18.218963623046875,-53.91253662109375, 8.669903755187988
248,113993540,0.6681836,0.027796566,-0.70531857,0.23512495,9.85828971862793,-2.740394353866577,0.30465930700302124,-16.771554946899414,-53.725093841552734, 8.316507339477539
249,114010207,0.6624226,0.027106913,-0.71110815,0.23406582,9.775557518005371,-2.6548233032226562,0.16929858922958374,-17.962751388549805,-53.517005920410156, 8.842995643615723
250,114026874,0.65643346,0.02619915,-0.71711224,0.23272055,9.696035385131836,-2.7909510135650635,0.15815073251724243,-20.60405158996582,-55.340065002441406, 9.037471771240234
251,114043541,0.6501209,0.025225885,-0.72339964,0.23108335,9.599658966064453,-3.038658618927002,0.249537855386734,-22.69407844543457,-58.191429138183594, 8.628661155700684
252,114060208,0.6434671,0.024121111,-0.73007894,0.22880784,9.670973777770996,-3.1537346839904785,0.12297289818525314,-26.55208969116211,-61.72265625, 7.019331455230713
253,114076875,0.63632476,0.022895645,-0.7372951,0.22574878,9.661121368408203,-3.037075996398926,-0.14923833310604095,-31.792274475097656,-66.52117919921875, 5.013469219207764
254,114093542,0.6285726,0.021744533,-0.74518746,0.2216294,9.814489364624023,-2.5316455364227295,-0.392803430557251,-37.80403518676758,-72.8809585571289, 1.0529438257217407
255,114110209,0.6201017,0.021052942,-0.7537153,0.21666574,10.484691619873047,-2.57635235786438,0.19375135004520416,-41.00947570800781,-80.1626968383789, -3.7351555824279785
256,114126876,0.61076206,0.021031767,-0.76272774,0.21159855,10.980154991149902,-2.6077542304992676,0.11760872602462769,-39.29789352416992,-87.80904388427734, -6.255581855773926
257,114143543,0.6005309,0.02157154,-0.77219427,0.20643014,11.639853477478027,-2.4520950317382812,0.24845820665359497,-38.01938247680664,-95.29692840576172, -8.225455284118652
258,114160210,0.58949834,0.023146234,-0.782055,0.20086333,13.00257396697998,-2.6350107192993164,1.0626038312911987,-36.31765365600586,-102.80463409423828, -14.12275218963623
259,114176877,0.5774626,0.025910083,-0.7922107,0.19562179,13.798834800720215,-2.3269824981689453,1.9589635133743286,-30.0219669342041,-111.13859558105469, -17.712467193603516
260,114193544,0.5645547,0.02813385,-0.8028454,0.18954137,14.611387252807617,-1.4261209964752197,2.6605353355407715,-37.25627517700195,-117.42572021484375, -16.771507263183594
261,114210211,0.55069715,0.03002175,-0.8137452,0.18344066,16.192745208740234,-1.6818140745162964,3.422656297683716,-38.85932922363281,-123.5237808227539, -13.598567962646484
262,114226878,0.5354724,0.030773876,-0.8250786,0.17767255,16.89239501953125,-0.9054659605026245,5.579176425933838,-41.596839904785156,-131.64154052734375, -4.060628414154053
263,114243545,0.5186725,0.028845128,-0.8375029,0.16951583,15.428056716918945,0.4881230592727661,4.343048095703125,-66.05982208251953,-142.26174926757812, 4.642736911773682
264,114260212,0.49995643,0.025486981,-0.85108465,0.15826885,14.023415565490723,-0.25866901874542236,-0.12802311778068542,-89.92639923095703,-156.76588439941406, 4.4605231285095215
265,114276879,0.4802997,0.02248771,-0.8643691,0.1472168,13.494221687316895,-1.6769976615905762,-0.8052149415016174,-87.02890014648438,-161.83535766601562, 4.083272933959961
266,114293546,0.4623644,0.0153732775,-0.87644804,0.13349801,10.533007621765137,-4.5467047691345215,-0.9103817939758301,-115.50747680664062,-144.0922088623047, 17.811752319335938
267,114310213,0.4481272,0.006097764,-0.8857475,0.12081608,8.654218673706055,-5.453601837158203,2.4996397495269775,-114.03811645507812,-111.05293273925781, 30.307769775390625
268,114326880,0.43951637,-0.0025719823,-0.8916841,0.10825063,5.763033866882324,-2.688232660293579,0.9433475136756897,-109.04078674316406,-67.17725372314453, 21.979467391967773
269,114343547,0.4378779,-0.008571565,-0.8937096,0.09732772,7.837955474853516,-2.8409414291381836,7.591447830200195,-87.93333435058594,-14.762832641601562, 5.337856292724609
270,114360214,0.44372985,-0.011878175,-0.8915608,0.08990119,4.3504438400268555,-0.8146061301231384,6.425562381744385,-55.21749496459961,41.43394470214844, -5.540107250213623
271,114376881,0.45532054,-0.0128123015,-0.8862583,0.08405582,5.566950798034668,-1.7497532367706299,2.9340569972991943,-35.91560745239258,84.37718963623047, -18.590734481811523
272,114393548,0.4715329,-0.011995047,-0.8779027,0.082461454,6.6559953689575195,-2.8041915893554688,2.5831010341644287,-2.39269757270813,120.5373764038086, -18.403371810913086
273,114410215,0.49162582,-0.0076904534,-0.8663548,0.08760306,7.217074394226074,-2.5720033645629883,1.6908625364303589,51.6565055847168,151.60206604003906, -19.586292266845703
274,114426882,0.5148329,-0.0011903166,-0.8519306,0.09570787,8.469648361206055,-1.98795485496521,1.2604496479034424,78.5989990234375,178.25253295898438, -24.356365203857422
275,114443549,0.5405868,0.0062318426,-0.8346811,0.10504753,9.492210388183594,-2.371997594833374,0.6152147054672241,90.96695709228516,202.42041015625, -26.976945877075195
276,114460216,0.5686566,0.013818947,-0.8145311,0.113920875,10.194750785827637,-2.129861831665039,0.06515881419181824,90.89164733886719,226.24359130859375, -31.395973205566406
277,114476883,0.5986521,0.019636821,-0.79184914,0.119185835,11.082111358642578,-2.066067695617676,-0.4431439936161041,65.56364440917969,247.89376831054688, -37.29536437988281
278,114493550,0.6298258,0.022282567,-0.7670233,0.12040958,12.155723571777344,-2.2859671115875244,-0.9951002597808838,32.10651397705078,265.1415100097656, -37.89895248413086
279,114510217,0.66103935,0.022502195,-0.74036765,0.11990267,12.719285011291504,-2.878573179244995,-1.593026041984558,13.992318153381348,275.0150451660156, -32.93651580810547
280,114526884,0.6913696,0.022862773,-0.7117755,0.12190626,13.562871932983398,-3.2219672203063965,-2.107295274734497,29.16524314880371,279.640380859375, -21.864429473876953
281,114543551,0.71985495,0.02532576,-0.68174314,0.12803899,13.743334770202637,-2.675204038619995,-3.6683096885681152,60.88862991333008,276.4468688964844, -11.23832893371582
282,114560218,0.7460848,0.029121982,-0.6510051,0.1367552,14.001886367797852,-1.9823517799377441,-2.900810718536377,80.63835144042969,268.84466552734375, -2.826723575592041
283,114576885,0.77050877,0.033383545,-0.6199566,0.14441513,13.662188529968262,-1.0604665279388428,-2.6614432334899902,78.96794891357422,261.9163513183594, -8.653064727783203
284,114593552,0.79355854,0.03527366,-0.5890261,0.14855719,14.270696640014648,-1.7379032373428345,-3.4840989112854004,51.617515563964844,257.21759033203125, -15.742645263671875
285,114610219,0.81423104,0.035100285,-0.5595735,0.15057704,14.740743637084961,-2.325406789779663,-7.475585460662842,30.860095977783203,241.41456604003906, -16.180105209350586
286,114626886,0.8312257,0.03504248,-0.5332829,0.15311883,13.575715065002441,-2.9527781009674072,-7.359048843383789,31.19249153137207,210.02670288085938, -9.16504192352295
287,114643553,0.8439701,0.03750406,-0.51103485,0.15859246,11.32875919342041,-2.9774460792541504,-9.737110137939453,53.18568420410156,169.85232543945312, 3.7539923191070557
288,114660220,0.85127443,0.04264554,-0.4960469,0.16568257,10.626018524169922,-2.67172908782959,-12.36262035369873,67.98920440673828,106.61592102050781, 11.47254467010498
289,114676887,0.8524461,0.048548985,-0.49101084,0.17287926,9.67613410949707,-2.7109742164611816,-13.813958168029785,63.36859130859375,27.2030029296875, 19.35377311706543
290,114693554,0.8482845,0.055873808,-0.49504536,0.17950419,8.89154052734375,-3.4095711708068848,-13.546466827392578,60.87294006347656,-45.234928131103516, 20.50823402404785
291,114710221,0.84087753,0.06211837,-0.50449544,0.18587895,9.97041130065918,-5.982235431671143,-9.502067565917969,48.39983367919922,-86.05706024169922, 28.71479606628418
292,114726888,0.8326753,0.071898594,-0.5139354,0.19326949,12.64497184753418,-0.620746374130249,9.368436813354492,72.85856628417969,-92.39260864257812, 23.15473175048828
293,114743555,0.8268662,0.07734254,-0.52103055,0.19707298,9.62977123260498,5.425241947174072,10.028108596801758,37.26520538330078,-66.6114501953125, 13.610928535461426
294,114760222,0.8210407,0.07238698,-0.5322023,0.19342533,14.82770824432373,0.3780522346496582,-1.8843536376953125,-54.18576431274414,-79.8759765625, 10.89228343963623
295,114776889,0.81374204,0.06064311,-0.54654306,0.1882484,15.219314575195312,-6.648281097412109,-1.6516470909118652,-101.5803451538086,-94.61250305175781, 30.69235610961914
296,114793556,0.80309284,0.05793953,-0.5607603,0.1929587,15.326881408691406,-2.780532121658325,-2.456279754638672,-12.174093246459961,-113.83622741699219, 56.17015838623047
297,114810223,0.79392266,0.05340238,-0.5737927,0.19390018,9.497186660766602,0.2813609540462494,1.0292342901229858,-35.78757858276367,-100.39291381835938, 39.95934295654297
298,114826890,0.78607136,0.052629452,-0.5831818,0.19804293,11.090044021606445,-2.831300973892212,0.04033838212490082,1.7636816501617432,-79.07555389404297, 39.535133361816406
299,114843557,0.77932125,0.05016937,-0.59151006,0.20064247,9.57815933227539,-2.2156262397766113,1.4984824657440186,-12.455409049987793,-67.08616638183594, 36.03357696533203
300,114860224,0.7734926,0.04816719,-0.59895337,0.20160428,8.689006805419922,-1.8970359563827515,1.6238656044006348,-15.738593101501465,-59.75947189331055, 23.79823112487793
301,114876891,0.7682911,0.046370327,-0.60553193,0.20226121,9.887737274169922,-2.1028733253479004,1.8661606311798096,-14.899917602539062,-52.94913101196289, 20.16449737548828
302,114893558,0.7625269,0.04647662,-0.6115145,0.20601611,10.203680992126465,-2.517683267593384,1.719259262084961,9.07067584991455,-53.791690826416016, 29.184921264648438
303,114910225,0.75627273,0.05028811,-0.61655504,0.21303219,9.415236473083496,-2.3477847576141357,1.9595261812210083,43.71436309814453,-55.109527587890625, 31.063085556030273
304,114926892,0.75050145,0.053406104,-0.6212776,0.21888317,9.820963859558105,-1.9621515274047852,2.293841600418091,35.47805404663086,-50.80525207519531, 27.092039108276367
305,114943559,0.7452002,0.05351891,-0.62653124,0.22197093,9.647249221801758,-1.6665327548980713,2.3414878845214844,7.198160648345947,-48.04854965209961, 25.147411346435547
306,114960226,0.74036825,0.050700508,-0.6324094,0.22213234,9.292871475219727,-1.3498409986495972,2.2343807220458984,-21.554244995117188,-45.85284423828125, 22.305017471313477
307,114976893,0.7354912,0.04630695,-0.63886964,0.2208033,9.766952514648438,-2.207268714904785,1.847023367881775,-36.93217468261719,-47.15126037597656, 21.867727279663086
308,114993560,0.730283,0.042671498,-0.64539456,0.21984507,9.437712669372559,-2.775815010070801,1.290205717086792,-31.461528778076172,-49.97860336303711, 20.944135665893555
309,115010227,0.72504485,0.040791027,-0.6514076,0.21980512,9.180394172668457,-2.890305519104004,0.9611842036247253,-17.787342071533203,-49.92835235595703, 17.648527145385742
310,115026894,0.7199134,0.040221386,-0.65681547,0.22068208,9.603123664855957,-2.541577100753784,0.7700793147087097,-6.255753993988037,-48.15776062011719, 15.996243476867676
311,115043561,0.71493614,0.03963758,-0.6619808,0.22153269,9.860904693603516,-2.203660488128662,0.8997805714607239,-6.11710786819458,-46.243526458740234, 15.620646476745605
312,115060228,0.7101604,0.0381917,-0.667109,0.2217649,9.82042121887207,-2.2513513565063477,1.0119818449020386,-13.16746997833252,-44.003395080566406, 16.19489860534668
313,115076895,0.70552754,0.035968933,-0.6722702,0.22133751,9.539929389953613,-2.5711867809295654,1.1881515979766846,-20.07295036315918,-42.50788497924805, 16.33806800842285
314,115093562,0.70091456,0.033341162,-0.67745584,0.22059216,9.525818824768066,-2.5758533477783203,0.8776927590370178,-23.54770851135254,-42.02001190185547, 16.645978927612305
315,115110229,0.6962428,0.03020795,-0.682796,0.21937022,9.577848434448242,-2.4602644443511963,0.5624909996986389,-28.426660537719727,-42.395198822021484, 16.831806182861328
316,115126896,0.69134575,0.026907122,-0.6883525,0.21791734,9.350213050842285,-2.6678264141082764,0.546189546585083,-30.598939895629883,-44.291748046875, 16.907644271850586
317,115143563,0.68616897,0.024172764,-0.69401747,0.21662785,9.366671562194824,-2.8452706336975098,0.5557317733764648,-27.20954704284668,-46.97146224975586, 15.447827339172363
318,115160230,0.6807541,0.021987714,-0.69978315,0.21539304,9.576762199401855,-2.6992692947387695,0.3740729093551636,-24.624176025390625,-49.36873245239258, 13.448030471801758
319,115176897,0.6752445,0.019931803,-0.7055958,0.21396802,9.728607177734375,-2.4343347549438477,0.06845147162675858,-24.868953704833984,-50.314781188964844, 12.09359359741211
320,115193564,0.6695951,0.017666483,-0.7115753,0.21211064,9.690329551696777,-2.2744972705841064,-0.09257246553897858,-28.17181396484375,-51.52946853637695, 11.34614086151123
321,115210231,0.6637174,0.015358813,-0.71777225,0.20987311,9.883464813232422,-2.802062749862671,0.08130444586277008,-30.59515380859375,-53.620849609375, 10.184346199035645
322,115226898,0.65745133,0.013425187,-0.7242092,0.2076021,9.854519844055176,-2.9214468002319336,0.25115540623664856,-29.277681350708008,-57.222774505615234, 8.778261184692383
323,115243565,0.6506532,0.011696758,-0.7311185,0.20488878,9.802427291870117,-3.1789021492004395,0.13926348090171814,-31.206178665161133,-62.36634063720703, 6.5659990310668945
324,115260232,0.6432461,0.0103613995,-0.7385189,0.2017847,10.004159927368164,-2.833763360977173,-0.19183841347694397,-32.06404113769531,-68.24442291259766, 3.7373838424682617
325,115276899,0.6350313,0.009562193,-0.74658257,0.19813703,10.446322441101074,-2.4347898960113525,-0.23401549458503723,-33.32963943481445,-76.09143829345703, -0.21152760088443756
326,115293566,0.6259205,0.00926277,-0.7552182,0.19437927,10.737353324890137,-2.727956771850586,0.0933842808008194,-32.445518493652344,-83.91032409667969, -1.9754230976104736
327,115310233,0.61581355,0.009242518,-0.764566,0.19007169,11.051566123962402,-2.7151479721069336,0.21876372396945953,-35.00556945800781,-92.6092758178711, -4.396609783172607
328,115326900,0.6045296,0.009367726,-0.77481574,0.18470766,11.71021556854248,-2.5986218452453613,0.8741276860237122,-41.06886672973633,-102.94071197509766, -8.017738342285156
329,115343567,0.5919474,0.010523908,-0.7860221,0.17792417,13.992842674255371,-2.62925124168396,2.044050455093384,-45.505123138427734,-115.33230590820312, -17.670074462890625
330,115360234,0.57739186,0.012636972,-0.798028,0.17207699,14.880270004272461,-2.0863053798675537,3.167243003845215,-37.423770904541016,-130.50836181640625, -16.513532638549805
331,115376901,0.56093615,0.014110847,-0.8110913,0.16517465,16.39166831970215,-0.28591015934944153,2.9653420448303223,-46.87773895263672,-144.67457580566406, -14.790862083435059
332,115393568,0.54249394,0.015406526,-0.8248052,0.15861788,17.878705978393555,-1.034628987312317,5.716590881347656,-46.2020263671875,-158.2518768310547, -10.026618957519531
333,115410235,0.5231764,0.016203405,-0.83823925,0.15290298,17.511661529541016,-0.03950665146112442,6.0766401290893555,-42.928104400634766,-161.86959838867188, -3.026580333709717
334,115426902,0.5040921,0.014762397,-0.8512414,0.14512561,15.45223331451416,-0.6211881041526794,3.23051118850708,-62.46120071411133,-157.19998168945312, 2.2794463634490967
335,115443569,0.4864094,0.009711215,-0.86315817,0.1351664,14.416643142700195,-2.820568561553955,-0.22563223540782928,-86.81428527832031,-142.125, 14.41434383392334
336,115460236,0.46899417,0.00064104167,-0.8745844,0.12307085,10.052706718444824,-3.531939744949341,-2.6964948177337646,-112.52275848388672,-135.4985809326172, 30.839004516601562
337,115476903,0.4548188,-0.011214725,-0.88362247,0.11056985,8.98495864868164,-3.6491200923919678,2.3922858238220215,-121.96794891357422,-106.04093933105469, 43.47178268432617
338,115493570,0.44511077,-0.02303668,-0.8900288,0.09588913,4.637887954711914,-1.5912655591964722,-1.354298710823059,-132.83203125,-70.71940612792969, 33.183292388916016
339,115510237,0.44291443,-0.03339842,-0.89247733,0.07871276,9.230839729309082,-3.5627191066741943,7.225027561187744,-139.8575439453125,-13.243499755859375, 12.22136116027832
340,115526904,0.44851544,-0.040293038,-0.89017856,0.0692291,4.332133769989014,-2.643742322921753,7.889465808868408,-77.82550048828125,45.111328125, 11.167708396911621
341,115543571,0.46014395,-0.042384334,-0.8844916,0.06438714,4.613649845123291,-2.056905746459961,3.166975259780884,-31.39944839477539,88.64771270751953, -5.911134719848633
342,115560238,0.47646943,-0.040763497,-0.8759359,0.063652575,7.004487991333008,-2.065486192703247,3.018840789794922,7.924766540527344,123.32501220703125, -16.770116806030273
343,115576905,0.49664766,-0.035941117,-0.8643705,0.07009481,7.70496129989624,-3.261042594909668,2.331598997116089,64.0046615600586,152.82867431640625, -13.38305377960205
344,115593572,0.5202526,-0.027250545,-0.8496227,0.08207273,8.1394681930542,-1.6151931285858154,2.245203971862793,112.46155548095703,180.70108032226562, -18.329730987548828
345,115610239,0.5467959,-0.01723245,-0.83174276,0.09445365,9.053267478942871,-1.3414254188537598,1.6188074350357056,121.8715591430664,208.128173828125, -25.650602340698242
346,115626906,0.5761269,-0.0065873237,-0.8105006,0.10546781,9.784772872924805,-1.2789747714996338,1.1404473781585693,118.92374420166016,236.37049865722656, -35.71234130859375
347,115643573,0.60788655,0.002563192,-0.78610796,0.111810446,10.788280487060547,-1.2436903715133667,0.7503684759140015,89.35901641845703,263.6064147949219, -47.442867279052734
348,115660240,0.64128065,0.008401213,-0.75890845,0.112901606,12.149469375610352,-1.8297431468963623,-0.2557068467140198,49.25381851196289,286.572265625, -52.75410079956055
349,115676907,0.6753563,0.010986062,-0.72894853,0.11138777,13.445625305175781,-2.6130802631378174,-0.5770226716995239,23.420089721679688,304.66168212890625, -47.953128814697266
350,115693574,0.7090209,0.010632346,-0.6964913,0.10989299,14.943440437316895,-3.5745689868927,-1.7383126020431519,11.813949584960938,316.4641418457031, -33.04267120361328
351,115710241,0.74090534,0.012289013,-0.66178465,0.1137952,14.664369583129883,-4.533860206604004,-3.0159192085266113,49.30899429321289,317.8531188964844, -15.226131439208984
352,115726908,0.7707135,0.017334102,-0.62521935,0.12166008,15.166093826293945,-2.6973578929901123,-2.5300488471984863,93.62987518310547,314.82733154296875, -7.456170082092285
353,115743575,0.798091,0.020359078,-0.58874303,0.12656236,16.85770606994629,-1.7261279821395874,-3.242185592651367,69.10957336425781,305.5857849121094, -12.115623474121094
354,115760242,0.8221581,0.019370344,-0.5544348,0.12760527,15.939440727233887,-3.4713456630706787,-7.779294490814209,24.03729820251465,284.1181945800781, -15.761077880859375
355,115776909,0.8415652,0.019164486,-0.52395076,0.12990935,14.472126960754395,-5.06459379196167,-9.79905891418457,30.60017967224121,244.54623413085938, -7.07131290435791
356,115793576,0.855766,0.021221183,-0.4988014,0.1356888,12.193918228149414,-3.587599992752075,-11.790440559387207,52.22909164428711,193.7415313720703, 10.157757759094238
357,115810243,0.863648,0.023464302,-0.48310256,0.14203387,10.256634712219238,-2.3982772827148438,-14.284658432006836,47.45546340942383,116.78641510009766, 20.067415237426758
358,115826910,0.8645415,0.027573468,-0.4792516,0.14874722,8.411541938781738,-2.7171716690063477,-16.536165237426758,49.397830963134766,21.913002014160156, 24.756471633911133
359,115843577,0.8600113,0.033978265,-0.4849991,0.15492634,9.644250869750977,-2.865590810775757,-13.121352195739746,52.59021759033203,-54.98839569091797, 21.330039978027344
360,115860244,0.8522103,0.039591666,-0.49643883,0.1603713,8.327078819274902,-3.1655092239379883,-11.050281524658203,40.2474250793457,-98.47559356689453, 24.381101608276367
361,115876911,0.845112,0.053459484,-0.5045398,0.16842647,13.4110746383667,2.3284974098205566,16.7645263671875,101.09007263183594,-84.57054138183594, 9.733698844909668
362,115893578,0.83902794,0.052082233,-0.51516044,0.1671213,13.903092384338379,2.5310251712799072,1.8494130373001099,-23.335599899291992,-81.68501281738281, 8.057174682617188
363,115910245,0.83067626,0.03899755,-0.53188646,0.15985338,19.34037971496582,-12.029071807861328,-6.210172176361084,-118.234619140625,-113.50408935546875, 20.01224708557129
364,115926912,0.8176239,0.04532759,-0.5486576,0.16855727,15.80599594116211,-0.5718250870704651,-1.429776906967163,52.436283111572266,-147.67141723632812, 45.18153762817383
365,115943579,0.80725944,0.037562378,-0.56505954,0.16621967,11.084288597106934,4.780289649963379,0.7066752910614014,-68.85440063476562,-122.37574768066406, 33.06614685058594
366,115960246,0.7989917,0.030931635,-0.57732344,0.16538851,10.886767387390137,-4.10279655456543,-1.3906818628311157,-52.55195999145508,-92.08651733398438, 33.70817565917969
367,115976913,0.7918565,0.026846195,-0.58665055,0.16758248,10.765995025634766,-2.1795332431793213,0.6570400595664978,-23.411924362182617,-73.59931182861328, 38.25723648071289
368,115993580,0.786536,0.021425327,-0.5939264,0.16778983,9.778462409973145,-1.1148358583450317,1.6529954671859741,-36.643089294433594,-53.889652252197266, 30.352224349975586
369,116010247,0.782449,0.01726879,-0.59936863,0.16802543,9.664985656738281,-1.7668331861495972,1.5936329364776611,-27.748279571533203,-40.37308883666992, 23.670164108276367
370,116026914,0.7786001,0.014252524,-0.6039707,0.16970047,10.413613319396973,-2.3516342639923096,1.7001575231552124,-14.728029251098633,-36.00638961791992, 26.344804763793945
371,116043581,0.7745439,0.0144933695,-0.6078218,0.17442603,9.606531143188477,-2.461333751678467,2.1727333068847656,16.287109375,-36.338111877441406, 29.304359436035156
372,116060248,0.7708254,0.014853881,-0.611418,0.17825739,9.02105712890625,-2.620159387588501,1.996168851852417,13.470233917236328,-33.812591552734375, 23.589033126831055
373,116076915,0.7673032,0.014607746,-0.6149984,0.18113327,9.852357864379883,-1.9256203174591064,2.4279136657714844,6.247464179992676,-32.268253326416016, 20.808195114135742
374,116093582,0.76400805,0.01152738,-0.619107,0.18128863,8.952774047851562,-2.0181689262390137,2.5315237045288086,-20.8870906829834,-30.855192184448242, 18.214754104614258
375,116110249,0.7607086,0.007695683,-0.62359345,0.17998537,9.152108192443848,-2.5072789192199707,2.353127956390381,-31.514469146728516,-32.06048583984375, 13.793282508850098
376,116126916,0.75700945,0.0042860713,-0.6284384,0.17883997,9.404544830322266,-2.6776187419891357,1.9064821004867554,-29.05269432067871,-36.18299865722656, 13.321919441223145
377,116143583,0.7529545,0.0019286275,-0.6334323,0.17838007,9.105483055114746,-2.889608383178711,1.6085652112960815,-20.785554885864258,-39.78114318847656, 12.780468940734863
378,116160250,0.7487763,0.0016568209,-0.6381483,0.17916,8.887593269348145,-2.755138874053955,1.2853546142578125,-4.244115352630615,-41.4301643371582, 10.247367858886719
379,116176917,0.74447733,0.0021659487,-0.6427957,0.18045191,9.299842834472656,-2.5424656867980957,1.3075168132781982,2.1097898483276367,-42.569252014160156, 9.586828231811523
380,116193584,0.7399884,0.0025089325,-0.6476201,0.18165748,9.3253173828125,-2.6445322036743164,1.4402196407318115,0.6602298021316528,-44.11799621582031, 10.106019020080566
381,116210251,0.7353481,0.0025115707,-0.65266216,0.18245283,9.38893985748291,-2.5401175022125244,1.3048406839370728,-3.169121742248535,-45.49393081665039, 9.715618133544922
382,116226918,0.73057353,0.0023411328,-0.6579275,0.18272538,9.7682523727417,-2.0041191577911377,1.241509199142456,-6.670907497406006,-47.02834701538086, 8.014105796813965
383,116243585,0.7254969,0.0014681355,-0.6636093,0.18241371,9.84373950958252,-1.8322956562042236,1.3088371753692627,-13.365973472595215,-49.624210357666016, 8.653058052062988
384,116260252,0.71988195,-0.00008399154,-0.6699094,0.18163536,9.598885536193848,-2.2309372425079346,1.1282382011413574,-19.65924072265625,-54.332366943359375, 10.121115684509277
385,116276919,0.7137286,-0.0014563786,-0.6766782,0.18082099,9.47489070892334,-2.5391855239868164,0.9744023084640503,-19.526409149169922,-59.371421813964844, 9.794004440307617
386,116293586,0.7072045,-0.002218129,-0.68365866,0.18018834,9.555331230163574,-2.7908620834350586,0.8630498051643372,-15.956517219543457,-62.912784576416016, 8.303179740905762
387,116310253,0.70058614,-0.0023405796,-0.69055486,0.1797437,9.829833984375,-2.6792638301849365,0.5839958190917969,-11.86857795715332,-63.756919860839844, 6.323351860046387
388,116326920,0.6938685,-0.0024550192,-0.6974563,0.17915192,9.862144470214844,-2.392648458480835,0.3670218586921692,-12.543126106262207,-64.27595520019531, 5.696510314941406
389,116343587,0.68697536,-0.002773711,-0.70448107,0.17822395,9.841529846191406,-2.5226101875305176,0.38483601808547974,-15.291463851928711,-65.46187591552734, 5.290432929992676
390,116360254,0.6797744,-0.003133738,-0.7117406,0.17698106,9.758601188659668,-2.81284236907959,0.3936150372028351,-17.313743591308594,-68.02239227294922, 4.3785481452941895
391,116376921,0.67226136,-0.0032455784,-0.7192107,0.17547193,9.726502418518066,-3.0402963161468506,0.4008747339248657,-17.730161666870117,-70.85210418701172, 2.2920405864715576
392,116393588,0.6642635,-0.00316918,-0.72714514,0.17321691,9.84753704071045,-3.0713858604431152,0.21131514012813568,-21.132614135742188,-75.63290405273438, -1.5187764167785645
393,116410255,0.6557222,-0.0028304206,-0.73553765,0.17030819,10.008309364318848,-2.8929991722106934,0.1340896040201187,-23.775083541870117,-80.76628112792969, -5.1849846839904785
394,116426922,0.6464387,-0.002520136,-0.7446092,0.16633706,10.560464859008789,-2.6649727821350098,0.3364083766937256,-30.10342025756836,-87.55512237548828, -8.975296020507812
395,116443589,0.6361289,-0.0020430502,-0.7545116,0.16139556,11.367016792297363,-2.221325159072876,0.7076295018196106,-35.31877899169922,-96.71546936035156, -12.974053382873535
396,116460256,0.62421954,-0.0006267185,-0.7654073,0.15652925,11.99063777923584,-2.318314790725708,1.1882338523864746,-31.969032287597656,-110.45647430419922, -15.735177993774414
397,116476923,0.61051357,0.0025983085,-0.7773782,0.15149207,13.555158615112305,-2.366182804107666,1.7673592567443848,-26.299211502075195,-126.54702758789062, -24.037818908691406
398,116493590,0.59467506,0.0070699006,-0.79026425,0.14762908,14.696409225463867,-1.8987350463867188,2.77933931350708,-15.739059448242188,-143.16612243652344, -23.509754180908203
399,116510257,0.57686067,0.01019742,-0.80410117,0.14335112,16.369863510131836,-1.0743334293365479,3.9652299880981445,-24.39339828491211,-156.58416748046875, -15.812451362609863
400,116526924,0.55721724,0.011586445,-0.8186629,0.13844086,17.637147903442383,-0.5825637578964233,5.234458923339844,-35.40226364135742,-168.08619689941406, -6.790134429931641
401,116543591,0.53859633,0.01194542,-0.83161217,0.13487992,19.558868408203125,0.20704643428325653,8.585477828979492,-30.327314376831055,-155.2876434326172, 3.155705213546753
402,116560258,0.5219256,0.008625793,-0.8434327,0.1270453,16.926301956176758,1.2086952924728394,5.33704948425293,-67.53253936767578,-137.2138214111328, 6.565788269042969
403,116576925,0.5036254,0.0027852447,-0.8564428,0.11340058,12.046350479125977,-2.2763352394104004,-3.1415152549743652,-111.22437286376953,-149.3284454345703, 1.9259451627731323
404,116593592,0.48338446,-0.003451903,-0.86940277,0.10230537,11.352822303771973,-6.1197614669799805,-3.739126443862915,-97.50772857666016,-160.28378295898438, 14.599555015563965
405,116610259,0.46609762,-0.009312295,-0.8795368,0.095295236,9.317480087280273,-2.747635841369629,1.571986198425293,-69.82054901123047,-133.64028930664062, 23.8424072265625
406,116626926,0.45461982,-0.015538804,-0.88641936,0.08567526,6.864532470703125,-2.173006534576416,1.051908254623413,-84.30802917480469,-87.80921936035156, 14.076838493347168
407,116643593,0.45101023,-0.021509541,-0.88932055,0.072361305,7.843849182128906,-4.633634567260742,6.57537317276001,-102.86314392089844,-27.26072120666504, -3.2616896629333496
408,116660260,0.45540383,-0.02101662,-0.8870546,0.07279964,2.6841988563537598,-3.6509151458740234,7.487128257751465,4.949512958526611,32.24612808227539, -3.4073596000671387
409,116676927,0.4659935,-0.016593331,-0.88149035,0.07449628,4.204629421234131,-1.2295455932617188,3.673518419265747,27.41591453552246,78.06277465820312, -26.103363037109375
410,116693594,0.48116523,-0.0113174245,-0.87301,0.07877556,6.977061748504639,-3.5705313682556152,2.5150139331817627,47.803428649902344,114.34648895263672, -25.006027221679688
411,116710261,0.50003624,-0.002742551,-0.86122674,0.0908016,6.503195285797119,-3.559439182281494,1.3486201763153076,107.26473236083984,144.98468017578125, -20.939931869506836
412,116726928,0.5224591,0.0076008295,-0.8461771,0.10470528,6.9199934005737305,-2.2204461097717285,1.416215419769287,126.54875946044922,176.03533935546875, -27.117591857910156
413,116743595,0.5482006,0.01704582,-0.8280574,0.116218425,7.918675899505615,-1.646081566810608,1.2397047281265259,111.44058227539062,206.8245849609375, -33.009010314941406
414,116760262,0.57718503,0.024505852,-0.80676824,0.12402413,8.631186485290527,-1.3500866889953613,0.8600664138793945,85.00015258789062,238.32330322265625, -38.62263107299805
415,116776929,0.60914433,0.028959123,-0.78229374,0.1269687,9.72189712524414,-1.0944644212722778,0.4240601062774658,48.31560134887695,269.1659240722656, -44.29542922973633
416,116793596,0.6432597,0.028948002,-0.75491387,0.12443563,11.299028396606445,-1.0649739503860474,-0.03144147992134094,2.2614123821258545,295.711669921875, -45.68521499633789
417,116810263,0.6782816,0.02457658,-0.7246203,0.119397745,12.681017875671387,-2.3251335620880127,-1.0798954963684082,-27.70958137512207,316.5279235839844, -35.49924087524414
418,116826930,0.71307147,0.01805279,-0.69129676,0.115378186,14.321290969848633,-2.5591812133789062,-1.399144172668457,-30.13726806640625,331.46868896484375, -20.38969612121582
419,116843597,0.74598277,0.011581668,-0.655876,0.11490234,14.967084884643555,-3.6014838218688965,-3.2871899604797363,-11.116415023803711,333.2626647949219, -2.0733540058135986
420,116860264,0.77589196,0.009018562,-0.6193131,0.11984092,15.846489906311035,-2.598130464553833,-3.264164924621582,34.52742004394531,323.0217590332031, 10.310561180114746
421,116876931,0.8022309,0.009482971,-0.5834523,0.12617114,16.83591079711914,-1.4330421686172485,-3.270028829574585,56.28626251220703,301.7795104980469, 7.816706657409668
422,116893598,0.82457525,0.009076849,-0.5504187,0.13050838,16.770471572875977,-2.852771282196045,-6.745670795440674,41.319366455078125,270.9230041503906, 3.979390859603882
423,116910265,0.8417824,0.013222734,-0.5218011,0.13766357,15.209202766418457,-4.416037559509277,-10.934152603149414,74.20735168457031,222.75645446777344, 7.606487274169922
424,116926932,0.85282934,0.025089988,-0.49954534,0.15002435,11.58169937133789,-4.4765143394470215,-12.163257598876953,132.19775390625,157.29978942871094, 16.40945816040039
425,116943599,0.85756373,0.039806835,-0.4859146,0.16397277,10.176302909851074,-2.0607383251190186,-13.699771881103516,146.6326141357422,82.67186737060547, 23.88356590270996
426,116960266,0.8560941,0.048314527,-0.4845728,0.17308392,10.096393585205078,-2.99466872215271,-13.493483543395996,81.75921630859375,-4.525164604187012, 26.439228057861328
427,116976933,0.84922385,0.055613514,-0.49260852,0.18183258,8.924031257629395,-6.238104820251465,-14.163087844848633,64.14008331298828,-76.087158203125, 37.82538604736328
428,116993600,0.8393362,0.065923154,-0.5061248,0.18710057,13.846800804138184,2.8030126094818115,-0.23052139580249786,64.3237075805664,-123.10563659667969, 13.057822227478027
429,117010267,0.8310871,0.0746479,-0.51646465,0.19231898,11.000102043151855,6.770455360412598,10.238738059997559,58.32295227050781,-96.9295883178711, 14.782692909240723
430,117026934,0.8252323,0.06238935,-0.53065836,0.18303289,13.870092391967773,0.3592059910297394,-0.06742299348115921,-119.49418640136719,-90.22523498535156, 5.360887050628662
431,117043601,0.8158415,0.04732475,-0.5482887,0.17760278,15.872716903686523,-17.489093780517578,-7.056661128997803,-124.1528549194336,-117.33124542236328, 43.456443786621094
432,117060268,0.8028757,0.05311567,-0.5641322,0.18526816,14.305071830749512,7.417993068695068,1.9096131324768066,45.698787689208984,-141.76715087890625, 41.80243682861328
433,117076935,0.7932088,0.04592646,-0.578799,0.18358283,9.442169189453125,-2.7103073596954346,-1.4597325325012207,-61.97551727294922,-109.29253387451172, 36.05123519897461
434,117093602,0.7849515,0.044693355,-0.5893222,0.18588516,11.68403148651123,-3.6319847106933594,-0.24433301389217377,-8.811549186706543,-87.2675552368164, 30.986488342285156
435,117110269,0.77764887,0.043975126,-0.5978761,0.18940085,10.149184226989746,-1.4632816314697266,1.4352003335952759,1.1319854259490967,-72.99966430664062, 33.58476638793945
436,117126936,0.77179277,0.041852757,-0.60509795,0.19089489,9.507718086242676,-1.0414252281188965,1.7977503538131714,-13.381555557250977,-58.70029830932617, 26.261703491210938
437,117143603,0.766693,0.038754623,-0.61139935,0.19201766,10.469047546386719,-1.62376868724823,1.4883110523223877,-19.110336303710938,-49.49275588989258, 27.10670280456543
438,117160270,0.761211,0.037694003,-0.6169992,0.19608468,10.052781105041504,-2.478444814682007,1.4536036252975464,5.042685508728027,-49.2998046875, 34.383522033691406
439,117176937,0.7559681,0.03843015,-0.6217523,0.20114523,9.291609764099121,-2.501295804977417,1.7673836946487427,19.75162124633789,-46.017051696777344, 31.401647567749023
440,117193604,0.7512237,0.03922337,-0.6261387,0.20512179,9.671516418457031,-2.4067094326019287,1.906934142112732,15.796053886413574,-42.35572814941406, 24.716978073120117
441,117210271,0.7466033,0.038217843,-0.6310218,0.20720649,9.457914352416992,-2.136918067932129,2.2349891662597656,-2.370051860809326,-42.37261199951172, 22.636808395385742
442,117226938,0.74221206,0.03501773,-0.6365667,0.20658647,9.200895309448242,-1.974290370941162,1.9161115884780884,-26.37433433532715,-42.37625503540039, 18.122962951660156
443,117243605,0.7375708,0.031040464,-0.64268017,0.2049105,9.591882705688477,-2.5046515464782715,1.563114047050476,-35.711483001708984,-45.53485107421875, 16.637880325317383
444,117260272,0.73254764,0.02767301,-0.64898854,0.20352447,9.35241985321045,-2.76990008354187,1.4067418575286865,-31.532211303710938,-49.0161018371582, 15.997122764587402
445,117276939,0.72736955,0.026327591,-0.65491277,0.20329715,9.051448822021484,-3.1413698196411133,1.2069590091705322,-15.612499237060547,-50.38985061645508, 12.949320793151855
446,117293606,0.7220965,0.026686171,-0.6604057,0.20427646,9.40506362915039,-2.575263738632202,0.9228513836860657,-1.040320873260498,-50.83322525024414, 11.348614692687988
447,117310273,0.7168207,0.02678386,-0.6659542,0.20483163,9.512796401977539,-2.531602621078491,0.9439053535461426,-4.341906547546387,-50.83953094482422, 10.434745788574219
448,117326940,0.71165544,0.026333233,-0.6715344,0.2046823,9.588013648986816,-2.5178465843200684,0.9777150750160217,-10.339201927185059,-49.8570556640625, 9.320120811462402
449,117343607,0.70656383,0.025367387,-0.6771542,0.20392749,9.635677337646484,-2.282444477081299,0.7709563374519348,-15.730125427246094,-49.105323791503906, 8.639546394348145
450,117360274,0.7014684,0.024012439,-0.68281376,0.20280786,9.686742782592773,-2.2225358486175537,0.6843990683555603,-19.379310607910156,-48.84284210205078, 8.696897506713867
451,117376941,0.69620943,0.022496913,-0.688579,0.20160727,9.528751373291016,-2.540266513824463,0.5849792957305908,-20.65911865234375,-49.91949462890625, 9.314112663269043
452,117393608,0.6907713,0.021265985,-0.69437635,0.2005606,9.555184364318848,-2.6652274131774902,0.5520892143249512,-18.59087371826172,-51.302513122558594, 8.959451675415039
453,117410275,0.68516356,0.020535935,-0.7001654,0.19974448,9.67794132232666,-2.567976474761963,0.5260375142097473,-15.080728530883789,-52.74250793457031, 7.8960771560668945
454,117426942,0.6793908,0.019978227,-0.7060159,0.19892442,9.863327026367188,-2.3950977325439453,0.30220794677734375,-14.357975006103516,-54.07866668701172, 7.285109043121338
455,117443609,0.67344224,0.019489964,-0.71194434,0.19806848,9.981569290161133,-2.488863468170166,0.125139981508255,-14.295998573303223,-55.40925979614258, 7.037191390991211
456,117460276,0.66723084,0.018927267,-0.7180833,0.19698074,9.858712196350098,-2.576788902282715,0.01901240646839142,-16.066333770751953,-57.60567092895508, 6.719326972961426
457,117476943,0.66049695,0.018684648,-0.72461987,0.1957568,9.756945610046387,-2.90812349319458,0.12732692062854767,-15.66639518737793,-62.49410629272461, 5.276851654052734
458,117493610,0.6531419,0.01870723,-0.73174256,0.19392964,9.839753150939941,-2.840099334716797,0.038254596292972565,-18.666780471801758,-68.5838394165039, 2.1406004428863525
459,117510277,0.6451329,0.018871719,-0.73951584,0.19121647,9.991583824157715,-2.852557420730591,0.09026069194078445,-22.761335372924805,-75.24984741210938, -1.6149543523788452
460,117526944,0.6363793,0.019243626,-0.74807084,0.18719362,10.901117324829102,-2.214160919189453,0.24940626323223114,-29.995830535888672,-82.83111572265625, -7.354030609130859
461,117543611,0.626627,0.019212037,-0.7575494,0.18190174,11.095149993896484,-2.1450812816619873,0.2512717843055725,-38.4502067565918,-91.91385650634766, -9.490544319152832
462,117560278,0.6155184,0.019686496,-0.7679069,0.17626306,11.52580451965332,-2.395634174346924,0.6234666109085083,-39.481327056884766,-103.36442565917969, -11.73837661743164
463,117576945,0.6028783,0.021359507,-0.779296,0.16964515,13.218341827392578,-2.1915624141693115,1.3472251892089844,-40.648780822753906,-117.44920349121094, -20.197023391723633
464,117593612,0.58812666,0.024868565,-0.7916112,0.16383092,14.797051429748535,-2.8808510303497314,2.965743064880371,-29.51913833618164,-134.69854736328125, -24.08144187927246
465,117610279,0.5711785,0.028051201,-0.8050223,0.15782146,15.577229499816895,-1.5014586448669434,3.665135622024536,-32.80220031738281,-150.8634490966797, -20.412099838256836
466,117626946,0.55222094,0.030568242,-0.81919026,0.15180632,17.45856285095215,-1.699094533920288,4.727433204650879,-35.91316604614258,-164.36976623535156, -14.381170272827148
467,117643613,0.531979,0.031668752,-0.83355,0.14556849,18.535232543945312,0.5415743589401245,6.441015243530273,-42.51187515258789,-171.06866455078125, -5.819586753845215
468,117660280,0.5130782,0.03020993,-0.84675837,0.13725367,17.663898468017578,0.44707244634628296,7.035109043121338,-62.93852615356445,-157.2671661376953, -0.2587912380695343
469,117676947,0.49677446,0.025521055,-0.85826194,0.12629503,14.97173023223877,-2.1428277492523193,-0.4145381450653076,-88.67584991455078,-133.85137939453125, 6.487833499908447
470,117693614,0.47838035,0.017773885,-0.87049305,0.11435982,11.68233585357666,-5.668863296508789,-3.5216917991638184,-105.16743469238281,-146.29751586914062, 23.161985397338867
471,117710281,0.4615396,0.010206343,-0.8807189,0.105883494,9.775152206420898,-4.41032600402832,2.1071441173553467,-82.52294921875,-130.1636199951172, 31.955453872680664
472,117726948,0.4497022,0.0018227615,-0.8880738,0.09533957,5.958896636962891,-0.6159929037094116,1.8200491666793823,-95.94392395019531,-90.41240692138672, 26.464595794677734
473,117743615,0.44581133,-0.0074416082,-0.89163625,0.0786244,9.383007049560547,-3.5844309329986572,8.33723258972168,-133.975830078125,-29.736711502075195, 7.505404472351074
474,117760282,0.4502026,-0.012441277,-0.8898315,0.073230416,3.9436066150665283,-3.458451986312866,8.801797866821289,-48.22749328613281,34.41450119018555, 11.835221290588379
475,117776949,0.4613479,-0.012479385,-0.884072,0.07361478,4.290498733520508,-1.3543201684951782,4.344695091247559,4.995519161224365,84.84140014648438, -3.7266788482666016
476,117793616,0.47801402,-0.009968666,-0.87483704,0.0778684,6.373885154724121,-1.7254884243011475,4.475610256195068,38.815879821777344,127.71754455566406, -9.445815086364746
477,117810283,0.4991013,-0.00409418,-0.86192244,0.08928075,6.5633158683776855,-2.48932147026062,3.5609943866729736,95.19126892089844,164.01686096191406, -8.258814811706543
478,117826950,0.5242746,0.004200612,-0.84524345,0.10335341,7.213729381561279,-1.152972936630249,2.650721788406372,121.6771469116211,199.51084899902344, -15.869765281677246
479,117843617,0.552968,0.012597308,-0.8250117,0.11586012,8.617936134338379,-1.1807500123977661,2.093330144882202,115.36428833007812,232.59266662597656, -24.684995651245117
480,117860284,0.58500993,0.020679977,-0.801021,0.12530524,9.985152244567871,-0.6985290050506592,1.3978136777877808,99.50728607177734,265.8093566894531, -37.514556884765625
481,117876951,0.61975265,0.026402315,-0.7737196,0.12871622,11.501988410949707,-0.3660082221031189,0.5997781157493591,59.24789047241211,295.1345520019531, -51.563690185546875
482,117893618,0.65600437,0.02866793,-0.74342823,0.12708628,13.358367919921875,-1.3505024909973145,-0.6416919231414795,20.076187133789062,318.0245056152344, -56.519657135009766
483,117910285,0.6924797,0.026198525,-0.7104865,0.12245239,15.14698314666748,-2.629960536956787,-1.1612375974655151,-3.519744634628296,333.2315673828125, -46.673545837402344
484,117926952,0.7274223,0.021996496,-0.67525244,0.120029956,15.849394798278809,-4.18386697769165,-3.2123477458953857,0.3642262816429138,338.7495422363281, -25.845659255981445
485,117943619,0.7593561,0.021101838,-0.638327,0.12438573,16.214982986450195,-5.706381797790527,-3.7094647884368896,48.199222564697266,331.8771057128906, -4.513299942016602
486,117960286,0.78804284,0.026856102,-0.6002049,0.13424385,16.87494659423828,-3.8120601177215576,-3.863676071166992,106.51038360595703,319.34686279296875, -2.229118824005127
487,117976953,0.8128884,0.031182509,-0.56423193,0.14100568,17.239501953125,-3.4580657482147217,-6.907042980194092,79.05388641357422,293.3418884277344, -10.863273620605469
488,117993620,0.83283406,0.032643434,-0.5326925,0.14683577,15.408646583557129,-5.565576076507568,-10.42455768585205,56.212425231933594,252.2848663330078, 0.7349693775177002
489,118010287,0.84722817,0.032754775,-0.5074567,0.15368584,12.633960723876953,-2.2626051902770996,-14.555871963500977,47.1639518737793,197.6551055908203, 18.490182876586914
490,118026954,0.8548832,0.03121291,-0.49267143,0.15961002,9.826117515563965,-3.153381109237671,-17.140548706054688,24.832019805908203,115.06607818603516, 28.327922821044922
491,118043621,0.8549186,0.032867853,-0.4907082,0.1650444,8.525985717773438,-2.141815662384033,-20.70352554321289,29.593908309936523,10.566292762756348, 25.705175399780273
492,118060288,0.8479232,0.03826167,-0.5011394,0.16858724,11.267391204833984,-0.18521332740783691,-20.639936447143555,32.77941131591797,-90.35646057128906, 12.729747772216797
493,118076955,0.83807933,0.048357867,-0.5151296,0.17299257,16.65345573425293,-2.2604265213012695,11.178633689880371,63.11849594116211,-126.13135528564453, 7.779501914978027
494,118093622,0.8284529,0.05333099,-0.5285314,0.17741585,13.061727523803711,0.9147664904594421,1.8139959573745728,34.24034881591797,-115.88634490966797, 25.376882553100586
495,118110289,0.81661993,0.04567764,-0.5474902,0.17691886,18.111347198486328,-17.575267791748047,-8.238450050354004,-60.549434661865234,-142.0491943359375, 48.338382720947266
496,118126956,0.80287033,0.0564642,-0.56382406,0.18523873,12.461912155151367,11.28845500946045,2.312091112136841,82.02971649169922,-154.2441864013672, 30.373579025268555
497,118143623,0.79368085,0.043565195,-0.5798093,0.17886896,12.246047019958496,0.27394092082977295,-1.8793035745620728,-107.02468872070312,-110.20079040527344, 35.05538558959961
498,118160290,0.78602237,0.031772215,-0.5921846,0.17457686,12.610044479370117,-4.253958225250244,-1.2632747888565063,-89.65460205078125,-85.04359436035156, 38.4843635559082
499,118176957,0.77992857,0.023929697,-0.6006602,0.17420264,9.774446487426758,-1.3740870952606201,1.0982017517089844,-49.77875900268555,-61.22157669067383, 40.058658599853516
500,118193624,0.77554196,0.017411415,-0.60653216,0.1742134,9.897700309753418,-1.9707030057907104,1.2895442247390747,-39.69767379760742,-41.51058578491211, 33.651466369628906
501,118210291,0.77187943,0.015950808,-0.6100685,0.1782254,10.515847206115723,-2.7528882026672363,0.8005857467651367,6.059760093688965,-31.513256072998047, 32.52906799316406
502,118226958,0.768174,0.016944524,-0.61275977,0.18479005,9.945823669433594,-2.0698883533477783,2.2767632007598877,30.637470245361328,-29.89284324645996, 35.6483268737793
503,118243625,0.7648279,0.016276019,-0.61564744,0.1890809,9.1931791305542,-2.7125940322875977,2.470830202102661,11.564982414245605,-27.500045776367188, 30.062435150146484
504,118260292,0.7614819,0.015269726,-0.6188599,0.19215806,9.299824714660645,-2.7354464530944824,2.6596145629882812,4.676858901977539,-29.016870498657227, 25.25614356994629
505,118276959,0.75836134,0.011353898,-0.62275976,0.19217123,8.449338912963867,-2.0550038814544678,2.8398897647857666,-26.107053756713867,-27.816431045532227, 20.90644645690918
506,118293626,0.75524235,0.0059878123,-0.6272271,0.19015619,9.139076232910156,-2.8339409828186035,2.1021857261657715,-44.143306732177734,-28.793827056884766, 16.317995071411133
507,118310293,0.7516116,0.0015401935,-0.6320963,0.1884995,9.303959846496582,-2.969804286956787,1.8902673721313477,-38.576480865478516,-34.21400451660156, 14.862921714782715
508,118326960,0.74765044,-0.0014316309,-0.6370724,0.18749873,8.831905364990234,-3.3008832931518555,1.4292443990707397,-29.225942611694336,-37.86895751953125, 12.050795555114746
509,118343627,0.74343616,-0.0023723473,-0.64193493,0.1876611,8.876535415649414,-3.448532819747925,1.3228371143341064,-14.125219345092773,-40.878177642822266, 9.356108665466309
510,118360294,0.7390491,-0.0014636839,-0.646625,0.18889275,9.158233642578125,-2.829606771469116,1.3385802507400513,0.5067827105522156,-43.219993591308594, 6.966221809387207
511,118376961,0.7345231,-0.00010136063,-0.65132314,0.19040468,9.683271408081055,-2.304210901260376,1.5666791200637817,3.9209163188934326,-44.44370651245117, 6.561297416687012
512,118393628,0.7297425,0.00076240156,-0.65634096,0.19155127,9.609938621520996,-2.4293200969696045,1.4068788290023804,-0.8144645094871521,-46.51243591308594, 7.296467304229736
513,118410295,0.72469425,0.0015086964,-0.6616735,0.19236486,9.632532119750977,-2.4883477687835693,1.290516972541809,-3.3778324127197266,-49.13740158081055, 6.548820495605469
514,118426962,0.7193831,0.001859406,-0.6673357,0.19273733,9.633536338806152,-2.3619205951690674,1.2109307050704956,-7.713583946228027,-51.48060989379883, 6.566718578338623
515,118443629,0.71383744,0.0014091525,-0.67337674,0.19234882,9.558332443237305,-2.2379329204559326,0.9913325309753418,-15.680932998657227,-53.38005828857422, 6.849660873413086
516,118460296,0.70793796,0.000570767,-0.6798053,0.19154206,9.473426818847656,-2.638258218765259,0.8334232568740845,-19.739931106567383,-56.48701477050781, 7.166402816772461
517,118476963,0.7017332,-0.00006120575,-0.6863995,0.1908569,9.494606971740723,-2.852602958679199,0.6150824427604675,-18.40985107421875,-58.9885139465332, 7.250164031982422
518,118493630,0.69533396,-0.00043899054,-0.6930013,0.19042027,9.518296241760254,-3.034775495529175,0.36659008264541626,-15.829612731933594,-60.3273811340332, 7.575733661651611
519,118510297,0.68877053,-0.00044233137,-0.6995413,0.19036062,9.527308464050293,-2.718271017074585,0.15034738183021545,-12.077143669128418,-61.3309326171875, 7.862855911254883
520,118526964,0.6820043,-0.00033886972,-0.7061863,0.19018671,9.811861991882324,-2.683570384979248,0.0395343154668808,-12.071083068847656,-62.99409103393555, 7.132274627685547
521,118543631,0.67505276,-0.0005342432,-0.71299523,0.18958272,10.003949165344238,-2.561708927154541,0.1503119170665741,-15.7476224899292,-64.28243255615234, 6.859129905700684
522,118560298,0.66778916,-0.00095147896,-0.72013414,0.18831822,9.978144645690918,-2.5268263816833496,0.09752720594406128,-20.218645095825195,-67.12039947509766, 5.343190670013428
523,118576965,0.660044,-0.0011377109,-0.72774833,0.18634099,10.407003402709961,-2.5066018104553223,0.42168039083480835,-23.156370162963867,-72.0337905883789, 1.5991164445877075
524,118593632,0.6516143,-0.0011851698,-0.7359448,0.18380076,10.555168151855469,-2.741647481918335,0.6451413631439209,-25.831626892089844,-78.36714172363281, -0.7312472462654114
525,118610299,0.6421096,-0.0011570056,-0.74506295,0.18048619,10.538782119750977,-2.6222264766693115,0.5512662529945374,-28.83537483215332,-88.52422332763672, -3.2914860248565674
526,118626966,0.6313672,-0.00053772784,-0.75510323,0.17661902,10.83242416381836,-2.7930755615234375,0.7031710743904114,-30.225811004638672,-99.69111633300781, -7.222200393676758
527,118643633,0.6192316,0.00061363156,-0.7660819,0.17225176,11.347053527832031,-2.6942861080169678,1.3543647527694702,-31.675609588623047,-111.67594909667969, -10.45972728729248
528,118660300,0.6052728,0.0020156312,-0.77838457,0.16660826,12.231122970581055,-2.0089945793151855,1.8394806385040283,-38.91389846801758,-127.26423645019531, -15.037984848022461
529,118676967,0.5891869,0.004740378,-0.7919558,0.1601317,14.402244567871094,-2.5959694385528564,2.68572998046875,-39.316017150878906,-145.5153350830078, -23.108264923095703
530,118693634,0.5707712,0.0077386713,-0.8063425,0.15483032,15.999491691589355,-1.5257644653320312,3.989691734313965,-32.6594123840332,-161.84959411621094, -17.224302291870117
531,118710301,0.55071163,0.008975001,-0.82139486,0.14814441,17.981399536132812,-0.3558945059776306,6.01958703994751,-47.89958190917969,-171.8862762451172, -11.064947128295898
532,118726968,0.5298637,0.010339415,-0.8359935,0.14231141,19.25583267211914,0.8347652554512024,7.096619129180908,-42.10992431640625,-174.84698486328125, -7.725722789764404
533,118743635,0.50903475,0.010022814,-0.8500477,0.13491513,17.69306755065918,0.45308026671409607,5.37064790725708,-56.704833984375,-171.39752197265625, -3.743149995803833
534,118760302,0.48930606,0.005992287,-0.863318,0.12339259,14.513002395629883,-1.5245221853256226,-0.5022766590118408,-93.1795654296875,-159.22048950195312, 2.5061256885528564
535,118776969,0.4706325,-0.0010095481,-0.87539077,0.11043259,10.58604621887207,-3.4590036869049072,-3.7506484985351562,-110.74119567871094,-146.5489044189453, 14.38491153717041
536,118793636,0.45483297,-0.010138146,-0.8850661,0.09839892,9.792290687561035,-4.067798614501953,1.6876192092895508,-110.2168197631836,-119.9106674194336, 28.005197525024414
537,118810303,0.44480598,-0.019327335,-0.8911014,0.08782058,5.5335187911987305,-3.0550389289855957,-0.1339515596628189,-98.7136001586914,-73.541748046875, 29.252126693725586
538,118826970,0.44193348,-0.027540477,-0.89371854,0.07213674,6.942331790924072,-3.4694745540618896,3.236626386642456,-124.01832580566406,-19.20195770263672, 3.7684199810028076
539,118843637,0.44730312,-0.029964142,-0.89125425,0.06846912,3.30452036857605,-3.259843587875366,8.82225513458252,-28.537078857421875,41.6539192199707, 1.5558254718780518
540,118860304,0.45985743,-0.02957161,-0.88501686,0.06634899,2.730844736099243,-1.5416723489761353,3.3218743801116943,-7.1764020919799805,95.52984619140625, -13.5716552734375
541,118876971,0.47713673,-0.026423559,-0.8759994,0.065325946,5.709012031555176,-2.387007474899292,1.2927768230438232,10.428797721862793,131.54461669921875, -28.472509384155273
542,118893638,0.49771327,-0.020887034,-0.8641939,0.070810325,7.0869269371032715,-4.081079006195068,0.7327388525009155,59.30210876464844,158.25096130371094, -22.496196746826172
543,118910305,0.52093047,-0.010974576,-0.8494072,0.08377628,7.492753982543945,-2.858483076095581,0.8331824541091919,120.55508422851562,180.89910888671875, -23.772592544555664
544,118926972,0.54637104,0.00020861618,-0.83186674,0.097346276,8.54313850402832,-1.9034743309020996,0.45245787501335144,130.38644409179688,202.9282684326172, -30.10442543029785
545,118943639,0.5739113,0.01138373,-0.8115614,0.10892428,9.66333293914795,-1.987593650817871,0.10954049229621887,120.81295013427734,225.28924560546875, -38.9396858215332
546,118960306,0.6034015,0.021328557,-0.7886477,0.11613159,10.609004974365234,-1.6747664213180542,0.39962977170944214,93.37157440185547,247.0098876953125, -50.978294372558594
547,118976973,0.63449967,0.026830276,-0.76359206,0.11669477,11.747696876525879,-2.6252858638763428,-0.3029520511627197,40.38332748413086,267.1590270996094, -56.04328155517578
548,118993640,0.66621387,0.027965292,-0.73644394,0.114137635,12.94527530670166,-3.846208095550537,-0.7405653595924377,6.51798152923584,282.43701171875, -47.62257385253906
549,119010307,0.6976414,0.025988685,-0.70721865,0.11163798,13.961677551269531,-4.351934909820557,-1.6715078353881836,-5.751825332641602,292.9534912109375, -31.807706832885742
550,119026974,0.72741646,0.025051152,-0.6761841,0.1140748,13.732882499694824,-5.777772426605225,-2.889159917831421,24.942955017089844,293.6997375488281, -12.268559455871582
551,119043641,0.75514543,0.027860468,-0.6434253,0.12240626,14.337740898132324,-3.5700876712799072,-2.146355152130127,72.82852935791016,290.9331970214844, 1.0585178136825562
552,119060308,0.78117037,0.028911604,-0.6101321,0.12913424,14.982397079467773,-1.5954725742340088,-1.9399287700653076,57.40128707885742,287.3863830566406, 1.8280260562896729
553,119076975,0.8052564,0.026840491,-0.5774427,0.1319159,14.914031028747559,-2.002530336380005,-2.5039219856262207,23.9395751953125,278.05133056640625, -4.42495059967041
554,119093642,0.82699805,0.021340715,-0.5460535,0.13207859,14.98499870300293,-2.9191009998321533,-5.311228275299072,-6.168224811553955,264.245361328125, -2.949439525604248
555,119110309,0.84495825,0.01524559,-0.51794636,0.13245738,14.47109317779541,-3.2160935401916504,-7.311376571655273,-11.131489753723145,232.06781005859375, 4.417206764221191
556,119126976,0.85828614,0.010969271,-0.49473754,0.13586606,11.64173698425293,-3.907930850982666,-10.130579948425293,6.293413162231445,185.91041564941406, 20.26180648803711
557,119143643,0.8657948,0.010816295,-0.47976997,0.1417866,10.499516487121582,-2.181601047515869,-12.149568557739258,31.96002960205078,113.97473907470703, 27.0931339263916
558,119160310,0.8669221,0.012983113,-0.47580558,0.14794189,9.897004127502441,-2.364501953125,-13.269789695739746,36.331356048583984,25.36094856262207, 27.86829948425293
559,119176977,0.86254114,0.018279579,-0.48147652,0.15449746,10.07233715057373,-3.679340362548828,-12.177482604980469,47.02667999267578,-53.05028533935547, 26.462671279907227
560,119193644,0.85385096,0.025141321,-0.4938754,0.16246086,9.546935081481934,-3.752530813217163,-12.851480484008789,54.40713882446289,-108.53182220458984, 35.01628494262695
561,119210311,0.8437443,0.032871343,-0.5078384,0.17063238,13.163686752319336,-4.297255039215088,7.549819469451904,58.74956512451172,-123.28805541992188, 35.096038818359375
562,119226978,0.8347272,0.05623358,-0.51471764,0.18744163,8.217854499816895,9.245431900024414,11.233550071716309,187.68568420410156,-94.80582427978516, 27.69094467163086
563,119243645,0.8273773,0.06242461,-0.52555394,0.1879974,14.893272399902344,9.737449645996094,-0.6712031364440918,25.777294158935547,-95.83821105957031, -5.3583502769470215
564,119260312,0.82013685,0.045173217,-0.5422465,0.17692785,16.38227653503418,-7.446135997772217,-1.6747395992279053,-157.2637481689453,-103.36760711669922, 15.716280937194824
565,119276979,0.8081378,0.041361313,-0.5589552,0.18102953,15.134190559387207,-8.545300483703613,-2.918177604675293,-23.40777587890625,-132.7388458251953, 56.90795135498047
566,119293646,0.79620516,0.04433552,-0.5737297,0.18688488,9.343717575073242,2.608452558517456,1.0138472318649292,23.468338012695312,-129.59652709960938, 39.85967254638672
567,119310313,0.78633595,0.049322627,-0.5850249,0.19232526,9.919330596923828,-4.230104923248291,-0.510557234287262,36.6810302734375,-105.10187530517578, 25.963747024536133
568,119326980,0.77773005,0.052014515,-0.59492373,0.19620514,10.892361640930176,-1.9469987154006958,1.1998097896575928,19.424135208129883,-89.93313598632812, 24.572811126708984
569,119343647,0.7705984,0.052039754,-0.6038855,0.19695783,8.924718856811523,-1.4388422966003418,1.9404174089431763,-6.8890814781188965,-76.39727783203125, 16.426504135131836
570,119360314,0.76467574,0.050227787,-0.6118324,0.19598329,10.258912086486816,-0.07496791332960129,2.106412172317505,-22.856632232666016,-64.13092041015625, 12.90428638458252
571,119376981,0.7584606,0.04712045,-0.6195163,0.1967664,11.133747100830078,-1.696268081665039,1.2679458856582642,-21.82174301147461,-61.6247673034668, 27.919227600097656
572,119393648,0.751788,0.047820922,-0.6259671,0.20172542,9.563957214355469,-2.5208981037139893,1.4029442071914673,17.64225196838379,-60.93327331542969, 33.696353912353516
573,119410315,0.7456168,0.05069377,-0.6314163,0.2068796,9.227025032043457,-2.5133516788482666,1.6624993085861206,30.93811798095703,-56.55098342895508, 24.31460189819336
574,119426982,0.73958474,0.0520118,-0.6373486,0.20999068,10.321183204650879,-1.9278477430343628,1.9719284772872925,13.362282752990723,-56.93209457397461, 20.546178817749023
575,119443649,0.7338938,0.050052416,-0.6440469,0.2099962,9.16490364074707,-1.5330983400344849,2.034374475479126,-18.14271354675293,-55.71813201904297, 18.897903442382812
576,119460316,0.7287104,0.046159077,-0.6510749,0.20724915,9.6859769821167,-2.339509963989258,1.4165476560592651,-40.745147705078125,-53.298728942871094, 12.962845802307129
577,119476983,0.7235216,0.04265387,-0.65787315,0.20469543,9.931699752807617,-2.919797420501709,0.9527032375335693,-37.60894775390625,-52.666603088378906, 12.133875846862793
578,119493650,0.718351,0.04123379,-0.6640871,0.20312598,9.156188011169434,-2.9039173126220703,0.44843196868896484,-21.969715118408203,-52.32345199584961, 7.399229526519775
579,119510317,0.71340394,0.041949186,-0.6693573,0.20311604,9.516764640808105,-2.5641212463378906,0.499369740486145,-3.0501275062561035,-49.17958450317383, 4.763279914855957
580,119526984,0.7088163,0.04283276,-0.67404044,0.20350571,9.706666946411133,-2.2154369354248047,0.657068133354187,0.32646819949150085,-44.766990661621094, 5.2726616859436035
581,119543651,0.7045247,0.043012623,-0.67852503,0.20346655,9.667487144470215,-2.2475197315216064,0.7859150171279907,-4.903018474578857,-41.57351303100586, 5.971017360687256
582,119560318,0.7004783,0.042513765,-0.6829403,0.20276901,9.61665153503418,-2.411388397216797,0.7454319596290588,-11.24219799041748,-39.34471130371094, 5.585183620452881
583,119576985,0.6966132,0.041363247,-0.68734103,0.201449,9.590771675109863,-2.2355971336364746,0.609533429145813,-17.340351104736328,-37.7032356262207, 5.39117956161499
584,119593652,0.69274074,0.03961998,-0.69187033,0.19963995,9.53735065460205,-2.3143253326416016,0.3762304186820984,-22.670368194580078,-37.67709732055664, 5.900829792022705
585,119610319,0.68873143,0.0378935,-0.6964414,0.19794643,9.501561164855957,-2.5727875232696533,0.27042800188064575,-22.064485549926758,-38.5230712890625, 6.574308395385742
586,119626986,0.6845887,0.03653485,-0.7009884,0.19651681,9.683538436889648,-2.316093683242798,0.25140562653541565,-18.994916915893555,-39.484615325927734, 6.2391357421875
587,119643653,0.68027645,0.03527532,-0.70567375,0.19494717,9.884520530700684,-2.1478333473205566,0.2615414559841156,-19.351806640625,-41.12751007080078, 5.369582176208496
588,119660320,0.6756083,0.034243844,-0.71057904,0.19354223,9.936487197875977,-2.3428094387054443,0.34897029399871826,-17.698686599731445,-44.155269622802734, 5.569827556610107
589,119676987,0.6704068,0.03322313,-0.71593297,0.19207005,9.78201675415039,-2.363985538482666,0.5340580344200134,-18.454540252685547,-48.884132385253906, 6.0238776206970215
590,119693654,0.6645808,0.032158136,-0.7218726,0.19025764,9.832270622253418,-2.4896254539489746,0.47515398263931274,-20.970476150512695,-54.69036865234375, 5.636047840118408
591,119710321,0.658106,0.031095156,-0.72843945,0.18789814,9.925466537475586,-2.661104679107666,0.26297175884246826,-24.361270904541016,-60.912925720214844, 4.116631031036377
592,119726988,0.65088826,0.029909706,-0.7357536,0.18470645,9.862607955932617,-2.44828200340271,0.1054799035191536,-29.89859390258789,-68.04716491699219, 2.0865345001220703
593,119743655,0.6427349,0.02922461,-0.74381167,0.18105823,10.254252433776855,-2.042297124862671,0.13913512229919434,-30.73055076599121,-76.85222625732422, -1.1414190530776978
594,119760322,0.6335935,0.028656535,-0.7526845,0.17664751,10.76436996459961,-2.2460076808929443,0.4718300402164459,-34.939247131347656,-85.81930541992188, -3.7061028480529785
595,119776989,0.6232151,0.02838392,-0.76248217,0.17151856,10.862812995910645,-1.9765903949737549,0.22701507806777954,-38.26218032836914,-96.77313995361328, -6.66950798034668
596,119793656,0.61132014,0.02889095,-0.7733039,0.16569336,11.4144868850708,-2.055610179901123,0.6780277490615845,-39.49726104736328,-110.18952941894531, -11.739691734313965
597,119810323,0.59779423,0.03107946,-0.7851101,0.15899134,13.671757698059082,-2.341517210006714,1.4641801118850708,-37.9068489074707,-125.12127685546875, -22.299991607666016
598,119826990,0.5821645,0.034721807,-0.7977142,0.15339851,15.228877067565918,-2.89574933052063,3.0982799530029297,-26.387914657592773,-141.15866088867188, -23.105581283569336
599,119843657,0.56481624,0.037616696,-0.8110991,0.14726146,16.65221405029297,-1.1448487043380737,3.946477174758911,-32.80667495727539,-153.12777709960938, -19.17432403564453
600,119860324,0.54550517,0.039728284,-0.8252635,0.14066286,18.119626998901367,-0.8169946074485779,5.042092323303223,-38.726478576660156,-166.52159118652344, -14.378630638122559
601,119876991,0.52594775,0.04075157,-0.8388318,0.13446036,18.289562225341797,0.5685093998908997,6.149668216705322,-39.93782043457031,-164.63526916503906, -6.605736255645752
602,119893658,0.5089581,0.03790124,-0.85081446,0.12506036,16.558231353759766,-0.5622555613517761,5.361997604370117,-71.65426635742188,-141.53431701660156, 1.4030026197433472
603,119910325,0.4943483,0.029765159,-0.86167383,0.11068983,13.582296371459961,-4.162075519561768,-1.8273563385009766,-118.90007019042969,-120.55387878417969, 12.623098373413086
604,119926992,0.47835788,0.021116607,-0.8723295,0.0988403,10.247537612915039,-4.997655391693115,-2.492459774017334,-105.28820037841797,-127.18253326416016, 25.22865104675293
605,119943659,0.4647501,0.0130914515,-0.88086224,0.08898209,7.722169876098633,-2.771347761154175,3.070500373840332,-90.2209701538086,-106.06951141357422, 26.088573455810547
606,119960326,0.45565414,0.0049108,-0.8868829,0.076120496,4.797344207763672,-0.25752750039100647,-0.05755402520298958,-107.79989624023438,-70.95574188232422, 14.437898635864258
607,119976993,0.45390967,-0.002491445,-0.8888094,0.063071296,9.064080238342285,-6.649797439575195,7.686539649963379,-104.61022186279297,-13.73643970489502, 5.120481014251709
608,119993660,0.45994493,-0.003314318,-0.88544744,0.066504315,3.0946638584136963,-4.522140026092529,7.273771286010742,19.02313995361328,47.058048248291016, 13.030004501342773
609,120010327,0.471952,0.0012001777,-0.87845993,0.07462209,4.215505599975586,-1.0360901355743408,3.285421133041382,66.18425750732422,92.25454711914062, -7.323491096496582
610,120026994,0.4887281,0.007184519,-0.8683382,0.08415702,6.367257118225098,-2.454150676727295,3.4200756549835205,81.08284759521484,130.43997192382812, -14.073962211608887
611,120043661,0.5094991,0.015282128,-0.85460794,0.099110216,6.850872993469238,-3.591829538345337,2.3186635971069336,122.42533874511719,165.40768432617188, -10.977465629577637
612,120060328,0.53384036,0.025034707,-0.8373025,0.11537975,7.709500312805176,-1.9940768480300903,2.0090525150299072,138.01805114746094,197.8767547607422, -18.910005569458008
613,120076995,0.56134653,0.033915408,-0.8167735,0.1289228,9.233230590820312,-1.5873754024505615,1.592125654220581,121.13742065429688,228.10792541503906, -26.959575653076172
614,120093662,0.5917888,0.04097325,-0.79301924,0.13866434,10.212493896484375,-1.407429814338684,1.137377381324768,94.93385314941406,257.7373962402344, -34.743629455566406
615,120110329,0.62485766,0.044627007,-0.7663101,0.14258435,11.311960220336914,-1.3814842700958252,0.7089170217514038,51.42287063598633,285.660400390625, -43.204097747802734
616,120126996,0.659488,0.04358604,-0.7369699,0.14160313,13.055042266845703,-2.6097145080566406,-0.6616693139076233,7.534530162811279,308.2777099609375, -41.865966796875
617,120143663,0.6941336,0.038567893,-0.7051801,0.13932747,14.447287559509277,-3.680898666381836,-0.8376685380935669,-14.66637134552002,322.9534912109375, -28.346620559692383
618,120160330,0.72764426,0.030401373,-0.6712699,0.13786429,15.526154518127441,-3.9416744709014893,-1.8866374492645264,-23.402706146240234,330.81787109375, -8.702716827392578
619,120176997,0.7589921,0.02228243,-0.63552344,0.13980211,15.734230995178223,-4.1079511642456055,-2.762820243835449,-5.24343204498291,330.7195739746094, 9.736666679382324
620,120193664,0.7876417,0.017867522,-0.5984596,0.14542268,16.143375396728516,-2.678795099258423,-2.7850639820098877,31.90152931213379,322.85516357421875, 15.140924453735352
621,120210331,0.81311166,0.015409439,-0.562083,0.15058115,16.94346046447754,-1.4954891204833984,-3.675140142440796,40.33559799194336,304.0855712890625, 7.847115516662598
622,120226998,0.8344575,0.012625394,-0.5289052,0.1542098,16.34832191467285,-2.5364396572113037,-7.715749740600586,29.753496170043945,270.5015869140625, 5.176224708557129
623,120243665,0.8502428,0.0116647165,-0.50136024,0.15996644,14.292729377746582,-3.3505074977874756,-11.3833589553833,42.50419235229492,216.31886291503906, 17.14642333984375
624,120260332,0.85899174,0.01492945,-0.48297313,0.1692553,10.274149894714355,-3.379608631134033,-14.445464134216309,69.91817474365234,134.3048553466797, 31.698284149169922
625,120276999,0.8599742,0.025015246,-0.4766941,0.18050335,9.09867000579834,-1.2986704111099243,-16.12395668029785,103.46240234375,29.427671432495117, 30.885303497314453
626,120293666,0.8545796,0.035231896,-0.48259497,0.18855913,9.54737377166748,-0.8268970251083374,-15.728719711303711,79.78857421875,-64.02820587158203, 21.584402084350586
627,120310333,0.8458285,0.041371208,-0.49563545,0.19289422,11.556792259216309,-3.183985710144043,-9.068540573120117,35.06988525390625,-112.55789947509766, 19.326658248901367
628,120327000,0.83628476,0.04763119,-0.50896966,0.19826536,9.81877613067627,-4.318342685699463,3.7540342807769775,39.16349411010742,-116.70509338378906, 26.049484252929688
629,120343667,0.8287503,0.06320016,-0.51584303,0.20756888,9.601669311523438,7.235878944396973,13.229142189025879,114.61054992675781,-83.92288970947266, 11.186267852783203
630,120360334,0.82235605,0.06488088,-0.52669805,0.20520768,14.385501861572266,3.8993847370147705,-1.1608048677444458,-12.13427734375,-87.88896179199219, -5.852690696716309
631,120377001,0.81506395,0.04973848,-0.54350835,0.19441089,17.801109313964844,-10.12923526763916,-5.074518203735352,-145.8309783935547,-104.77111053466797, 11.357216835021973
632,120393668,0.8025892,0.05333115,-0.5593641,0.20029524,16.726652145385742,-1.9948921203613281,-1.8236136436462402,24.60059928894043,-138.00827026367188, 41.36201858520508
633,120410335,0.79193586,0.04922404,-0.5748076,0.2000275,9.532804489135742,1.4977794885635376,0.613075852394104,-41.64081954956055,-120.3027572631836, 34.36442947387695
634,120427002,0.7828848,0.05119491,-0.58554846,0.20396972,10.665390968322754,-4.383153438568115,-0.7017715573310852,14.01434326171875,-95.2747802734375, 29.496395111083984
635,120443669,0.77496135,0.053569097,-0.5939542,0.20924582,10.573286056518555,-1.7817044258117676,1.0013808012008667,24.446434020996094,-78.22994995117188, 32.61575698852539
636,120460336,0.76865005,0.053539302,-0.6011721,0.21190284,9.28152084350586,-0.6890298128128052,1.9007235765457153,2.0607099533081055,-62.80937576293945, 25.71523094177246
637,120477003,0.76382196,0.05135364,-0.60737854,0.21220322,10.170703887939453,-1.1748846769332886,2.154036283493042,-18.14681053161621,-49.05793380737305, 19.64713478088379
638,120493670,0.75918514,0.047617044,-0.6132946,0.21269791,10.479654312133789,-1.8100476264953613,2.1732304096221924,-25.12405776977539,-44.402462005615234, 26.773052215576172
639,120510337,0.75382906,0.045722127,-0.6189098,0.21587525,9.45351791381836,-2.6660754680633545,2.0544583797454834,-3.521122932434082,-47.68120193481445, 33.96742630004883
640,120527004,0.74837893,0.046388675,-0.6239557,0.22012812,9.094294548034668,-2.916564702987671,2.262540340423584,15.20927906036377,-48.599220275878906, 28.592832565307617
641,120543671,0.7431118,0.04647023,-0.6292922,0.22274828,9.594640731811523,-2.6165292263031006,2.3034324645996094,4.697590351104736,-48.95436477661133, 22.504310607910156
642,120560338,0.7382987,0.04451716,-0.6351412,0.22255118,8.786063194274902,-2.6237950325012207,1.9311378002166748,-18.81845474243164,-47.40058135986328, 16.377302169799805
643,120577005,0.7339295,0.041459873,-0.6411315,0.22040625,9.116593360900879,-2.4312901496887207,1.6724039316177368,-33.28437042236328,-45.09156036376953, 10.67393970489502
644,120593672,0.72926396,0.0386208,-0.6472043,0.21865377,10.066256523132324,-2.555818796157837,1.3997668027877808,-30.49633026123047,-47.03683090209961, 12.167837142944336
645,120610339,0.72427243,0.03678347,-0.65313375,0.21792863,9.474333763122559,-2.794029951095581,1.0603092908859253,-20.601537704467773,-49.00196838378906, 13.315690040588379
646,120627006,0.7193694,0.03749015,-0.6582122,0.21876796,9.07093334197998,-3.1031253337860107,0.699688732624054,0.342643141746521,-47.7846565246582, 9.33016300201416
647,120643673,0.7145969,0.039236613,-0.66281563,0.22019824,9.812646865844727,-2.404665946960449,0.9335485696792603,8.83863353729248,-46.25658416748047, 7.218119144439697
648,120660340,0.7099375,0.03939117,-0.66774225,0.2203576,9.978071212768555,-2.2710635662078857,1.0051279067993164,-5.297116756439209,-45.26461410522461, 8.142830848693848
649,120677007,0.7054067,0.038378622,-0.67291474,0.21934924,9.41130542755127,-2.335090398788452,0.9424260258674622,-16.765316009521484,-44.42543029785156, 7.676477909088135
650,120693674,0.70088583,0.03676768,-0.67826664,0.21762766,9.602815628051758,-2.395730972290039,0.8447625041007996,-23.244247436523438,-44.5401611328125, 7.021996974945068
651,120710341,0.69611484,0.03492175,-0.6838665,0.21571144,9.610065460205078,-2.651852607727051,0.7656413316726685,-25.596044540405273,-46.60234832763672, 7.621002197265625
652,120727008,0.69101495,0.0335545,-0.68957776,0.21413848,9.393058776855469,-2.7841665744781494,0.7195588946342468,-21.781278610229492,-49.31409454345703, 7.529719352722168
653,120743675,0.68562245,0.032931216,-0.6953095,0.21303087,9.491342544555664,-2.555593729019165,0.7714872360229492,-16.008220672607422,-51.792720794677734, 6.648299694061279
654,120760342,0.6799778,0.03246747,-0.70127743,0.21162759,9.80191707611084,-2.2811355590820312,0.7821905016899109,-16.96383285522461,-54.419673919677734, 4.916164398193359
655,120777009,0.6738675,0.031950153,-0.70767695,0.2099412,9.748590469360352,-2.576390266418457,0.6917109489440918,-19.109712600708008,-58.67766571044922, 4.629807472229004
656,120793676,0.66736627,0.031638984,-0.71438473,0.20802873,9.654524803161621,-2.8849234580993652,0.47321462631225586,-19.620624542236328,-62.365604400634766, 3.214141368865967
657,120810343,0.6604947,0.031407956,-0.72140723,0.2057476,9.569199562072754,-2.7641353607177734,0.20934247970581055,-21.441164016723633,-65.83094024658203, 1.7262420654296875
658,120827010,0.6532394,0.03185306,-0.728649,0.20330848,9.810898780822754,-2.923879623413086,0.057387083768844604,-19.389875411987305,-69.7297134399414, -1.7540030479431152
659,120843677,0.64558184,0.032621913,-0.7362243,0.20033453,9.91641902923584,-2.651660203933716,-0.20416918396949768,-21.002595901489258,-73.82162475585938, -5.142983913421631
660,120860344,0.6373463,0.033719376,-0.7442836,0.19671014,10.203145027160645,-2.1836626529693604,-0.26839980483055115,-23.382856369018555,-79.50213623046875, -8.786601066589355
661,120877011,0.62819135,0.034845695,-0.7532295,0.19185133,11.046463966369629,-2.0474088191986084,0.3242306709289551,-30.570018768310547,-88.42784881591797, -12.88648796081543
662,120893678,0.6176284,0.036034126,-0.76316583,0.186587,11.09268856048584,-2.215909719467163,0.5905029773712158,-33.38369369506836,-100.19513702392578, -12.853617668151855
663,120910345,0.60516375,0.038078576,-0.7743814,0.18072234,11.810375213623047,-2.198875665664673,1.2055848836898804,-34.084083557128906,-116.87802124023438, -17.12850570678711
664,120927012,0.5905567,0.041943464,-0.7868738,0.1741068,14.462512016296387,-3.3333775997161865,2.7068870067596436,-31.552486419677734,-136.09268188476562, -26.938642501831055
665,120943679,0.5735243,0.04573301,-0.8004278,0.16820733,15.516857147216797,-1.5540088415145874,3.7271499633789062,-28.583282470703125,-153.28775024414062, -20.407419204711914
666,120960346,0.55451834,0.047659677,-0.81522083,0.16016565,17.135038375854492,-0.950370728969574,4.016741752624512,-48.556331634521484,-167.6321258544922, -15.906042098999023
667,120977013,0.5336899,0.049650073,-0.83023155,0.15305443,19.116971969604492,-0.3456886410713196,5.831361770629883,-42.75974655151367,-178.5320281982422, -10.604460716247559
668,120993680,0.5132264,0.051488493,-0.8440749,0.14657854,18.994619369506836,1.5292989015579224,6.302163124084473,-38.605079650878906,-171.9029083251953, -8.147435188293457
669,121010347,0.49448806,0.05037036,-0.85685474,0.13691056,15.62605094909668,-1.6468251943588257,3.1792826652526855,-67.11077117919922,-156.41380310058594, -4.314720630645752
670,121027014,0.4775131,0.04477361,-0.86874336,0.1235378,13.84605598449707,-4.846647262573242,-1.9440444707870483,-103.95377349853516,-140.1548614501953, 7.525391578674316
671,121043681,0.46126816,0.037973516,-0.8791668,0.11338324,9.644588470458984,-4.034405708312988,-1.2658851146697998,-87.68315887451172,-129.01515197753906, 24.19635772705078
672,121060348,0.44861645,0.030649038,-0.88716424,0.10365214,7.800436973571777,-3.2734923362731934,3.62249493598938,-85.85441589355469,-99.1137466430664, 25.260635375976562
673,121077015,0.44117555,0.025179606,-0.8921663,0.09364638,6.443357467651367,-1.7670938968658447,-1.812589168548584,-80.79645538330078,-59.533939361572266, 8.74166488647461
674,121093682,0.44198915,0.021026742,-0.89253485,0.08709448,7.421934604644775,-4.464350700378418,10.222393035888672,-54.06869888305664,4.886806488037109, 5.019981384277344
675,121110349,0.45061383,0.019338414,-0.8882061,0.08753921,2.80804443359375,-1.501441240310669,7.569484233856201,-2.00209903717041,66.513671875, 5.781087398529053
676,121127016,0.46545935,0.020831965,-0.88041407,0.088230774,4.461291313171387,0.01641680859029293,3.006300926208496,10.605453491210938,113.2833251953125, -17.098234176635742
677,121143683,0.48492205,0.0223643,-0.86955094,0.09072797,6.409987449645996,-2.2617273330688477,2.4959826469421387,22.865638732910156,151.2568359375, -14.792412757873535
678,121160350,0.5079348,0.027454142,-0.8549615,0.101436384,6.652262210845947,-2.70839524269104,2.0083017349243164,85.59800720214844,183.911376953125, -11.479790687561035
679,121177017,0.53424156,0.034613833,-0.83677983,0.11483673,7.7285027503967285,-0.9776869416236877,1.9730939865112305,110.5367202758789,214.85336303710938, -17.228588104248047
680,121193684,0.56389844,0.041099153,-0.8151701,0.12580587,9.324578285217285,-0.41465961933135986,1.3947155475616455,95.98731231689453,246.64170837402344, -25.732831954956055
681,121210351,0.5965161,0.045592267,-0.7903541,0.13202426,10.317098617553711,-0.2511660158634186,0.8264492750167847,63.57744216918945,276.0208740234375, -36.4439697265625
682,121227018,0.63140714,0.047038786,-0.76256776,0.13267614,11.712834358215332,-0.29126065969467163,0.05054047703742981,22.82084083557129,301.563720703125, -45.70930099487305
683,121243685,0.66741866,0.04445478,-0.7320384,0.1292133,13.49125862121582,-1.1544873714447021,-0.8837979435920715,-14.106632232666016,321.69207763671875, -44.348655700683594
684,121260352,0.70305425,0.03854828,-0.6989366,0.12536564,15.292762756347656,-2.4801008701324463,-1.620330810546875,-28.880226135253906,334.4491271972656, -29.84914207458496
685,121277019,0.73656946,0.030683715,-0.66416174,0.12415006,16.15281867980957,-3.4830942153930664,-3.091104030609131,-23.676074981689453,334.7466735839844, -6.34389066696167
686,121293686,0.76682276,0.02654395,-0.6280381,0.1297946,15.752372741699219,-4.368789196014404,-3.586869239807129,28.389326095581055,324.9825744628906, 13.873510360717773
687,121310353,0.79376054,0.028844506,-0.59134054,0.13938753,16.33870506286621,-1.3153443336486816,-3.692215919494629,80.55169677734375,308.7131042480469, 9.713179588317871
688,121327020,0.816999,0.030385224,-0.5572172,0.1452536,16.570154190063477,-2.190312623977661,-5.230076789855957,59.529109954833984,279.65679931640625, -3.4732511043548584
689,121343687,0.83579427,0.032899376,-0.5266608,0.15163766,14.975044250488281,-4.218514442443848,-8.650578498840332,64.37103271484375,241.80490112304688, 0.8949450850486755
690,121360354,0.84937704,0.036341887,-0.5016579,0.15992972,12.732283592224121,-3.2445647716522217,-11.577923774719238,72.03634643554688,190.58633422851562, 15.174857139587402
691,121377021,0.8572994,0.03957843,-0.48510927,0.16775127,10.689927101135254,-1.2361228466033936,-12.694663047790527,61.358192443847656,121.92835998535156, 21.46302032470703
692,121393688,0.8590829,0.04155283,-0.4799564,0.17289345,8.875450134277344,-2.022428274154663,-13.678434371948242,33.53313446044922,35.15294647216797, 20.062013626098633
693,121410355,0.8558642,0.04293544,-0.48439062,0.17612171,10.165938377380371,-4.977577209472656,-12.230762481689453,13.782745361328125,-37.67518615722656, 19.38648223876953
