PacketCounter,SampleTimeFine,Quat_W,Quat_X,Quat_Y,Quat_Z,Acc_X,Acc_Y,Acc_Z,Gyr_X,Gyr_Y,Gyr_Z 
1,135616606,0.12712823,-0.65882367,-0.010294608,-0.74140674,-0.24867118895053864,2.2139158248901367,-1.872435212135315,2.355299472808838,-1.4528264999389648, 1.0182268619537354
2,135633273,0.1269872,-0.6588105,-0.010344942,-0.74144185,9.680656433105469,-1.5114874839782715,1.3229355812072754,-1.5546523332595825,0.06799530982971191, -0.01604635640978813
3,135649940,0.12673007,-0.6587121,-0.010055972,-0.7415773,9.67160415649414,-1.5017268657684326,1.2978016138076782,-1.7767914533615112,0.09835917502641678, 0.0005058508832007647
4,135666607,0.12625301,-0.65869933,-0.009600798,-0.74167603,9.693492889404297,-1.5042521953582764,1.292925238609314,-1.9121671915054321,0.17071504890918732, -0.13549117743968964
5,135683274,0.12612507,-0.6587308,-0.009447635,-0.74167174,9.674427032470703,-1.510290503501892,1.3207815885543823,-2.012594699859619,0.22448889911174774, -0.039699677377939224
6,135699941,0.12586191,-0.65871966,-0.009150952,-0.74173015,9.681922912597656,-1.5056043863296509,1.3098121881484985,-1.976506233215332,0.2531239092350006, -0.08125628530979156
7,135716608,0.12567179,-0.65870017,-0.008931784,-0.74178237,9.66915225982666,-1.5128852128982544,1.3183953762054443,-1.9888900518417358,0.34422826766967773, -0.11176100373268127
8,135733275,0.12549394,-0.6586748,-0.008740677,-0.74183726,9.674503326416016,-1.516614317893982,1.3101123571395874,-1.9167389869689941,0.30803751945495605, -0.2535656690597534
9,135749942,0.12536557,-0.658648,-0.008601427,-0.74188435,9.683040618896484,-1.5101536512374878,1.2936451435089111,-1.842769742012024,0.35629183053970337, -0.32470497488975525
10,135766609,0.12526312,-0.6586349,-0.008490647,-0.74191463,9.673965454101562,-1.5108349323272705,1.3052855730056763,-2.009136915206909,0.40078112483024597, -0.32674121856689453
11,135783276,0.1250495,-0.6586266,-0.008295269,-0.7419602,9.66280746459961,-1.4994338750839233,1.308836579322815,-2.030677318572998,0.3884485960006714, -0.38296109437942505
12,135799943,0.12480387,-0.6586166,-0.008096178,-0.74201274,9.669538497924805,-1.53333580493927,1.3590919971466064,-1.961753487586975,0.3850036859512329, -0.44914427399635315
13,135816610,0.12457307,-0.65859336,-0.007910302,-0.74207413,9.674589157104492,-1.5177887678146362,1.3382726907730103,-1.850376844406128,0.3100096881389618, -0.5254573225975037
14,135833277,0.12425978,-0.658561,-0.007688856,-0.7421577,9.66575813293457,-1.511833667755127,1.3049511909484863,-1.8147621154785156,0.35077229142189026, -0.7248265743255615
15,135849944,0.12402927,-0.6585337,-0.0075389617,-0.74222195,9.664555549621582,-1.5061901807785034,1.3131144046783447,-1.892970323562622,0.37338829040527344, -0.7079605460166931
16,135866611,0.123780556,-0.658502,-0.0073985998,-0.742293,9.694865226745605,-1.4886577129364014,1.3315956592559814,-1.850325345993042,0.43478190898895264, -0.8192477226257324
17,135883278,0.123467065,-0.6584548,-0.007203017,-0.74238914,9.678699493408203,-1.5220297574996948,1.3188903331756592,-1.883135437965393,0.5835661888122559, -0.7911251187324524
18,135899945,0.1231612,-0.6584024,-0.007037993,-0.74248785,9.67697811126709,-1.506083369255066,1.3497809171676636,-1.7868573665618896,0.6309241056442261, -0.930099606513977
19,135916612,0.12279188,-0.6583579,-0.006824865,-0.7425904,9.690901756286621,-1.508409023284912,1.3620184659957886,-1.7081364393234253,0.5177542567253113, -0.9483358263969421
20,135933279,0.122554556,-0.6583105,-0.006750329,-0.7426724,9.68297290802002,-1.509560465812683,1.354223608970642,-1.5390286445617676,0.4708574414253235, -1.0360336303710938
21,135949946,0.12241931,-0.6582665,-0.0067951134,-0.7427333,9.693961143493652,-1.4960217475891113,1.3420346975326538,-1.3252266645431519,0.38116174936294556, -1.1561188697814941
22,135966613,0.12218735,-0.6582382,-0.006751376,-0.742797,9.659841537475586,-1.49736487865448,1.3645539283752441,-1.1987513303756714,0.23341494798660278, -1.097542643547058
23,135983280,0.122092016,-0.6582221,-0.0068641645,-0.74282575,9.686509132385254,-1.50136399269104,1.343631625175476,-1.2845538854599,0.09842320531606674, -1.280391812324524
24,135999947,0.12182248,-0.6582067,-0.0068173823,-0.742884,9.694223403930664,-1.4738558530807495,1.3174203634262085,-1.5158874988555908,0.1535417139530182, -1.2869868278503418
25,136016614,0.1215033,-0.65818334,-0.0067240153,-0.7429579,9.691597938537598,-1.4905900955200195,1.3295588493347168,-1.4523680210113525,0.2551344931125641, -1.2508602142333984
26,136033281,0.1213135,-0.6581501,-0.006748471,-0.7430182,9.695725440979004,-1.4630131721496582,1.3417185544967651,-1.464661955833435,0.35512641072273254, -1.276190996170044
27,136049948,0.12100163,-0.65811664,-0.0066736788,-0.74309933,9.67319107055664,-1.486850619316101,1.3633438348770142,-1.4715007543563843,0.37372127175331116, -1.3044419288635254
28,136066615,0.12080478,-0.65808505,-0.006699141,-0.7431591,9.655364036560059,-1.4853122234344482,1.357774257659912,-1.2775743007659912,0.3076021373271942, -1.2716064453125
29,136083282,0.12060296,-0.65806043,-0.0067246575,-0.7432135,9.681485176086426,-1.4702500104904175,1.3581212759017944,-1.2671369314193726,0.2368726134300232, -1.2930442094802856
30,136099949,0.12035336,-0.65804386,-0.006706644,-0.74326867,9.684821128845215,-1.459165334701538,1.3887290954589844,-1.4476040601730347,0.19206322729587555, -1.2994859218597412
31,136116616,0.12018884,-0.6580383,-0.006752656,-0.74329984,9.68858814239502,-1.4396584033966064,1.3331066370010376,-1.6360878944396973,0.09595156461000443, -1.247428059577942
32,136133283,0.119928196,-0.65800554,-0.006730556,-0.74337107,9.68061637878418,-1.4599090814590454,1.3389619588851929,-1.7127212285995483,0.3804318606853485, -1.3555777072906494
33,136149950,0.119646706,-0.65795845,-0.0067049563,-0.7434584,9.687642097473145,-1.4527300596237183,1.3287454843521118,-1.7506152391433716,0.5290623307228088, -1.4496276378631592
34,136166617,0.119352765,-0.6579074,-0.0066511654,-0.7435513,9.67731761932373,-1.4627684354782104,1.351157546043396,-1.7368741035461426,0.5806463360786438, -1.3590227365493774
35,136183284,0.11909424,-0.65784794,-0.0066371956,-0.7436455,9.690489768981934,-1.4427484273910522,1.3522237539291382,-1.6939857006072998,0.6511964797973633, -1.408109426498413
36,136199951,0.11882918,-0.6577822,-0.006599668,-0.74374634,9.676423072814941,-1.432776689529419,1.3627324104309082,-1.6403909921646118,0.7066736221313477, -1.3091291189193726
37,136216618,0.118526205,-0.6577287,-0.00652445,-0.74384266,9.679634094238281,-1.4328091144561768,1.3744699954986572,-1.7569926977157593,0.614237368106842, -1.287255883216858
38,136233285,0.11839533,-0.65766054,-0.0065751085,-0.7439233,9.687891960144043,-1.4364657402038574,1.3514817953109741,-1.67685067653656,0.7209655046463013, -1.1463220119476318
39,136249952,0.11805956,-0.6575898,-0.006443538,-0.7440404,9.676291465759277,-1.4323447942733765,1.372498869895935,-1.7747297286987305,0.7826281189918518, -1.1562597751617432
40,136266619,0.117845304,-0.65750873,-0.006429736,-0.74414617,9.680575370788574,-1.4441523551940918,1.345690369606018,-1.950368881225586,0.8910978436470032, -1.2412043809890747
41,136283286,0.11766621,-0.6574241,-0.006427445,-0.7442492,9.665411949157715,-1.4266387224197388,1.3680870532989502,-1.7817988395690918,0.9045702219009399, -1.1221948862075806
42,136299953,0.117440656,-0.65733916,-0.0064013163,-0.7443601,9.685161590576172,-1.4277524948120117,1.3715486526489258,-1.6521984338760376,0.8917253613471985, -1.193872094154358
43,136316620,0.11720314,-0.6572486,-0.006380429,-0.7444777,9.691109657287598,-1.434604525566101,1.3644644021987915,-1.640762448310852,0.94159334897995, -1.2796874046325684
44,136333287,0.11691284,-0.65716547,-0.00630634,-0.7445973,9.685779571533203,-1.416246771812439,1.3730813264846802,-1.55426824092865,0.8687764406204224, -1.2288588285446167
45,136349954,0.11672418,-0.6570799,-0.0063095833,-0.7447025,9.669718742370605,-1.421563982963562,1.383690595626831,-1.5706220865249634,0.8880243897438049, -1.1660182476043701
46,136366621,0.11669004,-0.65698344,-0.006451879,-0.7447918,9.682395935058594,-1.4121711254119873,1.3536109924316406,-1.3681663274765015,0.9449484944343567, -1.1612157821655273
47,136383288,0.11643087,-0.65687835,-0.0063891965,-0.74492556,9.677742004394531,-1.398544430732727,1.3912733793258667,-1.534610629081726,1.0731785297393799, -1.1580654382705688
48,136399955,0.11629593,-0.6567543,-0.0064268606,-0.7450555,9.665033340454102,-1.4098563194274902,1.3878659009933472,-1.5338166952133179,1.2355631589889526, -1.121785044670105
49,136416622,0.11592896,-0.6566511,-0.0062622405,-0.7452052,9.66538143157959,-1.4081441164016724,1.3744714260101318,-1.6312216520309448,1.0780577659606934, -1.1318252086639404
50,136433289,0.11582046,-0.65654176,-0.006343125,-0.74531764,9.683454513549805,-1.3897851705551147,1.3747674226760864,-1.7363362312316895,1.1287453174591064, -1.242997169494629
51,136449956,0.11559676,-0.6564419,-0.006299978,-0.74544066,9.678447723388672,-1.3906834125518799,1.381378173828125,-1.9748796224594116,1.0906847715377808, -1.1483837366104126
52,136466623,0.11558889,-0.65633565,-0.006442432,-0.7455344,9.70905876159668,-1.37847900390625,1.396058440208435,-2.0819153785705566,1.1525137424468994, -1.1426849365234375
53,136483290,0.115338564,-0.65623695,-0.0063121985,-0.74566084,9.677303314208984,-1.3696256875991821,1.3790361881256104,-2.3540122509002686,1.144497036933899, -0.8621618151664734
54,136499957,0.11521851,-0.65612584,-0.006291707,-0.7457775,9.646710395812988,-1.4056611061096191,1.3921599388122559,-2.434640884399414,1.2661957740783691, -0.8536712527275085
55,136516624,0.115010805,-0.65600735,-0.006184634,-0.7459147,9.660540580749512,-1.418571949005127,1.4372488260269165,-2.342972755432129,1.3283578157424927, -0.8013572692871094
56,136533291,0.114884585,-0.6559002,-0.006171879,-0.74602854,9.682561874389648,-1.3964526653289795,1.4542031288146973,-1.9523152112960815,1.1526291370391846, -0.8592036366462708
57,136549958,0.11484785,-0.6558211,-0.0062111826,-0.74610335,9.669026374816895,-1.3998863697052002,1.4391382932662964,-1.7137328386306763,0.8474665880203247, -0.6628438830375671
58,136566625,0.11465162,-0.65576494,-0.006094976,-0.7461838,9.681349754333496,-1.3622019290924072,1.4420936107635498,-1.7327373027801514,0.6482253670692444, -0.5690628886222839
59,136583292,0.11463653,-0.6557325,-0.0061248727,-0.74621445,9.686010360717773,-1.3816046714782715,1.4423997402191162,-1.889141321182251,0.4360754191875458, -0.4970400333404541
60,136599959,0.114436954,-0.65571165,-0.005979824,-0.7462646,9.691001892089844,-1.3953980207443237,1.4319227933883667,-1.9727027416229248,0.3537817895412445, -0.43189412355422974
61,136616626,0.114381775,-0.6557046,-0.005974913,-0.7462791,9.700782775878906,-1.3832240104675293,1.4330445528030396,-1.781427264213562,0.18409766256809235, -0.4626549780368805
62,136633293,0.114253506,-0.6557095,-0.005890511,-0.7462952,9.679574012756348,-1.369179368019104,1.4132771492004395,-1.7486944198608398,0.07667802274227142, -0.3680160939693451
63,136649960,0.114069164,-0.6556935,-0.0057461294,-0.74633867,9.67764949798584,-1.3634843826293945,1.4142240285873413,-1.7794163227081299,0.279697060585022, -0.33131304383277893
64,136666627,0.113981225,-0.6556704,-0.005668221,-0.746373,9.667518615722656,-1.3667948246002197,1.4306124448776245,-1.6612398624420166,0.3222014009952545, -0.22172915935516357
65,136683294,0.11388408,-0.6556179,-0.00559312,-0.74643445,9.677994728088379,-1.3901104927062988,1.408665418624878,-1.5651665925979614,0.5767915844917297, -0.2875153720378876
66,136699961,0.11379767,-0.65553623,-0.0055028223,-0.7465201,9.688126564025879,-1.3694039583206177,1.4082800149917603,-1.422042727470398,0.8277192711830139, -0.163088858127594
67,136716628,0.11374521,-0.6553726,-0.0054350533,-0.7466722,9.698473930358887,-1.4065217971801758,1.451704740524292,-0.7746944427490234,1.4892311096191406, -0.09848082065582275
68,136733295,0.113906346,-0.6551679,-0.005527109,-0.7468267,9.672650337219238,-1.3631510734558105,1.4400990009307861,-0.40693455934524536,1.7985813617706299, 0.063090480864048
69,136749962,0.11392235,-0.6549723,-0.0054814746,-0.746996,9.65093994140625,-1.3712079524993896,1.4494701623916626,-0.5890536904335022,1.748239517211914, 0.10035695880651474
70,136766629,0.11400359,-0.6547991,-0.00550264,-0.7471353,9.662429809570312,-1.3718217611312866,1.450852394104004,-0.8028301000595093,1.5664536952972412, 0.03852790221571922
71,136783296,0.11416776,-0.65467346,-0.005584558,-0.74721974,9.661701202392578,-1.384202003479004,1.4612598419189453,-1.0267235040664673,1.1547166109085083, 0.1087835431098938
72,136799963,0.114273466,-0.6545804,-0.0055936626,-0.7472851,9.673462867736816,-1.3611794710159302,1.462813138961792,-1.370561122894287,0.909052312374115, 0.19881215691566467
73,136816630,0.11452804,-0.65449727,-0.005734341,-0.7473178,9.673531532287598,-1.3751494884490967,1.4401943683624268,-1.595094919204712,0.8367732763290405, 0.1709967702627182
74,136833297,0.114590034,-0.65445375,-0.0057059447,-0.7473466,9.662276268005371,-1.3885374069213867,1.450830101966858,-1.7709770202636719,0.5137842893600464, 0.1801661103963852
75,136849964,0.114479184,-0.6544253,-0.0055242954,-0.7473899,9.672368049621582,-1.3914430141448975,1.461639165878296,-1.7813376188278198,0.39012619853019714, 0.19973421096801758
76,136866631,0.114529945,-0.6544262,-0.0054940493,-0.74738157,9.665074348449707,-1.4139906167984009,1.4989923238754272,-1.7783154249191284,0.10679855942726135, 0.17341719567775726
77,136883298,0.11450962,-0.6544357,-0.0054327417,-0.7473768,9.681060791015625,-1.3774844408035278,1.4771703481674194,-1.6947925090789795,0.01320975087583065, 0.02693815715610981
78,136899965,0.11445235,-0.65446556,-0.00532141,-0.7473603,9.692052841186523,-1.3691009283065796,1.482139229774475,-1.8324733972549438,-0.15253642201423645, 0.11710766702890396
79,136916632,0.114415966,-0.6544883,-0.005238769,-0.74734646,9.684639930725098,-1.3892549276351929,1.4841670989990234,-1.6176339387893677,-0.1237221285700798, 0.09132847189903259
80,136933299,0.114403136,-0.6544833,-0.0051582693,-0.74735326,9.687248229980469,-1.408453345298767,1.462615966796875,-1.4511387348175049,0.10287981480360031, 0.1899629831314087
81,136949966,0.114638925,-0.6544472,-0.005294669,-0.74734783,9.66334342956543,-1.389695644378662,1.4578125476837158,-1.3171972036361694,0.353999525308609, 0.1875297725200653
82,136966633,0.11468182,-0.65438604,-0.005253899,-0.7473951,9.673792839050293,-1.402437448501587,1.4727641344070435,-1.1668120622634888,0.5744608640670776, 0.23103296756744385
83,136983300,0.11469083,-0.65432495,-0.0051597874,-0.7474479,9.673051834106445,-1.406139612197876,1.4749757051467896,-1.0492243766784668,0.5596951842308044, 0.3721845746040344
84,136999967,0.114819914,-0.6542819,-0.0051874523,-0.74746555,9.666618347167969,-1.3965924978256226,1.4851027727127075,-0.9735003709793091,0.3713137209415436, 0.30995848774909973
85,137016634,0.114863135,-0.6542683,-0.0051564053,-0.747471,9.6686429977417,-1.4079947471618652,1.4770419597625732,-1.153672695159912,0.12787780165672302, 0.22124889492988586
86,137033301,0.114980586,-0.654276,-0.0051910137,-0.74744606,9.662084579467773,-1.390020728111267,1.484938144683838,-1.3984020948410034,-0.03630600497126579, 0.19902989268302917
87,137049968,0.11504112,-0.6542882,-0.0051849266,-0.74742603,9.687224388122559,-1.3821183443069458,1.4572490453720093,-1.6073634624481201,-0.04856168106198311, 0.12605930864810944
88,137066635,0.11493988,-0.65432847,-0.0050348765,-0.7474073,9.696833610534668,-1.3967126607894897,1.4957985877990723,-1.6884533166885376,-0.283378928899765, 0.15159519016742706
89,137083302,0.115019076,-0.6543764,-0.0050409776,-0.74735326,9.666769981384277,-1.4143407344818115,1.4861547946929932,-1.6266498565673828,-0.377287894487381, 0.17818114161491394
90,137099969,0.11500188,-0.65444905,-0.004976844,-0.74729264,9.660355567932129,-1.4197112321853638,1.467209815979004,-1.58588707447052,-0.6092364192008972, 0.12871021032333374
91,137116636,0.114932485,-0.6545279,-0.0048748273,-0.74723494,9.674271583557129,-1.3899043798446655,1.476180911064148,-1.5980018377304077,-0.6630231142044067, 0.08966365456581116
92,137133303,0.114864215,-0.6546043,-0.004747842,-0.7471793,9.663389205932617,-1.3805086612701416,1.4730948209762573,-1.8782687187194824,-0.5998622179031372, 0.18533989787101746
93,137149970,0.114811696,-0.65468496,-0.00462791,-0.7471175,9.689373016357422,-1.3963580131530762,1.455116868019104,-1.9530577659606934,-0.6306871175765991, 0.21483290195465088
94,137166637,0.11475767,-0.654778,-0.0045059873,-0.7470451,9.67376708984375,-1.4111396074295044,1.4696885347366333,-2.1347544193267822,-0.7177446484565735, 0.20380666851997375
95,137183304,0.114688,-0.6548745,-0.0043811155,-0.74697196,9.665234565734863,-1.3987606763839722,1.4713866710662842,-2.4402501583099365,-0.7080118656158447, 0.1061326265335083
96,137199971,0.11453409,-0.65498626,-0.00418605,-0.7468986,9.664484024047852,-1.4058698415756226,1.4657396078109741,-3.1651663780212402,-0.7403478622436523, -0.004623092245310545
97,137216638,0.11442817,-0.65512925,-0.004038817,-0.74679035,9.644600868225098,-1.408027172088623,1.447863221168518,-3.3485403060913086,-1.0060540437698364, -0.0342697910964489
98,137233305,0.11427423,-0.6552893,-0.0038598843,-0.7466743,9.652364730834961,-1.4259605407714844,1.4324661493301392,-3.33024001121521,-1.166005253791809, -0.07135697454214096
99,137249972,0.11397216,-0.6554668,-0.0035608658,-0.7465661,9.653607368469238,-1.424690842628479,1.432474136352539,-3.2402243614196777,-1.3348058462142944, -0.09795577079057693
100,137266639,0.1137859,-0.6556547,-0.0033801172,-0.7464305,9.656371116638184,-1.4206490516662598,1.4495691061019897,-2.9798965454101562,-1.4770076274871826, -0.1395251750946045
101,137283306,0.113646515,-0.65584844,-0.0032677336,-0.74628204,9.66213607788086,-1.4062350988388062,1.4662295579910278,-2.6854662895202637,-1.5808544158935547, -0.23508617281913757
102,137299973,0.11351924,-0.6560336,-0.0031975023,-0.746139,9.68301773071289,-1.3970674276351929,1.4437180757522583,-2.521045207977295,-1.5315881967544556, -0.3813090920448303
103,137316640,0.11338012,-0.6562058,-0.003109643,-0.746009,9.698341369628906,-1.3912996053695679,1.4200923442840576,-2.7907345294952393,-1.3755813837051392, -0.3906577527523041
104,137333307,0.113318816,-0.65635014,-0.0030915411,-0.7458913,9.663071632385254,-1.4311376810073853,1.422925591468811,-2.5460686683654785,-1.1596150398254395, -0.38234636187553406
105,137349974,0.1131845,-0.6564467,-0.0030049633,-0.7458271,9.666143417358398,-1.4229204654693604,1.4167340993881226,-2.2618958950042725,-0.7589555978775024, -0.35982003808021545
106,137366641,0.11305375,-0.6565167,-0.0029328866,-0.7457857,9.661951065063477,-1.4074022769927979,1.427176594734192,-2.3955047130584717,-0.49782127141952515, -0.46027305722236633
107,137383308,0.11304407,-0.6564829,-0.0029564418,-0.7458167,9.685312271118164,-1.4043021202087402,1.4440540075302124,-1.727141261100769,0.3527701199054718, -0.39223286509513855
108,137399975,0.1129724,-0.6563114,-0.003001285,-0.74597836,9.702288627624512,-1.4009302854537964,1.4592441320419312,-1.0413227081298828,1.5168927907943726, -0.8031758069992065
109,137416642,0.11302542,-0.65594596,-0.0031283903,-0.74629134,9.70738697052002,-1.4305057525634766,1.4990679025650024,0.20266689360141754,3.1119236946105957, -0.6392929553985596
110,137433309,0.11319461,-0.6555481,-0.003316482,-0.7466142,9.632072448730469,-1.4064884185791016,1.4459065198898315,-0.08581534773111343,3.439842939376831, -0.49340295791625977
111,137449976,0.11316139,-0.6552457,-0.0033998892,-0.7468842,9.649248123168945,-1.415195345878601,1.4548242092132568,-0.6935662627220154,2.6510231494903564, -0.8865196108818054
112,137466643,0.112989485,-0.6550873,-0.0034116597,-0.7470491,9.632420539855957,-1.407279372215271,1.44890296459198,-1.9129867553710938,1.5044962167739868, -1.2089321613311768
113,137483310,0.11271215,-0.65505433,-0.0034139385,-0.74711996,9.654133796691895,-1.41585373878479,1.449627161026001,-2.352936267852783,0.4133825898170471, -1.6056088209152222
114,137499977,0.1124101,-0.6551352,-0.0034625581,-0.74709433,9.660640716552734,-1.413021445274353,1.4453907012939453,-2.982893466949463,-0.5459091067314148, -1.9623169898986816
115,137516644,0.11210324,-0.65529525,-0.0035750046,-0.7469996,9.64611530303955,-1.4092036485671997,1.4599956274032593,-2.817755937576294,-1.303558588027954, -2.2319934368133545
116,137533311,0.11161021,-0.6555156,-0.0035621924,-0.7468801,9.680425643920898,-1.3867099285125732,1.473366618156433,-3.5520846843719482,-1.7500773668289185, -2.4895291328430176
117,137549978,0.111139275,-0.65573156,-0.0035698877,-0.7467606,9.693877220153809,-1.4032843112945557,1.4989070892333984,-3.769472599029541,-1.685750961303711, -2.529266834259033
118,137566645,0.11062713,-0.6559839,-0.0036062486,-0.74661493,9.675966262817383,-1.4217379093170166,1.4433735609054565,-3.4765655994415283,-2.071119785308838, -2.798584461212158
119,137583312,0.11015082,-0.6562776,-0.0037532246,-0.7464267,9.663117408752441,-1.406672716140747,1.4333082437515259,-3.067082405090332,-2.519866943359375, -3.123225212097168
120,137599979,0.109606795,-0.6566311,-0.0039242893,-0.7461947,9.678308486938477,-1.4140878915786743,1.4225503206253052,-3.002756118774414,-3.088737964630127, -3.506032705307007
121,137616646,0.10908311,-0.657046,-0.004154887,-0.74590504,9.684670448303223,-1.3745193481445312,1.4372451305389404,-3.0273959636688232,-3.6581218242645264, -3.6808531284332275
122,137633313,0.10851006,-0.6575168,-0.0043957923,-0.7455723,9.704730987548828,-1.3657652139663696,1.434205174446106,-3.417848587036133,-4.127089977264404, -3.971928358078003
123,137649980,0.107857965,-0.6580389,-0.0046113273,-0.7452049,9.713215827941895,-1.3586254119873047,1.4233428239822388,-3.2130751609802246,-4.635732650756836, -4.134441375732422
124,137666647,0.10714239,-0.6585639,-0.004823846,-0.74484295,9.748021125793457,-1.3239808082580566,1.421028733253479,-2.9884135723114014,-4.702927589416504, -4.37863302230835
125,137683314,0.10659649,-0.65908754,-0.0052060364,-0.7444554,9.718904495239258,-1.3123047351837158,1.393254041671753,-2.568263053894043,-4.77087926864624, -4.422699928283691
126,137699981,0.10596566,-0.65963304,-0.00555165,-0.7440596,9.705294609069824,-1.2946816682815552,1.3440669775009155,-2.497084856033325,-4.989828586578369, -4.595481872558594
127,137716648,0.105302975,-0.6601856,-0.0058979937,-0.7436609,9.717389106750488,-1.3075332641601562,1.3351006507873535,-2.4676811695098877,-5.066704273223877, -4.734891891479492
128,137733315,0.10465993,-0.6606729,-0.0062806155,-0.7433157,9.746476173400879,-1.2656755447387695,1.398847222328186,-2.3550500869750977,-4.490048408508301, -4.8688859939575195
129,137749982,0.10411556,-0.66103375,-0.0067739766,-0.74306697,9.719878196716309,-1.245287299156189,1.3400193452835083,-1.7267447710037231,-3.4276974201202393, -5.000714302062988
130,137766649,0.10340407,-0.66141003,-0.0071234903,-0.7428283,9.717172622680664,-1.248179316520691,1.3315849304199219,-2.054074764251709,-3.5221176147460938, -5.0554094314575195
131,137783316,0.10272934,-0.6618492,-0.00752307,-0.74252665,9.700048446655273,-1.2250765562057495,1.3013471364974976,-2.057621955871582,-4.117613315582275, -5.095915794372559
132,137799983,0.10207866,-0.66236496,-0.007985341,-0.7421516,9.721746444702148,-1.243672490119934,1.2831170558929443,-2.139070987701416,-4.830761432647705, -5.259902477264404
133,137816650,0.10142114,-0.6629133,-0.008444467,-0.74174696,9.710434913635254,-1.2115217447280884,1.2886550426483154,-1.9785429239273071,-5.16129207611084, -5.2295379638671875
134,137833317,0.101096615,-0.66298467,-0.0091692,-0.7417189,9.976036071777344,-1.3557013273239136,1.881173849105835,0.7702956199645996,-1.1294561624526978, -5.0862345695495605
135,137849984,0.10149173,-0.6615604,-0.010026467,-0.7429244,10.047018051147461,-1.3444205522537231,2.0621256828308105,6.192891597747803,11.970108032226562, -2.9183766841888428
136,137866651,0.10148732,-0.66021556,-0.010545726,-0.7441134,9.542652130126953,-0.9213457703590393,1.2238562107086182,2.352367877960205,11.67578125, -3.4429376125335693
137,137883318,0.101036064,-0.65972435,-0.0108776735,-0.74460554,9.494283676147461,-0.9726945161819458,1.064228892326355,-1.6732394695281982,4.305527687072754, -4.380809307098389
138,137899985,0.10036022,-0.65994483,-0.011149368,-0.7444974,9.55728816986084,-1.0371981859207153,1.2388614416122437,-3.4625303745269775,-2.0218029022216797, -4.778242111206055
139,137916652,0.09946122,-0.6605331,-0.011352589,-0.74409324,9.650335311889648,-1.084611415863037,1.3296562433242798,-4.9448018074035645,-5.227694034576416, -5.356090545654297
140,137933319,0.09833471,-0.66138566,-0.011456719,-0.74348384,9.725764274597168,-1.0816794633865356,1.3555747270584106,-5.847662448883057,-7.555889129638672, -5.803852081298828
141,137949986,0.09713339,-0.662482,-0.011550355,-0.74266374,9.718693733215332,-1.1404259204864502,1.300889492034912,-6.3715338706970215,-9.76578140258789, -5.972871780395508
142,137966653,0.09606236,-0.6637771,-0.011835294,-0.74164146,9.713872909545898,-1.1101553440093994,1.3200113773345947,-4.834041595458984,-11.828631401062012, -6.0213704109191895
143,137983320,0.09520927,-0.6652169,-0.012358469,-0.740452,9.76286506652832,-1.1009962558746338,1.2287609577178955,-3.614351749420166,-13.37885570526123, -5.982580661773682
144,137999987,0.09429221,-0.66675735,-0.012886365,-0.7391736,9.74365234375,-1.0645033121109009,1.2048779726028442,-2.6525814533233643,-14.446662902832031, -6.115805149078369
145,138016654,0.093420364,-0.66841906,-0.013463207,-0.7377719,9.773056983947754,-1.0654054880142212,1.218390941619873,-2.608246088027954,-15.621227264404297, -6.0604705810546875
146,138033321,0.092481375,-0.670209,-0.014008006,-0.7362547,9.76257038116455,-1.0401543378829956,1.154779314994812,-2.7548158168792725,-16.834556579589844, -6.1302924156188965
147,138049988,0.091541775,-0.67203015,-0.01461579,-0.73469865,9.786741256713867,-1.0697511434555054,0.9792980551719666,-3.1656949520111084,-17.14321517944336, -6.469736576080322
148,138066655,0.09038806,-0.67387474,-0.015058582,-0.73314124,9.752699851989746,-0.9661027789115906,0.9233065247535706,-3.493025779724121,-17.33167266845703, -6.649397373199463
149,138083322,0.08924311,-0.6757494,-0.015516123,-0.7315447,9.732645988464355,-1.0060023069381714,0.9566366672515869,-3.842101812362671,-17.623363494873047, -6.692298889160156
150,138099989,0.08812989,-0.6776994,-0.015964454,-0.7298643,9.856645584106445,-1.0559475421905518,1.1667571067810059,-4.208389759063721,-18.340564727783203, -6.473491191864014
151,138116656,0.08690671,-0.6798308,-0.016242765,-0.7280204,9.98435115814209,-1.0284849405288696,1.30125093460083,-4.400294303894043,-20.05490493774414, -6.026806354522705
152,138133323,0.08562417,-0.68244773,-0.01636994,-0.7257174,9.608952522277832,-1.135559320449829,1.5739390850067139,-5.7582221031188965,-24.566389083862305, -5.312534809112549
153,138149990,0.08424281,-0.68578076,-0.016874485,-0.72271925,9.767413139343262,-1.072479009628296,1.7180901765823364,-5.400880813598633,-31.615720748901367, -7.161299228668213
154,138166657,0.08280227,-0.6899638,-0.017742947,-0.7188735,10.235809326171875,-0.6410010457038879,1.9428319931030273,-2.8122270107269287,-40.24474334716797, -8.527324676513672
155,138183324,0.08153237,-0.6951689,-0.018679013,-0.7139635,10.457867622375488,-0.8202905058860779,2.2600011825561523,-1.9339172840118408,-50.4482307434082, -7.287698268890381
156,138199991,0.08039003,-0.7013427,-0.02009074,-0.7079917,10.693777084350586,-0.554021954536438,2.212770938873291,0.1488693505525589,-60.59747314453125, -8.256272315979004
157,138216658,0.07914568,-0.7085936,-0.02183086,-0.7008242,11.039047241210938,-0.6248195767402649,2.359747886657715,2.0988523960113525,-72.01526641845703, -9.539690017700195
158,138233325,0.07812665,-0.7167854,-0.024275277,-0.69247806,11.41417121887207,-0.9189435839653015,2.2951841354370117,5.50177526473999,-82.72260284423828, -11.12661075592041
159,138249992,0.07763781,-0.72558093,-0.027482308,-0.683191,11.650961875915527,-1.3154186010360718,2.5341732501983643,9.801011085510254,-90.56914520263672, -11.723550796508789
160,138266659,0.07751583,-0.73476887,-0.031978004,-0.67311466,11.934785842895508,-1.2608877420425415,2.2832789421081543,17.528276443481445,-97.14061737060547, -15.960692405700684
161,138283326,0.07813973,-0.7438744,-0.03701319,-0.6627029,11.87229061126709,-1.7202566862106323,1.9998323917388916,23.698497772216797,-98.73995208740234, -15.082763671875
162,138299993,0.07823348,-0.75239474,-0.040837258,-0.6527741,11.430519104003906,-1.7973213195800781,0.8430792689323425,15.594157218933105,-93.26190185546875, -11.760830879211426
163,138316660,0.07792807,-0.75975114,-0.041983753,-0.64416075,10.625740051269531,-4.007020473480225,0.7376657724380493,1.3317816257476807,-79.99927520751953, -0.7368428111076355
164,138333327,0.08332524,-0.7634761,-0.044886276,-0.6388632,7.690466403961182,-2.939349412918091,6.870002746582031,39.839820861816406,-46.013771057128906, 12.336146354675293
165,138349994,0.09207784,-0.76195043,-0.049886514,-0.63911223,7.205738067626953,-1.4764024019241333,9.540093421936035,67.89896392822266,5.5227861404418945, 11.160057067871094
166,138366661,0.099294156,-0.75566435,-0.053040646,-0.64521235,7.385518550872803,-1.1834415197372437,8.314323425292969,52.68181610107422,57.11075973510742, 8.73918342590332
167,138383328,0.10405269,-0.74496967,-0.053773794,-0.65673566,8.09909439086914,-0.8500524759292603,7.990176200866699,30.842098236083984,105.00696563720703, 5.009178638458252
168,138399995,0.106557116,-0.7303466,-0.05231515,-0.6726831,8.822948455810547,-0.6643874645233154,6.293948173522949,10.740409851074219,145.6224822998047, 1.4461311101913452
169,138416662,0.10744288,-0.7124659,-0.048398126,-0.6917413,9.886263847351074,-1.220859169960022,5.073446273803711,-7.2012810707092285,177.1272735595703, 2.8693430423736572
170,138433329,0.10787243,-0.69195145,-0.042487208,-0.7125739,10.604591369628906,-1.4180434942245483,4.017654895782471,-17.509706497192383,199.3834991455078, 8.286873817443848
171,138449996,0.108279735,-0.66957015,-0.035438087,-0.73395896,11.247527122497559,-1.4372384548187256,2.906431198120117,-22.047027587890625,211.82293701171875, 12.63167953491211
172,138466663,0.10990549,-0.64624,-0.028857252,-0.75462705,11.697696685791016,-1.5711443424224854,1.8987460136413574,-13.229000091552734,213.18589782714844, 16.9271183013916
173,138483330,0.11410966,-0.6227957,-0.025318105,-0.77360445,11.941631317138672,-1.328102469444275,0.8140175938606262,14.090799331665039,204.53732299804688, 18.005029678344727
174,138499997,0.12060755,-0.60023814,-0.025398659,-0.7902676,11.998801231384277,-1.0451316833496094,-0.1409863829612732,42.16644287109375,187.6750946044922, 16.553773880004883
175,138516664,0.12969351,-0.57910544,-0.0296062,-0.80432594,11.672715187072754,-1.195366621017456,-1.2085397243499756,74.1598892211914,166.47799682617188, 15.93969440460205
176,138533331,0.13989256,-0.55954504,-0.036554016,-0.8160903,11.283798217773438,-0.53111732006073,-2.1085875034332275,92.2380142211914,146.80169677734375, 13.394418716430664
177,138549998,0.14975744,-0.5428748,-0.043844454,-0.8251893,10.229104995727539,-1.1865243911743164,-3.99100661277771,90.95765686035156,120.27017974853516, 13.636209487915039
178,138566665,0.15838386,-0.5310342,-0.049414504,-0.8309486,9.105032920837402,-2.2395260334014893,-5.8789567947387695,72.69232177734375,82.2664566040039, 17.97063446044922
179,138583332,0.16447976,-0.52497,-0.051687956,-0.8334754,8.725555419921875,-2.263004779815674,-7.08278751373291,39.382354736328125,40.75941848754883, 20.920408248901367
180,138599999,0.16829558,-0.525295,-0.052382886,-0.83246505,8.266840934753418,-1.7371001243591309,-8.201359748840332,16.58396339416504,-7.065165996551514, 19.93900489807129
181,138616666,0.1698351,-0.531526,-0.05151971,-0.8282402,8.3493013381958,-0.9176284074783325,-8.27458667755127,-6.120691776275635,-50.84306335449219, 18.364784240722656
182,138633333,0.16934657,-0.54196113,-0.047905967,-0.8217695,9.060133934020996,-1.885271430015564,-4.92692232131958,-33.015869140625,-79.86799621582031, 21.10840606689453
183,138650000,0.17485902,-0.5494813,-0.050318565,-0.8154525,11.782830238342285,-2.3569228649139404,14.097041130065918,27.017711639404297,-67.4105224609375, 31.477285385131836
184,138666667,0.18935072,-0.55120254,-0.06657877,-0.80986995,8.65063762664795,6.851766109466553,9.110963821411133,145.20510864257812,-46.14021301269531, 26.542776107788086
185,138683334,0.19066069,-0.5592192,-0.07210298,-0.8035693,15.537585258483887,5.761078834533691,-2.2442851066589355,27.384857177734375,-76.25428771972656, -1.9297568798065186
186,138700001,0.1867265,-0.5735529,-0.06430704,-0.7950063,15.068316459655762,-6.979755401611328,-3.9294211864471436,-73.63440704345703,-104.54608154296875, 26.806936264038086
187,138716668,0.19356696,-0.5866427,-0.06568452,-0.7836248,12.215574264526367,0.05812732130289078,3.491243600845337,22.420751571655273,-115.41474914550781, 52.46253204345703
188,138733335,0.19353853,-0.5984265,-0.06386301,-0.77482265,7.7834882736206055,-2.88100004196167,-0.5738775730133057,-21.809410095214844,-96.8099136352539, 24.452068328857422
189,138750002,0.1937821,-0.60743916,-0.063275695,-0.7677647,11.001002311706543,-3.9200406074523926,0.3998575806617737,-11.144598960876465,-76.2401123046875, 17.174259185791016
190,138766669,0.19325028,-0.61442125,-0.061874107,-0.7624386,10.56928539276123,-1.511108636856079,1.2177815437316895,-16.715450286865234,-57.39942932128906, 13.14723014831543
191,138783336,0.19170882,-0.6198894,-0.059110086,-0.75861126,10.13980770111084,-0.9941198825836182,1.4284899234771729,-26.812179565429688,-41.66842269897461, 10.956507682800293
192,138800003,0.19186875,-0.62423706,-0.05624191,-0.75521624,10.669770240783691,-1.0961841344833374,1.4501584768295288,-18.73029136657715,-33.12084197998047, 19.295061111450195
193,138816670,0.19649547,-0.62737817,-0.056521006,-0.75139314,9.883463859558105,-1.015060305595398,1.010915994644165,18.515810012817383,-31.07232093811035, 29.099775314331055
194,138833337,0.20314285,-0.62944263,-0.059001498,-0.74769914,9.489900588989258,-1.184187889099121,1.8754945993423462,40.02764129638672,-27.096288681030273, 29.475767135620117
195,138850004,0.20727547,-0.63200754,-0.059040356,-0.74439085,9.641487121582031,-1.5700082778930664,2.640794277191162,15.733464241027832,-25.613447189331055, 26.791183471679688
196,138866671,0.20864832,-0.6354771,-0.056503374,-0.7412438,8.748514175415039,-1.4782222509384155,2.4528512954711914,-10.760512351989746,-27.047224044799805, 24.007333755493164
197,138883338,0.20750171,-0.63973147,-0.052009284,-0.73822886,9.06733226776123,-1.6603155136108398,2.2774226665496826,-32.98677062988281,-28.6817569732666, 19.827957153320312
198,138900005,0.20637964,-0.64459085,-0.047762387,-0.73459446,9.856578826904297,-2.6180014610290527,1.8417410850524902,-32.24069595336914,-34.86941909790039, 19.974685668945312
199,138916672,0.20632102,-0.6495574,-0.045358296,-0.7303765,9.647324562072754,-2.555616855621338,1.299883246421814,-18.54724884033203,-40.20271682739258, 17.9442138671875
200,138933339,0.20721054,-0.654313,-0.04450848,-0.72591823,9.862054824829102,-2.214327573776245,0.7680599689483643,-6.123695373535156,-42.119544982910156, 16.010799407958984
201,138950006,0.20817366,-0.6588305,-0.043978933,-0.7215761,9.83914852142334,-2.0642611980438232,0.6466114521026611,-3.8796579837799072,-40.81226348876953, 14.692048072814941
202,138966673,0.20866,-0.66293234,-0.04306851,-0.7177234,9.904736518859863,-2.2015302181243896,0.74720698595047,-7.4739155769348145,-36.10307693481445, 13.228768348693848
203,138983340,0.20881261,-0.66644716,-0.04182868,-0.71448994,9.926620483398438,-2.1961007118225098,0.5766390562057495,-9.955350875854492,-29.99494743347168, 12.021491050720215
204,139000007,0.20887682,-0.6695083,-0.040518258,-0.71167934,9.792083740234375,-2.1800103187561035,0.5521711111068726,-10.170526504516602,-25.730636596679688, 11.175732612609863
205,139016674,0.20872104,-0.67241746,-0.03913191,-0.7090553,9.590754508972168,-2.3141205310821533,0.6954365372657776,-11.382701873779297,-24.06351089477539, 10.14266586303711
206,139033341,0.20805523,-0.67546654,-0.037561383,-0.7064327,9.472000122070312,-2.3668808937072754,0.9958411455154419,-14.836921691894531,-24.60831069946289, 8.540024757385254
207,139050008,0.20679028,-0.67882556,-0.0356555,-0.7036778,9.428535461425781,-2.2645034790039062,1.0312434434890747,-19.659093856811523,-26.417659759521484, 7.451206207275391
208,139066675,0.20496905,-0.68254524,-0.03349012,-0.7007126,9.38383960723877,-2.408318281173706,0.9814956188201904,-23.97605323791504,-28.933542251586914, 6.359479904174805
209,139083342,0.20304452,-0.6865832,-0.031411935,-0.69741666,9.312938690185547,-2.5165631771087646,0.781834065914154,-24.41721534729004,-32.189231872558594, 5.986727714538574
210,139100009,0.20121834,-0.69092727,-0.029671151,-0.6937222,9.328447341918945,-2.454925537109375,0.6528764963150024,-22.679471969604492,-36.005409240722656, 5.476920127868652
211,139116676,0.19957453,-0.69561183,-0.028399931,-0.6895561,9.4559965133667,-2.37203311920166,0.6285204887390137,-19.95169448852539,-40.4993782043457, 4.830878257751465
212,139133343,0.19797532,-0.7005895,-0.027323263,-0.68500656,9.603995323181152,-2.152653694152832,0.4387397766113281,-19.14769744873047,-44.0019645690918, 4.6940836906433105
213,139150010,0.19607718,-0.70588696,-0.02612532,-0.6801434,9.580219268798828,-2.260268449783325,0.3047112226486206,-21.539356231689453,-46.92754364013672, 4.369356155395508
214,139166677,0.19433178,-0.7112719,-0.025234492,-0.6750488,9.703714370727539,-2.624220371246338,0.23728182911872864,-19.44208526611328,-48.86308670043945, 3.92743182182312
215,139183344,0.19259058,-0.7166667,-0.024565779,-0.6698466,9.764530181884766,-2.420132875442505,-0.07130783796310425,-18.390317916870117,-49.75297164916992, 2.996785879135132
216,139200011,0.19062911,-0.72209996,-0.024064967,-0.66456985,9.86424732208252,-2.45910382270813,-0.065266452729702,-18.743871688842773,-50.56989288330078, 1.261969804763794
217,139216678,0.18835005,-0.7277094,-0.023510614,-0.6590985,9.810746192932129,-2.6096014976501465,-0.08394880592823029,-20.76935577392578,-52.344120025634766, 0.3620332181453705
218,139233345,0.18598758,-0.7336083,-0.023394872,-0.6532078,9.740890502929688,-2.6857810020446777,-0.15741606056690216,-19.513330459594727,-56.36297607421875, -1.6272464990615845
219,139250012,0.18326181,-0.7399318,-0.023943821,-0.6467943,10.062650680541992,-2.6867499351501465,-0.0685742050409317,-18.829069137573242,-61.845340728759766, -5.886743545532227
220,139266679,0.18000358,-0.7466769,-0.025160914,-0.6398744,10.551916122436523,-2.11002254486084,0.05586493760347366,-19.027677536010742,-67.27124786376953, -10.955296516418457
221,139283346,0.17616138,-0.7540435,-0.026554143,-0.6322029,10.724105834960938,-2.217616319656372,0.14360344409942627,-21.903675079345703,-74.24606323242188, -13.368556022644043
222,139300013,0.17213406,-0.7620228,-0.028469125,-0.62360305,10.849494934082031,-2.137556314468384,0.09923000633716583,-21.185256958007812,-82.46683502197266, -15.625839233398438
223,139316680,0.16777597,-0.77068204,-0.030873928,-0.6139604,10.935388565063477,-1.8622578382492065,-0.054147109389305115,-21.436155319213867,-91.57858276367188, -18.22515106201172
224,139333347,0.16270092,-0.78001183,-0.033978112,-0.6032875,11.632482528686523,-1.782163143157959,0.36092856526374817,-22.8520450592041,-100.92208099365234, -23.598661422729492
225,139350014,0.15765476,-0.78981715,-0.03847252,-0.5914846,13.002779960632324,-2.3204545974731445,0.835673451423645,-17.216657638549805,-110.6381607055664, -29.52568244934082
226,139366681,0.15257338,-0.80023384,-0.042816576,-0.5783721,13.168630599975586,-1.5413087606430054,1.172656774520874,-18.36432456970215,-120.26923370361328, -27.25464630126953
227,139383348,0.14699557,-0.8112619,-0.04715969,-0.5639351,13.818169593811035,-1.8319644927978516,1.4838300943374634,-21.372648239135742,-130.3567352294922, -27.60785675048828
228,139400015,0.14191197,-0.82234037,-0.05173357,-0.54858124,14.654780387878418,-1.0233697891235352,2.618034839630127,-17.501747131347656,-136.00193786621094, -26.003877639770508
229,139416682,0.13630065,-0.83361715,-0.055549785,-0.5323712,14.510740280151367,0.47177278995513916,2.580430030822754,-23.254249572753906,-141.38833618164062, -22.739038467407227
230,139433349,0.12946583,-0.84496313,-0.059062034,-0.51554614,14.38571548461914,0.3060665428638458,2.6989779472351074,-31.20067596435547,-145.7140350341797, -24.75611686706543
231,139450016,0.123869956,-0.8549462,-0.06251147,-0.49981585,14.472390174865723,-2.113126039505005,2.3296947479248047,-23.44409942626953,-134.34645080566406, -21.431724548339844
232,139466683,0.11741018,-0.86456126,-0.06425444,-0.48437628,14.15502643585205,-4.039633750915527,-1.2123576402664185,-34.233150482177734,-130.67568969726562, -14.790375709533691
233,139483350,0.11374781,-0.87401026,-0.0645624,-0.4679739,11.127955436706543,-4.860007286071777,-1.5421161651611328,-21.88782501220703,-133.698486328125, 3.6654462814331055
234,139500017,0.11175658,-0.88195956,-0.06416146,-0.45336682,9.335543632507324,-3.3571646213531494,2.013603687286377,-13.849855422973633,-116.96112823486328, 11.098166465759277
235,139516684,0.106509954,-0.88794696,-0.06219025,-0.44310105,7.2660675048828125,-0.34425124526023865,-0.5171463489532471,-38.988704681396484,-85.02721405029297, 6.177045822143555
236,139533351,0.09660465,-0.8909487,-0.05724519,-0.44000152,9.55124568939209,-2.8025612831115723,9.319668769836426,-77.37393951416016,-32.13468551635742, 3.5962209701538086
237,139550018,0.0912576,-0.88964915,-0.053352144,-0.4442413,4.322835445404053,-1.758439302444458,6.824211597442627,-46.43080520629883,26.370275497436523, 4.243727684020996
238,139566685,0.085947916,-0.88496506,-0.05038208,-0.4548756,6.498708724975586,-1.743329644203186,3.9529635906219482,-43.68110275268555,74.93880462646484, -6.652205467224121
239,139583352,0.087665886,-0.87679374,-0.04896013,-0.47026652,6.833926200866699,-3.410964012145996,3.654970407485962,4.284049034118652,116.04203033447266, 1.8091429471969604
240,139600019,0.09686522,-0.86481977,-0.05124328,-0.4899779,7.295422554016113,-2.0423052310943604,2.8491039276123047,62.12715530395508,154.420166015625, -0.3082917034626007
241,139616686,0.10759924,-0.8493176,-0.0544789,-0.51392066,8.574593544006348,-1.188499093055725,2.245370388031006,75.29232025146484,191.1547088623047, -4.854701042175293
242,139633353,0.11705296,-0.83052063,-0.0574533,-0.5415102,9.82086181640625,-0.9169573187828064,1.6094907522201538,67.96405792236328,223.5992889404297, -11.735981941223145
243,139650020,0.124466546,-0.8084389,-0.059763476,-0.5721566,10.973958015441895,-0.7863283157348633,0.46065184473991394,55.29398727416992,252.83432006835938, -19.24526596069336
244,139666687,0.12772174,-0.78340185,-0.060176194,-0.60526675,12.079410552978516,-0.0793570950627327,0.0025967061519622803,26.26305389404297,277.95184326171875, -28.347875595092773
245,139683354,0.12668599,-0.75605494,-0.05776203,-0.6395276,13.200536727905273,-0.900160014629364,-1.1072046756744385,-7.016273021697998,294.39263916015625, -32.922149658203125
246,139700021,0.12622058,-0.72678983,-0.054241672,-0.67298067,14.195134162902832,-2.478440523147583,-2.1833245754241943,-6.870891094207764,299.8159484863281, -24.747821807861328
247,139716688,0.1298472,-0.69599783,-0.050621852,-0.70438945,14.857405662536621,-2.743777275085449,-3.2874956130981445,15.253453254699707,298.36724853515625, -4.177208423614502
248,139733355,0.13766047,-0.6641188,-0.04807465,-0.7332702,14.291646003723145,-2.7587506771087646,-4.285068511962891,42.37557601928711,292.2244873046875, 12.809020042419434
249,139750022,0.15001139,-0.6310674,-0.049302284,-0.7594868,13.64362907409668,-2.132577419281006,-4.450212001800537,84.16105651855469,284.18133544921875, 20.592605590820312
250,139766689,0.16170253,-0.5972709,-0.053992927,-0.7837124,13.361069679260254,0.1713232696056366,-4.9966278076171875,100.86756134033203,275.9693298339844, 3.9816110134124756
251,139783356,0.16829379,-0.5647958,-0.057928074,-0.8058087,14.358382225036621,-0.3056795597076416,-5.012502670288086,75.1899642944336,259.428955078125, -17.40076446533203
252,139800023,0.16995496,-0.5346963,-0.05578498,-0.8258956,15.02412223815918,-0.8028653264045715,-7.950948715209961,20.437442779541016,243.9620361328125, -17.763633728027344
253,139816690,0.1708138,-0.5095849,-0.049734473,-0.8418269,13.382759094238281,-3.8172645568847656,-11.741747856140137,-8.904913902282715,205.19845581054688, -1.1611452102661133
254,139833357,0.17607163,-0.49183556,-0.047264785,-0.85138893,10.389015197753906,-5.020631790161133,-13.28646469116211,20.870807647705078,138.28700256347656, 21.669429779052734
255,139850024,0.18241738,-0.4844975,-0.048281938,-0.8541986,8.805723190307617,-4.1273627281188965,-14.833258628845215,34.69291687011719,51.365760803222656, 27.685937881469727
256,139866691,0.18822555,-0.48698565,-0.050424613,-0.8513951,10.193225860595703,-6.018344879150391,-13.869803428649902,29.184612274169922,-25.890783309936523, 30.98952865600586
257,139883358,0.19398095,-0.49770206,-0.0560216,-0.8435199,8.388198852539062,-2.6444332599639893,-15.272370338439941,40.51140213012695,-94.80599212646484, 28.372949600219727
258,139900025,0.204161,-0.50630796,-0.06893957,-0.8349959,14.421053886413574,-1.1218063831329346,17.326560974121094,101.27812957763672,-92.13636016845703, 28.962158203125
259,139916692,0.21098056,-0.51433617,-0.08134708,-0.82724154,11.815415382385254,11.219708442687988,3.4612274169921875,87.04179382324219,-87.37570190429688, 10.079978942871094
260,139933359,0.20308232,-0.53093153,-0.06989456,-0.8197465,18.720535278320312,-5.229703903198242,-4.066097736358643,-113.53939056396484,-108.73311614990234, 15.602331161499023
261,139950026,0.2066528,-0.5477816,-0.068114854,-0.80783075,14.158817291259766,-4.240575790405273,-0.8640456795692444,-15.268975257873535,-133.81497192382812, 51.13913345336914
262,139966693,0.20769584,-0.56375927,-0.064238384,-0.79681337,11.667193412780762,2.9881951808929443,1.0225193500518799,-35.53243637084961,-123.53380584716797, 43.23048400878906
263,139983360,0.20920111,-0.5755585,-0.062505044,-0.788074,9.71042251586914,-4.1258063316345215,-1.304384469985962,-17.07902717590332,-94.55244445800781, 32.53239822387695
264,140000027,0.21220984,-0.58426696,-0.06179976,-0.78088427,11.023884773254395,-2.773547887802124,0.9964147210121155,-1.7032057046890259,-72.33953094482422, 32.958343505859375
265,140016694,0.2130848,-0.59122425,-0.059754156,-0.7755504,9.295660972595215,-1.415731430053711,1.6401273012161255,-15.666840553283691,-54.350074768066406, 23.399681091308594
266,140033361,0.21361054,-0.5968245,-0.056957293,-0.7713152,10.102035522460938,-0.45496299862861633,1.54898202419281,-19.543180465698242,-41.66572189331055, 22.43773078918457
267,140050028,0.21558605,-0.6020032,-0.05383757,-0.76695275,11.230319023132324,-1.5700500011444092,1.5641361474990845,-14.6345853805542,-38.87935256958008, 31.52942657470703
268,140066695,0.21968734,-0.60636353,-0.052686293,-0.7624206,8.962298393249512,-2.2619822025299072,1.6402463912963867,5.838052272796631,-37.3611946105957, 34.55975341796875
269,140083362,0.22397414,-0.6099001,-0.053321585,-0.7582972,9.364258766174316,-2.4729669094085693,2.3788645267486572,17.09572982788086,-33.96449279785156, 27.14100456237793
270,140100029,0.22651106,-0.6139489,-0.05198384,-0.7543589,9.894932746887207,-1.9688544273376465,2.6156227588653564,-1.3699551820755005,-33.48402786254883, 26.166736602783203
271,140116696,0.226378,-0.61855733,-0.048280314,-0.75087214,8.506278991699219,-1.989611029624939,2.5683095455169678,-25.939010620117188,-31.779069900512695, 21.810766220092773
272,140133363,0.22481136,-0.623404,-0.043842595,-0.74759966,9.591373443603516,-2.438403844833374,2.292875289916992,-36.26640319824219,-31.472856521606445, 17.286497116088867
273,140150030,0.22333509,-0.6284986,-0.039695036,-0.7439997,9.7479829788208,-2.6772119998931885,1.6973928213119507,-34.667388916015625,-34.595314025878906, 17.093599319458008
274,140166697,0.22258799,-0.6334786,-0.03760211,-0.74009854,8.966451644897461,-2.8792197704315186,1.0440667867660522,-20.740161895751953,-38.27174758911133, 12.372745513916016
275,140183364,0.22296438,-0.63776106,-0.038008668,-0.73627657,9.30642318725586,-2.858428955078125,1.0903191566467285,-2.070362091064453,-37.90294647216797, 6.87831974029541
276,140200031,0.22376935,-0.6409444,-0.038614705,-0.7332302,9.727265357971191,-2.4398374557495117,1.171748161315918,2.3077051639556885,-29.12615966796875, 6.672917366027832
277,140216698,0.22442684,-0.64384806,-0.03874795,-0.73047316,9.510164260864258,-2.2782204151153564,1.1686427593231201,-0.37028372287750244,-25.751850128173828, 7.489178657531738
278,140233365,0.22455801,-0.64702153,-0.03818559,-0.7276531,9.555519104003906,-2.262646436691284,1.4389301538467407,-6.5923943519592285,-26.45589256286621, 8.096805572509766
279,140250032,0.22431068,-0.6506346,-0.037228633,-0.7245507,9.497100830078125,-2.3592171669006348,1.457398533821106,-10.857418060302734,-29.416179656982422, 8.515762329101562
280,140266699,0.22390005,-0.6548024,-0.036185294,-0.7209671,9.369641304016113,-2.4693527221679688,1.5747463703155518,-12.753063201904297,-34.26033401489258, 8.976816177368164
281,140283366,0.223237,-0.6596296,-0.034981593,-0.71681994,9.220880508422852,-2.538381814956665,1.505335807800293,-15.563482284545898,-39.909542083740234, 9.478971481323242
282,140300033,0.22260313,-0.6650005,-0.034056164,-0.7120832,9.317957878112793,-2.689366579055786,1.2310267686843872,-14.756933212280273,-45.71249771118164, 9.393415451049805
283,140316700,0.22220147,-0.6707749,-0.033566244,-0.70679647,9.480925559997559,-2.5996906757354736,0.9570339322090149,-12.054518699645996,-50.837013244628906, 9.467425346374512
284,140333367,0.22188094,-0.67691094,-0.033322353,-0.7010352,9.556896209716797,-2.3189079761505127,0.9148107767105103,-10.930459976196289,-55.15800094604492, 9.532265663146973
285,140350034,0.22148342,-0.68349653,-0.033049937,-0.6947557,9.562911987304688,-2.4263696670532227,0.9571818113327026,-11.998480796813965,-59.73244857788086, 10.194599151611328
286,140366701,0.22094205,-0.6904482,-0.03302698,-0.6880228,9.723024368286133,-2.3491830825805664,0.7654572129249573,-11.94395923614502,-64.052978515625, 9.112772941589355
287,140383368,0.21986234,-0.69780505,-0.033095296,-0.68090636,9.849764823913574,-2.50693678855896,0.6852848529815674,-14.604063034057617,-68.07852935791016, 6.816457271575928
288,140400035,0.21803796,-0.7057159,-0.033144187,-0.67329514,9.746224403381348,-2.602678060531616,0.6650403738021851,-19.001461029052734,-73.2166748046875, 4.303962230682373
289,140416702,0.21580032,-0.71388495,-0.033641923,-0.66533244,9.781291961669922,-3.0819196701049805,0.6515117287635803,-19.24797248840332,-76.92093658447266, 0.801701545715332
290,140433369,0.2127637,-0.72239244,-0.034342997,-0.65704006,9.985849380493164,-2.8982341289520264,0.1677418351173401,-22.680580139160156,-80.6159896850586, -3.2962820529937744
291,140450036,0.20897354,-0.73118716,-0.035091963,-0.6484321,10.26732349395752,-2.8697457313537598,-0.08786487579345703,-26.567358016967773,-83.76194763183594, -6.412032127380371
292,140466703,0.20414548,-0.7403012,-0.035970222,-0.6395195,10.884247779846191,-2.146080493927002,0.09247080981731415,-31.61052131652832,-87.18661499023438, -11.17343521118164
293,140483370,0.19845344,-0.74978447,-0.0367161,-0.63015234,11.496932983398438,-2.0475258827209473,0.4036903381347656,-37.015071868896484,-91.20279693603516, -13.538063049316406
294,140500037,0.19220129,-0.76000404,-0.037722453,-0.6197014,11.963294982910156,-1.84806489944458,0.6043779850006104,-39.52780532836914,-100.55204772949219, -15.605988502502441
295,140516704,0.18618633,-0.77059615,-0.040817082,-0.60815346,13.400795936584473,-2.7772369384765625,1.531803846359253,-29.624094009399414,-110.6641616821289, -23.919614791870117
296,140533371,0.18057074,-0.78193146,-0.044744436,-0.59495836,13.566527366638184,-1.6540143489837646,2.37372088432312,-24.5544490814209,-123.60005950927734, -24.32921028137207
297,140550038,0.17368788,-0.794465,-0.04871613,-0.5799007,14.533523559570312,-1.97188138961792,2.568385601043701,-32.13937759399414,-139.15213012695312, -27.0236759185791
298,140566705,0.16727778,-0.80759895,-0.051430076,-0.5631673,15.702957153320312,-1.5188888311386108,3.9210002422332764,-34.766414642333984,-149.2592315673828, -16.027002334594727
299,140583372,0.15893157,-0.82144713,-0.05193675,-0.5452232,16.008411407470703,0.4161446690559387,5.118198871612549,-54.50056838989258,-157.18751525878906, -9.56847095489502
300,140600039,0.14976583,-0.8352275,-0.05175974,-0.5265799,15.675411224365234,1.1489471197128296,4.925167083740234,-61.39409255981445,-160.78302001953125, -7.9340434074401855
301,140616706,0.14127511,-0.8473769,-0.05102815,-0.5093034,15.449075698852539,-1.8465605974197388,4.450681686401367,-58.33970642089844,-146.57666015625, -4.180013656616211
302,140633373,0.1304852,-0.85876995,-0.047844447,-0.493152,14.49818229675293,-3.9950995445251465,-1.5410315990447998,-80.02629089355469,-136.15394592285156, 0.7063643336296082
303,140650040,0.12223487,-0.8702802,-0.043335322,-0.47517738,11.637123107910156,-5.077421188354492,-0.5536637306213379,-69.07373809814453,-145.46688842773438, 18.758604049682617
304,140666707,0.11707564,-0.8792502,-0.03783433,-0.460197,7.9474263191223145,-3.6807730197906494,3.5569779872894287,-52.65254592895508,-117.65731811523438, 31.415414810180664
305,140683374,0.10518708,-0.885426,-0.03150088,-0.4516245,7.863702297210693,0.6720701456069946,2.7213003635406494,-95.4736328125,-71.3798828125, 9.177499771118164
306,140700041,0.093440466,-0.88650066,-0.024760298,-0.45251825,7.597132682800293,-2.488281011581421,11.998700141906738,-94.24009704589844,2.2070834636688232, 4.154669761657715
307,140716708,0.08746108,-0.8825924,-0.022050131,-0.46140587,3.708296775817871,-2.1386501789093018,6.361997127532959,-44.81259536743164,64.3836898803711, -8.54215145111084
308,140733375,0.086403616,-0.87473154,-0.023054447,-0.4762856,6.9990739822387695,-2.2401044368743896,4.649380207061768,-1.7469549179077148,111.58665466308594, -19.74370002746582
309,140750042,0.09444689,-0.8629677,-0.027817685,-0.49557343,7.61820650100708,-3.6195852756500244,3.2936012744903564,66.88220977783203,149.8727569580078, -15.815244674682617
310,140766709,0.10914269,-0.8470895,-0.036798097,-0.5188193,7.969662666320801,-2.2223117351531982,2.9837043285369873,122.60602569580078,185.73666381835938, -21.549076080322266
311,140783376,0.12402127,-0.82737756,-0.046442334,-0.5458098,8.769752502441406,-1.8967366218566895,2.7157106399536133,127.96183013916016,220.61077880859375, -28.501115798950195
312,140800043,0.13627484,-0.8036639,-0.055786587,-0.5765775,10.077622413635254,-0.9713575839996338,2.0645060539245605,114.11299896240234,256.3893127441406, -41.093502044677734
313,140816710,0.14257638,-0.77620804,-0.06257197,-0.6109487,10.906773567199707,-0.3341394066810608,2.1336464881896973,73.21979522705078,291.1349792480469, -55.30271530151367
314,140833377,0.14205585,-0.74550766,-0.06500267,-0.64793,12.614592552185059,-0.8530036807060242,-0.02233678102493286,20.597553253173828,319.9294738769531, -64.63717651367188
315,140850044,0.13882576,-0.7119471,-0.062398918,-0.68554026,14.162592887878418,-3.2726902961730957,-1.338029146194458,-13.176902770996094,339.5897521972656, -52.800662994384766
316,140866711,0.1383734,-0.675675,-0.05751081,-0.7218095,15.477635383605957,-4.37715482711792,-2.6581661701202393,-7.144196510314941,349.23602294921875, -28.49017906188965
317,140883378,0.14188386,-0.6376817,-0.051371388,-0.75537556,16.398216247558594,-4.8366546630859375,-4.059870719909668,7.8061747550964355,348.1134338378906, -1.2139462232589722
318,140900045,0.15122198,-0.5983482,-0.048360057,-0.78534883,16.660158157348633,-5.154623508453369,-5.651543617248535,52.24352264404297,338.5540466308594, 18.293458938598633
319,140916712,0.16137509,-0.5593965,-0.04875237,-0.81157696,17.08946418762207,-2.112527370452881,-6.6454339027404785,74.89569091796875,318.1219787597656, 12.652775764465332
320,140933379,0.1684677,-0.52451205,-0.048138425,-0.83317995,15.577661514282227,-2.7940289974212646,-11.328242301940918,54.58206558227539,278.0829162597656, 5.971492290496826
321,140950046,0.17620528,-0.49738985,-0.04754647,-0.8481125,14.092988967895508,-4.824656963348389,-15.34243392944336,50.31140899658203,210.24514770507812, 19.888395309448242
322,140966713,0.18514648,-0.4816445,-0.04890745,-0.85518867,9.585588455200195,-4.811999320983887,-18.02550506591797,54.702186584472656,115.67821502685547, 33.41019058227539
323,140983380,0.19202095,-0.4799324,-0.0516237,-0.8544753,8.543864250183105,-3.4573440551757812,-19.48003578186035,40.695457458496094,5.578670978546143, 31.330249786376953
324,141000047,0.19744527,-0.48808688,-0.052642252,-0.8485374,9.963643074035645,-6.291741371154785,-14.915373802185059,14.861102104187012,-67.25904083251953, 38.76091384887695
325,141016714,0.20094484,-0.50140375,-0.055588007,-0.8397177,8.444759368896484,-1.105331540107727,-6.487195014953613,13.806907653808594,-109.8238296508789, 26.719221115112305
326,141033381,0.21353878,-0.5073006,-0.074638166,-0.8315508,12.685857772827148,5.517396450042725,18.33097267150879,148.17103576660156,-83.23934936523438, 19.939558029174805
327,141050048,0.20923352,-0.5207636,-0.072850734,-0.824451,18.34439468383789,4.407991886138916,-4.963925361633301,-41.72068405151367,-101.17510223388672, -1.5291683673858643
328,141066715,0.21022768,-0.5407048,-0.07015412,-0.81149316,24.41892433166504,-9.97575855255127,-5.057132244110107,-34.34444046020508,-154.55027770996094, 43.62075424194336
329,141083382,0.21465254,-0.56070465,-0.06906415,-0.79672134,10.72678279876709,8.45662784576416,1.7675564289093018,-11.69279956817627,-161.8538055419922, 59.26484298706055
330,141100049,0.21672481,-0.57606024,-0.06764527,-0.7852449,9.232879638671875,-4.00430965423584,-1.5056047439575195,-17.363361358642578,-124.29170989990234, 40.83478546142578
331,141116716,0.22095118,-0.58716106,-0.06912434,-0.7756575,11.8218994140625,-4.4135422706604,-0.9317461848258972,12.333826065063477,-97.03704071044922, 36.11835861206055
332,141133383,0.22239873,-0.5960905,-0.06705503,-0.7685823,9.367809295654297,-0.5645958781242371,1.8363871574401855,-15.651391983032227,-71.13104248046875, 30.70520782470703
333,141150050,0.22234322,-0.6033231,-0.064002335,-0.7631964,9.668724060058594,-1.2209886312484741,1.2409001588821411,-25.18979263305664,-54.425697326660156, 23.4627742767334
334,141166717,0.22345243,-0.6094089,-0.06144365,-0.7582313,10.664586067199707,-1.3473738431930542,1.1379368305206299,-16.18869972229004,-46.888267517089844, 26.4003849029541
335,141183384,0.22570871,-0.61518276,-0.0585156,-0.7531148,10.720369338989258,-1.8420214653015137,1.3866171836853027,-12.75137996673584,-44.82313537597656, 34.052642822265625
336,141200051,0.22948499,-0.61982316,-0.058219034,-0.7481757,8.828256607055664,-2.8414876461029053,1.552295207977295,9.00734806060791,-41.665931701660156, 30.06769561767578
337,141216718,0.23273124,-0.62420905,-0.05860528,-0.7434817,9.718724250793457,-2.5253751277923584,2.4118494987487793,10.58208179473877,-40.61189651489258, 23.90777587890625
338,141233385,0.23371887,-0.62953967,-0.056368165,-0.7388357,9.414216995239258,-2.1229708194732666,2.1528518199920654,-14.04487419128418,-41.97699737548828, 23.910709381103516
339,141250052,0.23205884,-0.6355166,-0.052346427,-0.7345253,8.7857027053833,-2.163257360458374,2.1210274696350098,-35.736366271972656,-41.99382400512695, 17.906492233276367
340,141266719,0.22897388,-0.6423152,-0.0476014,-0.72988796,9.656142234802246,-2.6516659259796143,1.838554859161377,-46.80902099609375,-46.96121597290039, 14.702077865600586
341,141283386,0.22630972,-0.6493512,-0.04392189,-0.7247056,9.182965278625488,-2.8262860774993896,1.2201564311981201,-39.798316955566406,-52.1225471496582, 13.052352905273438
342,141300053,0.22542137,-0.65576714,-0.04310559,-0.7192337,9.038366317749023,-3.1434378623962402,0.7219682931900024,-16.548864364624023,-54.254520416259766, 9.374156951904297
343,141316720,0.22578648,-0.66161364,-0.044101898,-0.71368283,9.200312614440918,-2.5953149795532227,0.6440435647964478,-1.0247621536254883,-54.23575210571289, 7.329374313354492
344,141333387,0.22580941,-0.66731936,-0.04484348,-0.7082967,9.554839134216309,-2.4100821018218994,0.755346953868866,-3.663536310195923,-52.50968933105469, 6.4991278648376465
345,141350054,0.22520898,-0.67301327,-0.04476167,-0.7030866,9.69262409210205,-2.3371973037719727,0.8027003407478333,-10.572114944458008,-50.5705451965332, 6.963526248931885
346,141366721,0.22421682,-0.6786424,-0.044290066,-0.69800425,9.739587783813477,-2.451643943786621,0.7358870506286621,-14.212738037109375,-49.198463439941406, 6.660511493682861
347,141383388,0.22288813,-0.6842379,-0.043574672,-0.692994,9.742815017700195,-2.477367877960205,0.4721323847770691,-16.927902221679688,-48.44557571411133, 6.065881252288818
348,141400055,0.22143774,-0.68982816,-0.042788282,-0.6879476,9.579258918762207,-2.5773134231567383,0.29104161262512207,-17.82389259338379,-48.53251647949219, 5.8790602684021
349,141416722,0.22033045,-0.69530904,-0.04247144,-0.6827857,9.621315002441406,-2.664738655090332,0.1577242612838745,-13.779069900512695,-49.18935775756836, 5.419461250305176
350,141433389,0.2195132,-0.7005297,-0.042689633,-0.6776799,9.885149002075195,-2.334573745727539,0.05026019364595413,-9.507772445678711,-48.439849853515625, 4.059642314910889
351,141450056,0.21872154,-0.70572597,-0.042792596,-0.67251825,9.851706504821777,-2.2253897190093994,0.012003488838672638,-9.872910499572754,-48.42814636230469, 4.818360328674316
352,141466723,0.21767916,-0.71116716,-0.042530023,-0.6671196,9.795974731445312,-2.1611099243164062,-0.008812278509140015,-13.083592414855957,-50.25142288208008, 5.871364593505859
353,141483390,0.21649896,-0.7169941,-0.042184778,-0.6612627,9.889986038208008,-2.486933708190918,0.19940198957920074,-14.585838317871094,-54.20044708251953, 6.4550933837890625
354,141500057,0.21498612,-0.72338855,-0.04201724,-0.65477085,9.998665809631348,-2.6555607318878174,0.313681423664093,-16.085729598999023,-60.300804138183594, 5.181694030761719
355,141516724,0.21309505,-0.73042554,-0.04228408,-0.6475193,10.008774757385254,-2.9103643894195557,0.6126365661621094,-16.75327491760254,-67.75926208496094, 2.6285550594329834
356,141533391,0.2101093,-0.73823994,-0.043023575,-0.63953507,10.602188110351562,-2.416170597076416,0.5535313487052917,-21.089693069458008,-75.95943450927734, -3.3234620094299316
357,141550058,0.20628771,-0.74699247,-0.044151504,-0.6304748,10.828760147094727,-2.4504826068878174,0.4107150435447693,-24.680376052856445,-86.4073257446289, -7.1264142990112305
358,141566725,0.20208764,-0.7566245,-0.04584479,-0.6201439,11.072265625,-2.620600461959839,0.56662917137146,-25.056377410888672,-97.71944427490234, -9.589767456054688
359,141583392,0.19706713,-0.767185,-0.04790103,-0.6085209,11.533543586730957,-2.3921375274658203,0.6723411083221436,-28.685022354125977,-109.22901153564453, -12.88068962097168
360,141600059,0.1912472,-0.7787423,-0.05059077,-0.59533674,12.270536422729492,-1.6292232275009155,1.186427116394043,-31.11542320251465,-122.8384780883789, -17.10845184326172
361,141616726,0.18469822,-0.7912817,-0.054716688,-0.5803156,14.115470886230469,-2.219108819961548,1.9060473442077637,-29.8227481842041,-138.94302368164062, -24.99183464050293
362,141633393,0.17907833,-0.8044975,-0.05849837,-0.5632877,15.292065620422363,-2.0896193981170654,3.224085807800293,-26.28139305114746,-151.91940307617188, -16.583131790161133
363,141650060,0.17211598,-0.81859446,-0.06086497,-0.54458714,16.720844268798828,-0.7658149003982544,4.63515043258667,-39.64255905151367,-163.58140563964844, -11.509222030639648
364,141666727,0.16536008,-0.8327766,-0.06282005,-0.52458835,18.256784439086914,0.4223143458366394,6.153901100158691,-39.615753173828125,-170.89346313476562, -6.7822370529174805
365,141683394,0.15844436,-0.8458141,-0.06409675,-0.5053569,17.945037841796875,1.026044487953186,6.926628112792969,-42.0366096496582,-161.98880004882812, -4.748678684234619
366,141700061,0.14810655,-0.8575664,-0.06254335,-0.48860294,15.143811225891113,-1.4914767742156982,-0.3887462019920349,-71.48596954345703,-141.88986206054688, -3.3512208461761475
367,141716728,0.13614945,-0.8701934,-0.058473494,-0.46990207,12.578314781188965,-5.787499904632568,-3.611433267593384,-89.55282592773438,-154.61627197265625, 8.428969383239746
368,141733395,0.12877925,-0.8808294,-0.053857826,-0.45238835,10.931656837463379,-4.250259876251221,1.2000923156738281,-62.53215789794922,-138.79762268066406, 24.525041580200195
369,141750062,0.1209149,-0.8885081,-0.047657818,-0.44007048,6.854998588562012,-1.9077942371368408,1.556822657585144,-69.82093811035156,-97.0721435546875, 26.832359313964844
370,141766729,0.10181353,-0.8932738,-0.037745465,-0.4362011,8.851428985595703,-0.21561852097511292,4.336888790130615,-150.0899658203125,-37.364505767822266, 7.497107028961182
371,141783396,0.08879078,-0.89276177,-0.028867505,-0.4407489,4.181697845458984,-3.44191575050354,8.936059951782227,-108.16455078125,30.80859375, 12.09992790222168
372,141800063,0.08006477,-0.8882574,-0.023900822,-0.45168307,3.208902359008789,-1.7294801473617554,3.0516936779022217,-68.84918212890625,80.3538818359375, -3.6712515354156494
373,141816730,0.076909736,-0.88058513,-0.021539092,-0.46710905,6.131824016571045,-3.2147743701934814,1.9186973571777344,-25.759445190429688,117.01741027832031, -5.321807384490967
374,141833397,0.08581342,-0.8696939,-0.024463044,-0.48545888,6.274592876434326,-3.831366539001465,0.7679324150085449,65.4593505859375,143.94781494140625, -0.6681020855903625
375,141850064,0.101286724,-0.85561645,-0.031588953,-0.5066201,6.638768196105957,-2.4893548488616943,0.9757076501846313,120.14874267578125,169.94900512695312, -6.0952558517456055
376,141866731,0.118180804,-0.8381951,-0.040629532,-0.5308596,7.883568286895752,-2.2186577320098877,0.8848445415496826,136.83126831054688,198.60658264160156, -15.2721529006958
377,141883398,0.13253446,-0.8175996,-0.049419206,-0.55814296,8.959742546081543,-1.4367854595184326,0.5404384732246399,123.00093078613281,227.1492462158203, -26.440433502197266
378,141900065,0.14204127,-0.79402095,-0.0564543,-0.5883607,9.681339263916016,-1.0262280702590942,0.4924424886703491,90.74935913085938,254.97808837890625, -38.83678436279297
379,141916732,0.14446741,-0.76774377,-0.059796628,-0.6213884,11.128740310668945,-0.5531558990478516,0.38640132546424866,38.710880279541016,282.0407409667969, -51.09450912475586
380,141933399,0.14232472,-0.73901945,-0.058883335,-0.6558407,12.438919067382812,-2.590820789337158,-1.3509113788604736,-1.7259070873260498,302.3268127441406, -50.56081008911133
381,141950066,0.14138798,-0.70778364,-0.055817544,-0.6898815,13.886826515197754,-3.4429233074188232,-1.5424363613128662,-2.651259183883667,314.17413330078125, -34.83615493774414
382,141966733,0.14385109,-0.67437017,-0.051360153,-0.72242254,14.36895751953125,-4.322635173797607,-2.7719972133636475,10.017143249511719,319.9056091308594, -11.360382080078125
383,141983400,0.1516035,-0.638866,-0.048956502,-0.75264215,14.799454689025879,-4.371016979217529,-2.4608511924743652,47.678138732910156,319.4618835449219, 6.89789342880249
384,142000067,0.16220053,-0.6013853,-0.048688922,-0.7808049,16.364774703979492,-2.288569927215576,-2.163339138031006,74.03007507324219,319.5079650878906, 13.680054664611816
385,142016734,0.16854222,-0.56407034,-0.045773517,-0.80704594,16.894821166992188,-1.6406022310256958,-2.6818504333496094,42.70135498046875,312.3369140625, 3.9940667152404785
386,142033401,0.17095943,-0.5295496,-0.038662955,-0.8299733,16.654172897338867,-3.940890073776245,-7.252312660217285,2.026690721511841,287.7767639160156, 3.2251641750335693
387,142050068,0.1743926,-0.49986267,-0.030281434,-0.8478253,15.306682586669922,-4.431395053863525,-10.422691345214844,-5.793072700500488,243.7639617919922, 20.878799438476562
388,142066735,0.17936255,-0.47735557,-0.02397063,-0.85987574,11.81060791015625,-2.240767478942871,-11.746349334716797,4.2412519454956055,180.164306640625, 31.14236831665039
389,142083402,0.18487722,-0.466202,-0.02220003,-0.86486053,9.504692077636719,-2.10771107673645,-14.968146324157715,20.09639549255371,84.69456481933594, 30.052959442138672
390,142100069,0.190926,-0.46822047,-0.024692757,-0.8623847,9.284769058227539,-3.77864670753479,-15.332786560058594,31.622228622436523,-22.485902786254883, 31.058109283447266
391,142116736,0.19874795,-0.47975197,-0.032478563,-0.85398036,9.532951354980469,-3.1969339847564697,-16.861177444458008,57.321495056152344,-104.23509216308594, 33.88811111450195
392,142133403,0.20573282,-0.4953368,-0.04067324,-0.84300727,12.732826232910156,-4.172852993011475,1.4581409692764282,52.07706069946289,-136.84182739257812, 31.993566513061523
393,142150070,0.22317389,-0.5012508,-0.06551851,-0.83345574,9.18005657196045,7.739656448364258,14.939409255981445,197.54054260253906,-96.49018859863281, 31.089252471923828
394,142166737,0.22300334,-0.51228565,-0.072571486,-0.8261758,15.334083557128906,11.397531509399414,-0.4701991081237793,25.844066619873047,-98.839599609375, -9.570374488830566
395,142183404,0.2106899,-0.5318887,-0.05210313,-0.81852907,17.929487228393555,-10.303698539733887,-3.654646635055542,-186.35684204101562,-112.52962493896484, 23.509986877441406
396,142200071,0.21799874,-0.5488162,-0.055239964,-0.80512476,15.115289688110352,-4.694000244140625,-1.9270190000534058,24.33039093017578,-145.4425811767578, 54.878196716308594
397,142216738,0.2204378,-0.56492347,-0.0545543,-0.7932797,9.626097679138184,2.002775192260742,0.9415550827980042,-14.513124465942383,-130.97885131835938, 39.6415901184082
398,142233405,0.2222197,-0.57713675,-0.05524612,-0.7838875,10.1758451461792,-3.9142327308654785,-0.6362439393997192,-4.581831455230713,-102.50462341308594, 25.595294952392578
399,142250072,0.22577873,-0.5871161,-0.056333475,-0.7753356,10.499013900756836,-2.495543956756592,1.0990922451019287,7.731881618499756,-86.988037109375, 31.423603057861328
400,142266739,0.22602203,-0.59587044,-0.05479949,-0.76866746,9.260539054870605,-1.4108868837356567,2.2501537799835205,-18.43745231628418,-70.03834533691406, 20.918087005615234
401,142283406,0.22550228,-0.60356116,-0.051869642,-0.76300234,10.447115898132324,-0.6624640226364136,1.5414574146270752,-27.663074493408203,-58.43247985839844, 20.658700942993164
402,142300073,0.22743297,-0.610704,-0.04936126,-0.7568873,10.974451065063477,-2.1759746074676514,1.2970178127288818,-14.2689847946167,-57.19466018676758, 32.30158996582031
403,142316740,0.2313777,-0.61677647,-0.04886425,-0.75077534,9.373740196228027,-2.470608711242676,1.5358389616012573,6.3435564041137695,-54.06132507324219, 33.969966888427734
404,142333407,0.23545131,-0.6218034,-0.050153762,-0.74525714,9.312114715576172,-2.805485963821411,2.007270336151123,17.589210510253906,-48.94926452636719, 25.745800018310547
405,142350074,0.23778631,-0.6273109,-0.04979753,-0.73990494,10.202104568481445,-2.259514331817627,2.484250068664551,0.8975102305412292,-48.6519660949707, 23.748180389404297
406,142366741,0.23734547,-0.63363177,-0.04675518,-0.7348415,8.700939178466797,-2.1809306144714355,2.3351497650146484,-26.166765213012695,-48.127681732177734, 21.02351188659668
407,142383408,0.23487598,-0.6402875,-0.042434156,-0.730113,9.691165924072266,-2.518561840057373,1.795400857925415,-42.11918640136719,-46.953365325927734, 15.915602684020996
408,142400075,0.23223205,-0.64712054,-0.037987176,-0.72516245,9.786638259887695,-2.7938966751098633,1.3683496713638306,-43.74085235595703,-48.68421936035156, 16.017663955688477
409,142416742,0.23050302,-0.6535077,-0.035292953,-0.72010463,9.110721588134766,-3.0308310985565186,0.7183501124382019,-30.189023971557617,-49.507232666015625, 12.841923713684082
410,142433409,0.23023877,-0.6591579,-0.034866076,-0.7150424,9.3632230758667,-2.945847749710083,0.5503321290016174,-11.209936141967773,-49.1175422668457, 9.7267484664917
411,142450076,0.23026867,-0.6644568,-0.034974128,-0.7101061,9.350479125976562,-2.654006242752075,0.7281475067138672,-6.7184343338012695,-47.59736251831055, 8.456122398376465
412,142466743,0.22977258,-0.66967624,-0.034729447,-0.7053597,9.570029258728027,-2.6439342498779297,0.7130549550056458,-10.75566577911377,-45.91916275024414, 7.177548885345459
413,142483410,0.2287268,-0.67487925,-0.033981226,-0.70076215,9.487868309020996,-2.5923373699188232,0.6779465675354004,-15.7486572265625,-44.497467041015625, 6.591205596923828
414,142500077,0.22725597,-0.68000686,-0.03290405,-0.696321,9.508956909179688,-2.5961315631866455,0.47942858934402466,-19.227657318115234,-43.000244140625, 5.809614181518555
415,142516744,0.22548936,-0.68507844,-0.03154365,-0.69197345,9.528890609741211,-2.7044010162353516,0.42983633279800415,-21.902435302734375,-41.929115295410156, 5.564549922943115
416,142533411,0.22387367,-0.6900344,-0.030319639,-0.6876148,9.52614688873291,-2.7459285259246826,0.3711729645729065,-20.361665725708008,-41.621150970458984, 5.636406421661377
417,142550078,0.22255456,-0.69498634,-0.02952082,-0.68307567,9.543065071105957,-2.6280696392059326,0.32422953844070435,-16.908329010009766,-43.06193923950195, 5.300185680389404
418,142566745,0.2213741,-0.7000551,-0.028836131,-0.6782959,9.655031204223633,-2.507695436477661,0.3792358636856079,-15.83834171295166,-44.92270278930664, 5.8022003173828125
419,142583412,0.22028467,-0.7053722,-0.02820033,-0.673149,9.681529998779297,-2.7640392780303955,0.33705735206604004,-15.483901977539062,-47.92133331298828, 6.605428218841553
420,142600079,0.21921921,-0.71088487,-0.02784068,-0.6676906,9.81684398651123,-2.716662645339966,0.20037135481834412,-14.326247215270996,-50.77072525024414, 5.887912273406982
421,142616746,0.21800306,-0.7164885,-0.02766581,-0.662083,9.980833053588867,-2.8993964195251465,0.029065117239952087,-14.33597469329834,-52.24251174926758, 4.537817001342773
422,142633413,0.2165054,-0.72227,-0.027529202,-0.65627265,9.957549095153809,-2.759650945663452,-0.12378577888011932,-15.77890682220459,-54.18242645263672, 3.406149387359619
423,142650080,0.21451782,-0.7284934,-0.027495453,-0.6500183,9.980046272277832,-2.4066073894500732,-0.0755922794342041,-18.32855224609375,-58.64494705200195, 1.4327614307403564
424,142666747,0.21175191,-0.7354367,-0.027492186,-0.6430695,10.404915809631348,-2.35262131690979,0.3412047028541565,-23.029125213623047,-65.55460357666016, -1.0274964570999146
425,142683414,0.20867491,-0.7430402,-0.027577296,-0.63528407,10.227821350097656,-2.5000643730163574,0.16387760639190674,-25.025882720947266,-72.92658233642578, -1.493200421333313
426,142700081,0.20470944,-0.75141186,-0.027813334,-0.6266586,10.24697208404541,-2.5180909633636475,-0.03385729342699051,-29.862314224243164,-80.99305725097656, -4.783323287963867
427,142716748,0.20019867,-0.7604875,-0.028565988,-0.6170603,10.476837158203125,-2.805042028427124,0.06683662533760071,-31.2716007232666,-89.91822052001953, -8.2885103225708
428,142733415,0.19496426,-0.770313,-0.029660907,-0.6064052,10.868759155273438,-2.728358745574951,0.3458898365497589,-34.44550704956055,-99.2813949584961, -11.541166305541992
429,142750082,0.18872534,-0.7809724,-0.031028116,-0.5945606,11.710022926330566,-2.191676616668701,0.8198443651199341,-39.526611328125,-109.6810531616211, -15.399296760559082
430,142766749,0.18173194,-0.79249114,-0.033419475,-0.5812185,13.260130882263184,-2.182706356048584,1.1876142024993896,-40.211002349853516,-122.7970199584961, -21.836658477783203
431,142783416,0.175617,-0.80472296,-0.03618499,-0.5659246,14.677579879760742,-2.570728302001953,2.7114505767822266,-34.3969841003418,-136.6400604248047, -17.739221572875977
432,142800083,0.16884525,-0.81773967,-0.037941698,-0.54895705,16.231525421142578,-0.88124680519104,4.282517433166504,-42.523109436035156,-148.03616333007812, -12.477638244628906
433,142816750,0.16309841,-0.8307235,-0.040147927,-0.530741,18.11031150817871,-0.2235080599784851,7.059991836547852,-34.729270935058594,-155.36920166015625, -9.644878387451172
434,142833417,0.15901478,-0.8422464,-0.041997787,-0.51339227,18.704402923583984,0.9011417627334595,6.555750370025635,-25.164947509765625,-144.4738311767578, -2.8525233268737793
435,142850084,0.15006477,-0.85468304,-0.040417545,-0.4953424,14.755889892578125,-0.7471200823783875,-0.31316184997558594,-66.27279663085938,-149.67572021484375, 0.9444742202758789
436,142866751,0.13772115,-0.8680017,-0.03641158,-0.47568926,13.729717254638672,-4.106356620788574,-2.288158893585205,-94.94427490234375,-160.67100524902344, 5.577062606811523
437,142883418,0.12777808,-0.8795918,-0.030426696,-0.4572366,11.574901580810547,-4.384068965911865,-0.017542243003845215,-85.7752685546875,-145.4663543701172, 23.647830963134766
438,142900085,0.118007615,-0.88824636,-0.022039432,-0.443404,7.992068290710449,-3.3768107891082764,2.338632345199585,-90.71247100830078,-106.25858306884766, 34.0102424621582
439,142916752,0.09961994,-0.8942953,-0.012404729,-0.43607166,8.651185989379883,-1.5357755422592163,2.371356964111328,-146.0640869140625,-59.02677536010742, 9.65015697479248
440,142933419,0.087087244,-0.8948954,-0.004690156,-0.43767157,7.0574049949646,-4.196019649505615,9.290575981140137,-101.357177734375,11.291858673095703, 8.799560546875
441,142950086,0.07948627,-0.8914905,-0.00047870263,-0.44601223,3.3963875770568848,-1.4236819744110107,4.686870574951172,-58.36956024169922,62.675926208496094, -2.1394970417022705
442,142966753,0.07608557,-0.88493574,0.0014382153,-0.45945397,5.993215084075928,-2.964841842651367,3.0384984016418457,-23.913333892822266,102.26678466796875, -6.1469807624816895
443,142983420,0.08237356,-0.8749234,-0.00013087725,-0.47720417,5.892821788787842,-3.4362945556640625,1.7516387701034546,47.863243103027344,137.39224243164062, 0.998796820640564
444,143000087,0.09491503,-0.86142963,-0.0056864563,-0.49889678,6.525169372558594,-1.7909396886825562,1.3243871927261353,100.50184631347656,170.2167205810547, -4.724273204803467
445,143016754,0.10870026,-0.84461176,-0.012605876,-0.52407676,7.5727458000183105,-2.084622621536255,0.9848034381866455,114.57101440429688,201.3760986328125, -10.931486129760742
446,143033421,0.121327855,-0.8244413,-0.019873274,-0.55243224,8.734509468078613,-1.4999226331710815,0.9862952828407288,111.32268524169922,231.484375, -19.778209686279297
447,143050088,0.12988718,-0.80094767,-0.025644222,-0.5839134,9.960640907287598,-1.1220403909683228,0.5073219537734985,84.91766357421875,262.46636962890625, -29.795177459716797
448,143066755,0.13279675,-0.77433497,-0.028820058,-0.61801296,11.214239120483398,-0.24660933017730713,0.903617262840271,45.70365524291992,290.6925354003906, -41.062713623046875
449,143083422,0.12826002,-0.7450689,-0.026925458,-0.6539855,12.84179973602295,-0.690199077129364,-0.4356784224510193,-13.444916725158691,315.0613708496094, -47.934574127197266
450,143100089,0.12141337,-0.7133839,-0.021205174,-0.68984973,14.248764038085938,-2.9539036750793457,-1.9234765768051147,-40.3218994140625,328.3249206542969, -39.080745697021484
451,143116756,0.11724808,-0.6795075,-0.013757258,-0.7241087,15.13770866394043,-3.8918778896331787,-2.2017743587493896,-33.286956787109375,332.7114562988281, -16.906246185302734
452,143133423,0.11754661,-0.6439415,-0.006485467,-0.75596327,15.985079765319824,-3.69044828414917,-2.810880184173584,-9.939746856689453,330.2250671386719, 6.229491710662842
453,143150090,0.121819794,-0.6076363,-0.001211728,-0.7848165,15.90442943572998,-3.5983266830444336,-3.517827033996582,18.80358123779297,319.4265441894531, 20.405481338500977
454,143166757,0.12784052,-0.57128507,0.0001300107,-0.81073445,15.838749885559082,-2.2641265392303467,-3.653801679611206,47.42264938354492,304.2484436035156, 15.846489906311035
455,143183424,0.13247703,-0.5362365,0.00009570269,-0.83360696,16.154638290405273,-1.8931353092193604,-4.416230201721191,48.53646469116211,283.9498291015625, 5.4096856117248535
456,143200091,0.13479614,-0.5048794,0.0024033338,-0.8525969,15.424445152282715,-2.0775041580200195,-7.657507419586182,23.228029251098633,250.77023315429688, 4.313623905181885
457,143216758,0.13891451,-0.4800936,0.006171299,-0.8661265,12.01966381072998,-5.078862190246582,-10.815742492675781,14.768284797668457,194.83287048339844, 24.89818572998047
458,143233425,0.1449337,-0.46383715,0.008634429,-0.8739422,10.128281593322754,-3.4588966369628906,-12.141319274902344,20.496877670288086,124.10064697265625, 36.97265625
459,143250092,0.15102655,-0.45873258,0.0077956608,-0.87561125,8.405572891235352,-2.6033122539520264,-12.800118446350098,29.158870697021484,34.45413589477539, 32.33399200439453
460,143266759,0.15666091,-0.46361104,0.0036478974,-0.87207174,9.537566184997559,-2.6023356914520264,-11.258000373840332,37.047584533691406,-45.23153305053711, 24.001304626464844
461,143283426,0.16375099,-0.47583693,-0.0024562604,-0.8641523,8.628972053527832,-2.91691517829895,-14.121492385864258,45.44999694824219,-105.15499114990234, 31.012876510620117
462,143300093,0.17122307,-0.49056524,-0.009514438,-0.85436416,12.624810218811035,-6.430299282073975,5.18706750869751,49.64703369140625,-126.94336700439453, 32.277347564697266
463,143316760,0.18967861,-0.49729508,-0.038228165,-0.8457297,10.063984870910645,9.339373588562012,13.797266960144043,223.32037353515625,-100.83487701416016, 21.77359962463379
464,143333427,0.191552,-0.5089941,-0.048048843,-0.83780926,15.80976390838623,9.889698028564453,-0.6161935329437256,49.94417190551758,-107.12158203125, -9.563716888427734
465,143350094,0.18417862,-0.52661604,-0.037965495,-0.82904327,17.73293113708496,-2.431797504425049,1.692122220993042,-104.66718292236328,-120.92068481445312, 10.079272270202637
466,143366761,0.1827101,-0.54538214,-0.026888346,-0.81758964,12.991278648376465,-13.701411247253418,-5.455909252166748,-89.67202758789062,-134.2779541015625, 51.06767272949219
467,143383428,0.19179268,-0.56029224,-0.035503395,-0.80500185,13.284144401550293,6.021861553192139,1.1856764554977417,65.76412963867188,-139.47662353515625, 37.07502365112305
468,143400095,0.19266349,-0.57325315,-0.0322993,-0.79575044,9.673811912536621,-3.5907797813415527,-1.4009498357772827,-29.558879852294922,-102.19861602783203, 32.38875961303711
469,143416762,0.19327326,-0.58318,-0.028973045,-0.78848433,10.768556594848633,-3.01353120803833,0.7134222388267517,-27.643856048583984,-77.60326385498047, 28.11543083190918
470,143433429,0.19197902,-0.5911679,-0.023413498,-0.7830177,9.763669967651367,-1.2476190328598022,1.7398046255111694,-45.14671325683594,-57.2547607421875, 23.96485710144043
471,143450096,0.19060482,-0.5974156,-0.017739734,-0.7787491,10.001408576965332,-0.9501672387123108,1.674874186515808,-43.97410583496094,-42.870967864990234, 22.16025733947754
472,143466763,0.19092193,-0.60283357,-0.012092742,-0.7745932,11.392309188842773,-1.6865172386169434,1.7336232662200928,-35.80180740356445,-37.787315368652344, 30.885934829711914
473,143483430,0.19445455,-0.6072751,-0.009046262,-0.77027446,9.457488059997559,-2.547330617904663,1.721636176109314,-7.315787315368652,-36.40070724487305, 37.38164138793945
474,143500097,0.1987503,-0.610396,-0.008583829,-0.7667085,9.119502067565918,-3.072514295578003,2.09212327003479,11.2893648147583,-29.67218589782715, 29.535982131958008
475,143516764,0.20190606,-0.6133192,-0.007486304,-0.7635558,10.166309356689453,-2.80965256690979,2.4707236289978027,3.414668560028076,-26.102994918823242, 25.596176147460938
476,143533431,0.20249787,-0.6167972,-0.0040443023,-0.76061785,8.545977592468262,-2.266199827194214,2.75553822517395,-20.478322982788086,-24.99893569946289, 21.749082565307617
477,143550098,0.20075084,-0.6207956,0.00077983236,-0.75783354,8.899068832397461,-2.7532777786254883,2.516352415084839,-38.3522834777832,-25.23235321044922, 15.186137199401855
478,143566765,0.19919784,-0.6252348,0.0049286913,-0.75457126,9.634742736816406,-2.9554007053375244,2.4554004669189453,-34.61480712890625,-30.519638061523438, 13.975677490234375
479,143583432,0.19776824,-0.63008446,0.008444724,-0.750873,8.999730110168457,-3.1571786403656006,1.9716227054595947,-31.37672233581543,-35.41046142578125, 12.481103897094727
480,143600099,0.19748873,-0.6346942,0.009500644,-0.74704194,8.684969902038574,-3.2123801708221436,1.3804852962493896,-13.373468399047852,-38.17097473144531, 7.949146747589111
481,143616766,0.19770886,-0.639262,0.009557474,-0.7430775,9.278390884399414,-2.8794023990631104,1.5487843751907349,-6.010617733001709,-39.93212890625, 6.3269171714782715
482,143633433,0.1974081,-0.64404625,0.010032002,-0.73900884,9.218178749084473,-2.8637804985046387,1.5595961809158325,-10.73453140258789,-40.900630950927734, 5.623247146606445
483,143650100,0.19670284,-0.64896506,0.01065501,-0.73487365,9.298982620239258,-2.8096373081207275,1.4351109266281128,-13.468453407287598,-41.65877914428711, 4.302163124084473
484,143666767,0.19582616,-0.6539959,0.011239329,-0.7306269,9.279038429260254,-2.8456242084503174,1.3101732730865479,-14.198845863342285,-42.77251434326172, 3.403766393661499
485,143683434,0.19517466,-0.6591297,0.0114870425,-0.7261702,9.435851097106934,-2.6340768337249756,1.1587618589401245,-11.65180492401123,-44.712913513183594, 3.29282546043396
486,143700101,0.19457924,-0.66444397,0.011826562,-0.7214661,9.473873138427734,-2.566922187805176,1.0005468130111694,-12.119352340698242,-46.624515533447266, 4.306535720825195
487,143716768,0.19390576,-0.670195,0.012318247,-0.71630144,9.230977058410645,-2.7448770999908447,1.044350028038025,-13.853416442871094,-50.69275665283203, 5.19638729095459
488,143733435,0.19345868,-0.6763891,0.012587922,-0.71057266,9.139008522033691,-3.1527228355407715,0.9447930455207825,-12.357592582702637,-55.80109786987305, 6.000235080718994
489,143750102,0.19333331,-0.68285084,0.012532619,-0.70440066,9.277413368225098,-3.136413812637329,0.8579557538032532,-9.669906616210938,-59.64220428466797, 6.617825031280518
490,143766769,0.19325632,-0.6895695,0.012315711,-0.6978501,9.50206184387207,-2.8439366817474365,0.68822181224823,-9.036175727844238,-62.8945198059082, 6.564918041229248
491,143783436,0.19274583,-0.69659424,0.012102142,-0.6909842,9.94378662109375,-2.2413787841796875,0.5947985053062439,-11.544262886047363,-65.83008575439453, 4.890048027038574
492,143800103,0.19157441,-0.70393014,0.012512662,-0.6838314,10.168601036071777,-2.354076385498047,0.6310814619064331,-18.113515853881836,-67.813720703125, 5.101223468780518
493,143816770,0.19004175,-0.71154666,0.013256009,-0.676321,10.128063201904297,-2.5095114707946777,0.30439135432243347,-21.83127212524414,-70.41122436523438, 5.468896389007568
494,143833437,0.18818818,-0.7194179,0.013978472,-0.66845196,9.989676475524902,-2.783371686935425,0.18129554390907288,-23.6728515625,-73.36389923095703, 4.326913833618164
495,143850104,0.18582152,-0.72750866,0.01451396,-0.6602964,10.160809516906738,-2.7894365787506104,0.28099536895751953,-25.667491912841797,-75.99861145019531, 1.3962632417678833
496,143866771,0.18268931,-0.7359319,0.014795945,-0.6517747,10.658490180969238,-2.581221580505371,0.6439536809921265,-28.81426239013672,-79.60749816894531, -2.9089338779449463
497,143883438,0.17915545,-0.74511707,0.01491941,-0.6422474,10.7145414352417,-2.616319179534912,0.6096803545951843,-31.20538902282715,-88.29826354980469, -4.316603183746338
498,143900105,0.17509529,-0.75519884,0.014869279,-0.63150245,11.06736946105957,-2.7398626804351807,1.0419590473175049,-34.375492095947266,-98.68814849853516, -6.114268779754639
499,143916772,0.17070477,-0.7662643,0.014417403,-0.6192666,11.397564888000488,-2.490795850753784,1.2291419506072998,-35.69768524169922,-111.195068359375, -7.933660984039307
500,143933439,0.1650842,-0.7786019,0.0130284745,-0.6052742,12.896240234375,-2.012425184249878,2.0215728282928467,-39.87250900268555,-126.89672088623047, -16.162134170532227
501,143950106,0.16003683,-0.79190356,0.009922409,-0.589219,14.681586265563965,-2.709350109100342,3.0962486267089844,-30.957529067993164,-144.02618408203125, -20.694639205932617
502,143966773,0.15461002,-0.8060683,0.008021199,-0.57121396,15.76891040802002,-2.0231285095214844,4.450064182281494,-39.01417922973633,-156.8870391845703, -13.57021427154541
503,143983440,0.14842393,-0.8204489,0.007816483,-0.5520626,17.413856506347656,-0.833128809928894,6.212094783782959,-50.206687927246094,-162.37374877929688, -5.915369033813477
504,144000107,0.14131281,-0.8346185,0.009481094,-0.53230906,18.140596389770508,1.3701003789901733,6.328482151031494,-62.365535736083984,-163.18283081054688, 1.7921018600463867
505,144016774,0.13137129,-0.84831655,0.012695646,-0.5127766,15.41934871673584,1.247950553894043,3.988879919052124,-83.81965637207031,-158.68341064453125, 0.2154848873615265
506,144033441,0.11803039,-0.8611601,0.01725045,-0.4941406,13.29146671295166,-1.6009767055511475,-1.7714240550994873,-107.52288818359375,-149.08705139160156, -4.631443500518799
507,144050108,0.10398885,-0.87311864,0.024760785,-0.47564423,10.527052879333496,-4.626008033752441,-4.101179599761963,-120.97737884521484,-142.84593200683594, 10.492101669311523
508,144066775,0.09204959,-0.8828982,0.033682913,-0.4592206,10.103109359741211,-4.525339126586914,0.8260422945022583,-111.0759048461914,-122.65444946289062, 24.699140548706055
509,144083442,0.08156198,-0.88916403,0.04195838,-0.44830185,5.787964820861816,-2.8409831523895264,0.15096068382263184,-96.75778198242188,-78.97381591796875, 22.653459548950195
510,144100109,0.06493513,-0.891608,0.05036197,-0.44528902,7.878582954406738,-2.698096990585327,7.454546928405762,-130.28857421875,-17.067716598510742, 1.1563750505447388
511,144116776,0.055940203,-0.888969,0.05351755,-0.45137694,3.6809167861938477,-0.7175329923629761,9.218388557434082,-62.0571403503418,49.15092849731445, -9.974165916442871
512,144133443,0.044325918,-0.88318217,0.05472596,-0.4637133,4.673703193664551,-1.8629018068313599,2.6765408515930176,-68.5479507446289,97.19861602783203, -31.260236740112305
513,144150110,0.042237956,-0.8746165,0.052366782,-0.48012513,7.381712913513184,-4.527868747711182,1.684664011001587,3.0329174995422363,126.07239532470703, -22.76494789123535
514,144166777,0.054552317,-0.8633347,0.043469362,-0.49978787,7.309072494506836,-4.014233112335205,0.7498862743377686,113.15184783935547,147.44607543945312, -14.53250503540039
515,144183444,0.071342014,-0.84936416,0.031537756,-0.52201235,7.858087539672852,-2.622882604598999,1.4294281005859375,151.89645385742188,169.3773956298828, -17.33085060119629
516,144200111,0.08698411,-0.8324632,0.0196244,-0.5468581,8.573832511901855,-2.786360025405884,1.0087218284606934,147.1144561767578,195.4123077392578, -21.981353759765625
517,144216778,0.09886731,-0.8125477,0.008152085,-0.57439125,9.263348579406738,-1.9851696491241455,1.1242214441299438,126.08737182617188,222.8590087890625, -34.784568786621094
518,144233445,0.10321894,-0.78978556,-0.00019686684,-0.6046361,10.550679206848145,-1.0981287956237793,1.8446134328842163,73.73945617675781,251.75643920898438, -48.754817962646484
519,144250112,0.099453636,-0.76460534,-0.0027664315,-0.6367732,11.860757827758789,-2.5304198265075684,-0.20558911561965942,7.329866886138916,276.1307678222656, -52.45584487915039
520,144266779,0.093410775,-0.7369299,-0.00110489,-0.66948324,13.072242736816406,-4.22952127456665,-1.1215894222259521,-21.485248565673828,292.9069519042969, -40.64500045776367
521,144283446,0.08966743,-0.7070827,0.00267554,-0.7014178,13.881875991821289,-4.611727237701416,-2.1906092166900635,-18.189619064331055,300.3565979003906, -18.885995864868164
522,144300113,0.0926412,-0.6754674,0.0038651454,-0.73153746,13.617997169494629,-5.3624267578125,-2.791316032409668,28.032238006591797,298.3681335449219, 2.02264142036438
523,144316780,0.10096345,-0.6425241,0.00082373817,-0.7595845,14.422113418579102,-2.972675085067749,-2.3529458045959473,74.96599578857422,292.63824462890625, 10.586968421936035
524,144333447,0.107634254,-0.6092134,-0.0009830527,-0.7856672,15.280094146728516,-1.4670724868774414,-2.2584564685821533,61.47494888305664,286.80194091796875, 8.77385425567627
525,144350114,0.11033363,-0.5766113,0.000119670105,-0.8095345,14.73876953125,-2.152641773223877,-4.2291107177734375,28.617830276489258,275.8888854980469, 1.1589878797531128
526,144366781,0.11089316,-0.54609865,0.0029447726,-0.83034354,14.538806915283203,-2.65606427192688,-8.099320411682129,8.978731155395508,253.5432586669922, -1.6080998182296753
527,144383448,0.11283934,-0.5199933,0.005778313,-0.8466645,13.132676124572754,-4.005678176879883,-9.56189250946045,10.721095085144043,211.66062927246094, 9.668489456176758
528,144400115,0.11881948,-0.49965394,0.005362168,-0.8580207,10.55601978302002,-3.907353639602661,-11.26250171661377,39.43781661987305,157.83697509765625, 25.137367248535156
529,144416782,0.1270928,-0.4885098,0.001743082,-0.8632513,9.869640350341797,-3.0443577766418457,-13.06346607208252,58.522098541259766,80.03125, 32.307106018066406
530,144433449,0.13735797,-0.48823035,-0.0049100807,-0.8618237,9.124579429626465,-5.264845848083496,-15.790958404541016,73.69690704345703,-9.28469467163086, 39.61332702636719
531,144450116,0.14844407,-0.49825126,-0.016225489,-0.85407656,11.62813949584961,-3.170987129211426,-16.54584312438965,94.63711547851562,-95.68265533447266, 35.096710205078125
532,144466783,0.1620335,-0.51147723,-0.039401863,-0.8429614,14.861922264099121,5.524621486663818,6.546723365783691,170.0431671142578,-137.63473510742188, 12.919819831848145
533,144483450,0.1743573,-0.5225224,-0.058855012,-0.8325298,12.496787071228027,11.330123901367188,5.214451789855957,146.20989990234375,-118.77146911621094, 17.375625610351562
534,144500117,0.16426502,-0.5406096,-0.04302989,-0.82395804,17.48414421081543,-4.232138633728027,1.3147228956222534,-145.5386505126953,-119.1715316772461, 16.570022583007812
535,144516784,0.16751207,-0.5594586,-0.039861802,-0.81077564,14.27036190032959,-12.425121307373047,-8.701269149780273,-23.705305099487305,-150.89718627929688, 50.51536178588867
536,144533451,0.17101248,-0.5776668,-0.039782103,-0.7971659,12.998035430908203,5.4717535972595215,3.60551381111145,-4.579682350158691,-152.2895050048828, 40.23635482788086
537,144550118,0.16882081,-0.5929197,-0.034678932,-0.7866024,8.412386894226074,-3.5647084712982178,-2.3562259674072266,-52.09514617919922,-119.6335678100586, 24.686992645263672
538,144566785,0.17172626,-0.6044214,-0.035226427,-0.7771385,11.193802833557129,-3.703234910964966,0.03040739893913269,3.361877202987671,-100.15076446533203, 27.020212173461914
539,144583452,0.17309868,-0.6141826,-0.0347487,-0.76916134,10.249631881713867,-0.3876916766166687,1.4981904029846191,-6.775211811065674,-83.80217742919922, 20.88434600830078
540,144600119,0.1745586,-0.62237424,-0.033297583,-0.7622802,10.496249198913574,-0.3854408264160156,0.7775961756706238,-9.943504333496094,-69.68990325927734, 23.791311264038086
541,144616786,0.1776055,-0.6293579,-0.03180897,-0.7558792,11.252976417541504,-1.4934239387512207,1.161162257194519,-2.001626968383789,-60.88539123535156, 31.431421279907227
542,144633453,0.18178487,-0.6351002,-0.031553123,-0.7500713,9.683659553527832,-2.225449562072754,1.4532605409622192,10.702420234680176,-53.121097564697266, 30.988609313964844
543,144650120,0.18495227,-0.6402571,-0.031263757,-0.7449068,10.093853950500488,-2.3446388244628906,1.6021586656570435,6.710000038146973,-47.4741096496582, 24.973541259765625
544,144666787,0.18644968,-0.64559114,-0.029365163,-0.73999107,9.743242263793945,-1.8447011709213257,1.8966469764709473,-9.156485557556152,-45.6052131652832, 23.21895980834961
545,144683454,0.18522227,-0.6511308,-0.025493257,-0.73557574,9.179472923278809,-2.0830023288726807,1.9388682842254639,-31.65340232849121,-42.46267318725586, 17.51889991760254
546,144700121,0.18268074,-0.6569852,-0.020922473,-0.7311365,9.951025009155273,-2.5366902351379395,1.6062389612197876,-41.46744918823242,-43.51614761352539, 14.092378616333008
547,144716788,0.18031894,-0.6629057,-0.017089758,-0.7264635,9.39135456085205,-2.6946444511413574,0.8342692852020264,-36.9943733215332,-45.81448745727539, 11.967741966247559
548,144733455,0.17876367,-0.66847634,-0.015039862,-0.72177345,9.106032371520996,-2.7948174476623535,0.5607487559318542,-23.976295471191406,-46.26508331298828, 7.848339080810547
549,144750122,0.17806506,-0.673608,-0.01457726,-0.71716994,9.196249008178711,-2.5604751110076904,0.4898822009563446,-11.63085651397705,-45.552860260009766, 4.644944667816162
550,144766789,0.17753899,-0.67842704,-0.014563873,-0.71274465,9.434704780578613,-2.521120548248291,0.7556123733520508,-8.252098083496094,-43.7213134765625, 3.1597647666931152
551,144783456,0.17658602,-0.6831526,-0.014011126,-0.7084659,9.685057640075684,-2.19307804107666,0.8497706651687622,-12.789158821105957,-41.971134185791016, 3.3904850482940674
552,144800123,0.17528433,-0.68797964,-0.013026516,-0.7041236,9.597880363464355,-2.2654950618743896,0.7718239426612854,-16.650436401367188,-42.28290557861328, 3.808566093444824
553,144816790,0.17409022,-0.69289416,-0.012059124,-0.6996036,9.732017517089844,-2.112898826599121,0.6583975553512573,-16.15007209777832,-43.5678825378418, 4.470468521118164
554,144833457,0.172812,-0.69794434,-0.010984499,-0.6949025,9.699446678161621,-2.209245204925537,0.5357277989387512,-17.215885162353516,-44.97141647338867, 4.807459831237793
555,144850124,0.17129229,-0.70311064,-0.009865136,-0.6900706,9.689977645874023,-2.284574270248413,0.40307825803756714,-18.720266342163086,-46.12998580932617, 4.034451484680176
556,144866791,0.16975527,-0.70838183,-0.008887731,-0.6850545,9.770086288452148,-2.4688613414764404,0.27115973830223083,-18.243825912475586,-47.69562911987305, 3.4913952350616455
557,144883458,0.16808751,-0.7138148,-0.008039622,-0.67981684,9.8147554397583,-2.4580116271972656,0.18976035714149475,-18.449779510498047,-49.706111907958984, 2.513610601425171
558,144900125,0.16632876,-0.7194853,-0.0075000413,-0.674255,9.819231986999512,-2.296252965927124,0.11056603491306305,-17.715795516967773,-52.778751373291016, 0.9612360000610352
559,144916792,0.16445753,-0.7254922,-0.007250806,-0.6682535,9.94011116027832,-2.183136224746704,0.02761875092983246,-17.291934967041016,-56.86290740966797, -0.4755696952342987
560,144933459,0.16253828,-0.73189044,-0.0075321347,-0.66171116,10.21472454071045,-2.125969409942627,-0.12074491381645203,-15.514527320861816,-61.974124908447266, -2.7095935344696045
561,144950126,0.16003647,-0.7387839,-0.008071354,-0.65461594,10.701325416564941,-2.0865557193756104,0.4347570538520813,-17.80283546447754,-67.33959197998047, -6.011416912078857
562,144966793,0.15704043,-0.7463195,-0.008556311,-0.64674,10.508925437927246,-1.9945238828659058,0.16675570607185364,-21.22933006286621,-74.18461608886719, -7.060930252075195
563,144983460,0.1537269,-0.7546732,-0.009497675,-0.63776696,10.355941772460938,-1.9873636960983276,0.09589500725269318,-21.655658721923828,-83.98454284667969, -9.577319145202637
564,145000127,0.14993268,-0.76391083,-0.011094678,-0.62756497,10.40848159790039,-2.0939371585845947,0.13371530175209045,-22.139131546020508,-94.98434448242188, -13.726749420166016
565,145016794,0.14519502,-0.7741429,-0.013254041,-0.6159919,10.726153373718262,-2.285904884338379,0.5269822478294373,-25.600317001342773,-107.15413665771484, -19.25983428955078
566,145033461,0.13946049,-0.7855076,-0.015785074,-0.60272723,11.326468467712402,-2.4244043827056885,1.2859642505645752,-30.32508659362793,-121.45148468017578, -23.668142318725586
567,145050128,0.13272169,-0.7979937,-0.019085368,-0.5875605,13.116924285888672,-2.3146283626556396,2.0953855514526367,-33.451351165771484,-137.2665252685547, -30.0391788482666
568,145066795,0.12685622,-0.81140053,-0.023426222,-0.5700779,15.009471893310547,-2.2997472286224365,2.8559670448303223,-25.016794204711914,-154.59475708007812, -29.982608795166016
569,145083462,0.12089502,-0.82553315,-0.027548492,-0.5505642,16.320253372192383,-0.19370675086975098,4.366790771484375,-26.740737915039062,-168.68463134765625, -27.243555068969727
570,145100129,0.11584982,-0.8394503,-0.03239443,-0.5299558,18.119890213012695,-0.1178741380572319,6.585102081298828,-18.43511199951172,-174.6245574951172, -26.985118865966797
571,145116796,0.1116006,-0.851196,-0.036104735,-0.5115737,18.662874221801758,-0.4095290005207062,6.393397808074951,-16.766815185546875,-152.9250946044922, -19.75354766845703
572,145133463,0.10230842,-0.86219007,-0.03488023,-0.49491927,15.578413009643555,-2.3930611610412598,-0.7771242260932922,-63.515567779541016,-137.79222106933594, -10.091086387634277
573,145150130,0.09082053,-0.8740897,-0.03052645,-0.4762222,13.359885215759277,-5.993871212005615,-4.396509170532227,-87.34571075439453,-151.38925170898438, 2.6449174880981445
574,145166797,0.08581022,-0.8842724,-0.0261269,-0.45827615,10.716080665588379,-4.133533000946045,0.3528352379798889,-47.68252182006836,-139.89466857910156, 23.267841339111328
575,145183464,0.08037743,-0.89145696,-0.02137749,-0.44540712,7.340057373046875,-2.080080509185791,1.3501619100570679,-50.52960205078125,-99.51253509521484, 20.51041030883789
576,145200131,0.07067716,-0.8949274,-0.014575256,-0.4403385,8.638999938964844,-2.8542487621307373,6.066996097564697,-82.08745574951172,-39.8765754699707, 15.159479141235352
577,145216798,0.070632964,-0.89360154,-0.01056631,-0.44314343,3.859158754348755,-2.7428483963012695,8.33424186706543,-12.711621284484863,22.592395782470703, 22.888273239135742
578,145233465,0.06963329,-0.88894093,-0.009015199,-0.45260856,5.0796799659729,-0.6775116920471191,3.3691859245300293,-9.996566772460938,72.31454467773438, 1.3842192888259888
579,145250132,0.071929574,-0.881137,-0.007793856,-0.46729392,6.056680202484131,-3.448974132537842,2.843013048171997,12.343928337097168,113.99177551269531, 6.931534767150879
580,145266799,0.08100106,-0.8699541,-0.010461349,-0.4863231,5.791821479797363,-2.2269904613494873,1.8133220672607422,67.29706573486328,149.5521697998047, 2.7919530868530273
581,145283466,0.0917983,-0.8556429,-0.014432784,-0.50915664,6.995413303375244,-1.850995421409607,1.3046762943267822,83.43608856201172,182.12904357910156, -1.5868158340454102
582,145300133,0.10291376,-0.8381832,-0.019367909,-0.53524125,8.366419792175293,-1.3359644412994385,0.8418588638305664,90.34031677246094,211.66619873046875, -8.508285522460938
583,145316800,0.111811936,-0.8176929,-0.023529427,-0.5642015,9.215193748474121,-1.181178092956543,0.12509098649024963,76.47321319580078,239.6114501953125, -14.645185470581055
584,145333467,0.11740864,-0.79417557,-0.026470304,-0.5956511,10.125662803649902,-0.42229822278022766,0.11790433526039124,55.09953689575195,265.7337951660156, -22.992948532104492
585,145350134,0.117097504,-0.7680606,-0.025957422,-0.62904525,11.508977890014648,-0.26178285479545593,-0.42047837376594543,10.435277938842773,288.6885681152344, -30.370647430419922
586,145366801,0.11364921,-0.7396113,-0.021902451,-0.6630082,12.73520565032959,-2.1164391040802,-1.7990682125091553,-19.671152114868164,304.0748596191406, -26.109539031982422
587,145383468,0.11221631,-0.70899683,-0.01662111,-0.69602823,14.022555351257324,-2.893843412399292,-2.397735118865967,-13.168261528015137,310.4224548339844, -10.2923583984375
588,145400135,0.11464912,-0.6766634,-0.0113819055,-0.727223,14.5621337890625,-3.5514111518859863,-3.1576650142669678,7.430738925933838,310.1838684082031, 9.194746971130371
589,145416802,0.12295452,-0.642672,-0.010163135,-0.7561429,14.768109321594238,-2.8348381519317627,-2.8876256942749023,56.3722038269043,305.22491455078125, 21.4979190826416
590,145433469,0.13117245,-0.60771316,-0.011132083,-0.7831699,15.24333381652832,-0.32262498140335083,-2.387812614440918,68.33352661132812,300.0855712890625, 12.899418830871582
591,145450136,0.13593231,-0.5737927,-0.012150029,-0.80755025,15.587004661560059,-1.1576220989227295,-3.311318874359131,53.428985595703125,283.17193603515625, -3.4417662620544434
592,145466803,0.13745356,-0.5423568,-0.010903799,-0.82875633,15.739236831665039,-2.02461314201355,-4.9537248611450195,26.040536880493164,258.765380859375, -9.304279327392578
593,145483470,0.13764802,-0.5149177,-0.006158095,-0.84609413,14.537138938903809,-2.647505521774292,-8.362078666687012,-2.310075044631958,224.86593627929688, 0.1472928524017334
594,145500137,0.14165682,-0.49318734,-0.0040826467,-0.8583028,11.042343139648438,-3.9261634349823,-10.215574264526367,21.5850830078125,171.2598114013672, 17.983247756958008
595,145516804,0.14751653,-0.479396,-0.004528267,-0.8651002,10.085678100585938,-1.3516120910644531,-10.530784606933594,35.20534896850586,103.79556274414062, 25.83820343017578
596,145533471,0.15198535,-0.47606218,-0.0048904005,-0.8661651,9.135119438171387,-2.086806058883667,-11.42755126953125,19.73145294189453,22.884803771972656, 23.990713119506836
597,145550138,0.15606551,-0.48172566,-0.006958442,-0.8622854,9.1975679397583,-2.90389347076416,-10.89345932006836,19.422697067260742,-48.52702713012695, 21.56313705444336
598,145566805,0.16065401,-0.4931959,-0.010548644,-0.8548904,9.274313926696777,-3.221330404281616,-11.784602165222168,24.110706329345703,-96.06488037109375, 23.575817108154297
599,145583472,0.16497986,-0.5073591,-0.01586654,-0.845646,14.198408126831055,-3.54183030128479,6.162938117980957,30.579978942871094,-119.9467544555664, 18.394424438476562
600,145600139,0.17551805,-0.51672876,-0.033031978,-0.8373138,10.16650676727295,7.11128568649292,11.870708465576172,126.48768615722656,-101.64786529541016, 11.599466323852539
601,145616806,0.17492102,-0.5308363,-0.035349853,-0.82847244,16.467039108276367,2.9299228191375732,-1.3785107135772705,-4.208927631378174,-115.40354919433594, 2.001284599304199
602,145633473,0.17237319,-0.54906744,-0.026682125,-0.8173747,14.892261505126953,-9.168020248413086,-3.1956984996795654,-78.31544494628906,-134.31236267089844, 34.75916290283203
603,145650140,0.18035583,-0.5657788,-0.035286594,-0.8038168,14.554597854614258,2.349811315536499,0.7545275688171387,60.815826416015625,-153.51222229003906, 31.302146911621094
604,145666807,0.1821559,-0.5808642,-0.032375425,-0.79269683,9.324180603027344,-0.32146841287612915,0.21557815372943878,-25.453460693359375,-122.21448516845703, 38.547119140625
605,145683474,0.18033983,-0.59248,-0.026078032,-0.7847071,10.69243049621582,-4.0780229568481445,-0.9976543188095093,-54.69230651855469,-87.34159851074219, 27.683813095092773
606,145700141,0.18044926,-0.6009576,-0.02116903,-0.7783576,10.155714988708496,-1.4264003038406372,1.3444939851760864,-35.73876953125,-65.06685638427734, 29.804868698120117
607,145716808,0.17892781,-0.60799545,-0.014653165,-0.7733771,9.943842887878418,-1.6951910257339478,1.84840989112854,-49.481101989746094,-49.940120697021484, 25.819412231445312
608,145733475,0.17907408,-0.61348695,-0.009193757,-0.769079,10.499588012695312,-1.1721107959747314,1.4625941514968872,-35.05220413208008,-39.994632720947266, 29.284870147705078
609,145750142,0.18179858,-0.6181679,-0.00494322,-0.7647183,10.627429008483887,-2.131889820098877,1.5953940153121948,-16.773374557495117,-37.29399108886719, 37.85859680175781
610,145766809,0.18615004,-0.62188107,-0.002732078,-0.760661,8.87678050994873,-2.6934714317321777,1.577605128288269,2.073474884033203,-33.408512115478516, 37.33440399169922
611,145783476,0.19035363,-0.6249141,-0.0016849779,-0.75712985,9.68803596496582,-3.047437906265259,2.038508892059326,8.397568702697754,-29.098033905029297, 30.888059616088867
612,145800143,0.19294193,-0.6283291,0.0008851669,-0.75364184,9.601568222045898,-2.491859197616577,2.3548498153686523,-6.965300559997559,-28.9317626953125, 28.962020874023438
613,145816810,0.19259994,-0.6322778,0.0054938365,-0.75040036,8.469703674316406,-2.697251319885254,2.3261027336120605,-30.890933990478516,-27.92061996459961, 22.25591278076172
614,145833477,0.19110271,-0.6368318,0.010239244,-0.7468741,9.360576629638672,-3.0696918964385986,2.1669180393218994,-37.430118560791016,-32.067779541015625, 17.244306564331055
615,145850144,0.18967481,-0.64196813,0.0142824175,-0.74276316,9.390270233154297,-3.256171941757202,2.017784833908081,-34.32621765136719,-38.55488204956055, 15.252178192138672
616,145866811,0.18865004,-0.647121,0.01697956,-0.73848337,8.98620319366455,-3.310410261154175,1.1226139068603516,-25.71118927001953,-41.18815994262695, 11.584643363952637
617,145883478,0.18869896,-0.651931,0.01775942,-0.7342097,9.158283233642578,-3.052917242050171,0.8265112638473511,-10.752439498901367,-42.032936096191406, 8.530426025390625
618,145900145,0.18893549,-0.6566313,0.018212292,-0.72993666,9.503321647644043,-2.8010034561157227,1.0568337440490723,-8.117371559143066,-41.92353057861328, 8.018872261047363
619,145916812,0.18895328,-0.66156095,0.018843012,-0.7254511,9.421597480773926,-2.6794488430023193,1.291255235671997,-10.32073974609375,-43.77821731567383, 7.969226837158203
620,145933479,0.1884222,-0.66677815,0.019763784,-0.72077304,9.39901065826416,-2.704596996307373,1.1585773229599,-14.663606643676758,-45.64632797241211, 6.763261795043945
621,145950146,0.1876417,-0.67234457,0.020580668,-0.7157657,9.301212310791016,-2.978158950805664,1.0484522581100464,-15.79114818572998,-48.993011474609375, 5.429591655731201
622,145966813,0.1867106,-0.6781387,0.021248536,-0.7105042,9.447501182556152,-2.6596362590789795,0.915040135383606,-16.08565902709961,-51.465782165527344, 4.292290687561035
623,145983480,0.18523453,-0.6841803,0.022273107,-0.70504606,9.584430694580078,-2.556962251663208,0.7464926242828369,-20.717388153076172,-53.06050109863281, 3.5102667808532715
624,146000147,0.1834291,-0.6903996,0.023650808,-0.69938797,9.51806640625,-2.6166718006134033,0.6911680102348328,-24.237075805664062,-54.367340087890625, 3.8052942752838135
625,146016814,0.18164535,-0.6967078,0.025042506,-0.6935248,9.570304870605469,-2.7661616802215576,0.6201558709144592,-24.349519729614258,-55.761417388916016, 4.222469329833984
626,146033481,0.17997734,-0.70303744,0.026410215,-0.6874952,9.623101234436035,-2.8835935592651367,0.6748945713043213,-23.738384246826172,-56.71821975708008, 4.864870548248291
627,146050148,0.17847453,-0.70926374,0.027695555,-0.6814141,9.713752746582031,-2.7887911796569824,0.4268457591533661,-22.43566131591797,-56.620269775390625, 5.330079555511475
628,146066815,0.17709401,-0.715396,0.028850626,-0.6752884,9.85750675201416,-2.985163450241089,0.22323012351989746,-21.125165939331055,-56.58984375, 5.341648578643799
629,146083482,0.17565651,-0.72143316,0.030053979,-0.66916084,10.061244010925293,-2.8224008083343506,0.20725414156913757,-21.517234802246094,-56.09657287597656, 5.3355584144592285
630,146100149,0.17385694,-0.7275553,0.031476934,-0.66290796,10.069223403930664,-2.81184983253479,0.06241947412490845,-24.454967498779297,-56.77901840209961, 4.895261287689209
631,146116816,0.17164111,-0.7341202,0.03275222,-0.65615153,10.077077865600586,-2.6839373111724854,0.261484295129776,-26.50614356994629,-61.41280746459961, 2.768104314804077
632,146133483,0.1686905,-0.7413844,0.03383241,-0.6486514,10.72517204284668,-2.6123814582824707,0.537588357925415,-30.332551956176758,-68.40071868896484, -0.8070976138114929
633,146150150,0.16545142,-0.7494861,0.034832783,-0.6400652,10.597479820251465,-2.6061766147613525,0.3273509442806244,-32.67867660522461,-77.71661376953125, -1.4289809465408325
634,146166817,0.16198437,-0.75845623,0.035368033,-0.6302815,10.674023628234863,-2.6176939010620117,0.2577145993709564,-33.087955474853516,-88.20368957519531, -3.669095754623413
635,146183484,0.15843332,-0.768206,0.03543297,-0.6192765,10.747659683227539,-2.739433765411377,0.5639885067939758,-32.66130828857422,-98.4766616821289, -5.310098171234131
636,146200151,0.15418889,-0.7790116,0.03526521,-0.6067319,10.954360008239746,-2.3601863384246826,0.7594820261001587,-36.87014389038086,-111.21662902832031, -8.067892074584961
637,146216818,0.14904444,-0.7910135,0.034641206,-0.5923547,11.993497848510742,-2.264176368713379,1.4818994998931885,-41.511077880859375,-126.32085418701172, -12.60672378540039
638,146233485,0.1437719,-0.8040626,0.032851227,-0.5759639,14.36355972290039,-3.3084733486175537,2.236018180847168,-39.027565002441406,-142.74879455566406, -17.646007537841797
639,146250152,0.13940953,-0.81758547,0.03186338,-0.5577673,15.440300941467285,-1.5475188493728638,3.8628993034362793,-38.07167434692383,-154.08447265625, -7.922111988067627
640,146266819,0.1333409,-0.8317858,0.03224794,-0.53787863,17.566038131713867,-0.32257622480392456,5.464678764343262,-53.96736526489258,-164.5931396484375, -5.252632141113281
641,146283486,0.12859763,-0.8451744,0.032576073,-0.5177665,18.602205276489258,0.21661190688610077,6.686291694641113,-45.501304626464844,-163.3280792236328, -0.24917277693748474
642,146300153,0.12218208,-0.85708183,0.035062462,-0.499253,16.47230339050293,-0.5286238193511963,3.177746295928955,-61.2539176940918,-146.61354064941406, 5.303728103637695
643,146316820,0.112794384,-0.86882806,0.03910132,-0.48050684,14.338220596313477,-1.371307134628296,-2.1135382652282715,-84.0290756225586,-145.51553344726562, 4.514911651611328
644,146333487,0.09950117,-0.880197,0.047333494,-0.46164155,11.108864784240723,-4.14801025390625,-2.6544077396392822,-120.95538330078125,-140.73843383789062, 16.870479583740234
645,146350154,0.08764977,-0.8888658,0.057492744,-0.44601595,9.914913177490234,-4.6400651931762695,2.4538650512695312,-115.45817565917969,-111.74784851074219, 31.75642967224121
646,146366821,0.07381572,-0.89413524,0.06822799,-0.4363703,5.764426231384277,-2.56319260597229,-0.5913394689559937,-124.9690933227539,-63.71806335449219, 26.917879104614258
647,146383488,0.055821665,-0.8954304,0.07899657,-0.43456715,8.665043830871582,-3.5369317531585693,7.705718994140625,-144.96731567382812,-1.64175546169281, 12.50786304473877
648,146400155,0.044886738,-0.89192533,0.08578884,-0.44169605,3.3437740802764893,-0.9272099137306213,7.878259181976318,-82.97604370117188,62.222007751464844, 8.281522750854492
649,146416822,0.033284225,-0.8854929,0.08998082,-0.45464095,4.6521759033203125,-1.3845438957214355,2.4076712131500244,-74.86798095703125,106.29531860351562, -9.769562721252441
650,146433489,0.027643098,-0.8763008,0.092139,-0.47206315,6.6822123527526855,-3.439218044281006,0.9196435213088989,-28.83129119873047,137.9858856201172, -2.8450658321380615
651,146450156,0.034182917,-0.8645327,0.08849117,-0.49354288,6.537245750427246,-2.9283266067504883,0.3385002613067627,66.4404525756836,161.94151306152344, 2.556148052215576
652,146466823,0.04524575,-0.8501945,0.08128538,-0.51818496,7.304747104644775,-1.5412617921829224,0.6792610883712769,107.91119384765625,185.8543243408203, -2.42580246925354
653,146483490,0.056523103,-0.8330545,0.07247836,-0.5455022,8.619915962219238,-1.6689437627792358,0.2519056499004364,117.2301025390625,210.83473205566406, -10.277555465698242
654,146500157,0.06518792,-0.81304026,0.063323036,-0.57507104,9.509113311767578,-0.9414634704589844,-0.162969172000885,105.80261993408203,235.6592254638672, -21.50445556640625
655,146516824,0.06758302,-0.7903045,0.055981975,-0.6063974,10.571366310119629,0.1554003208875656,-0.2967330813407898,65.54981994628906,259.7731628417969, -35.74369430541992
656,146533491,0.062271975,-0.76508063,0.05271935,-0.6387448,11.821130752563477,-0.4109068810939789,-1.1819275617599487,8.210062026977539,280.544921875, -45.21744918823242
657,146550158,0.054842684,-0.73744035,0.051585138,-0.671203,12.718377113342285,-2.182661533355713,-2.0137505531311035,-11.20699691772461,293.4201354980469, -42.49370574951172
658,146566825,0.050344154,-0.70786095,0.050435286,-0.7027483,14.035125732421875,-2.896280288696289,-2.9287376403808594,4.1319756507873535,296.7034912109375, -28.02655792236328
659,146583492,0.052134156,-0.67722934,0.046767265,-0.7324315,14.158174514770508,-4.299778938293457,-4.079468727111816,46.637149810791016,289.6932067871094, -8.897814750671387
660,146600159,0.06126807,-0.64580935,0.03780927,-0.76009697,14.11819839477539,-3.456084966659546,-3.6239538192749023,107.12645721435547,280.06201171875, 4.413909912109375
661,146616826,0.07192159,-0.61442167,0.025678169,-0.7852734,14.444449424743652,-1.972886323928833,-3.9524221420288086,129.80982971191406,267.1617736816406, -0.7003281116485596
662,146633493,0.07970582,-0.5846506,0.013713971,-0.80724436,13.838855743408203,-2.069187879562378,-4.859055519104004,115.42518615722656,245.53306579589844, -14.180805206298828
663,146650160,0.08363569,-0.55671674,0.0056595905,-0.82646245,14.027429580688477,-1.8834617137908936,-5.679915428161621,76.9681167602539,226.84544372558594, -18.518278121948242
664,146666827,0.084598504,-0.5315254,0.004146088,-0.84279716,13.423811912536621,-1.964936375617981,-9.32175064086914,26.764074325561523,204.18756103515625, -8.787368774414062
665,146683494,0.08660938,-0.51212335,0.004355489,-0.8545234,10.912614822387695,-3.3524727821350098,-12.24755859375,17.138059616088867,154.89047241210938, 6.099040508270264
666,146700161,0.08947141,-0.5004775,0.0055666873,-0.86109614,9.552783012390137,-2.5107836723327637,-12.51359748840332,9.51305103302002,91.88994598388672, 17.450481414794922
667,146716828,0.09200453,-0.49770376,0.0071478207,-0.8624242,9.839299201965332,-4.438510894775391,-10.319079399108887,0.5700571537017822,21.70256805419922, 19.657169342041016
668,146733495,0.09646964,-0.5046407,0.0034631973,-0.857916,8.904918670654297,-3.1040196418762207,-16.841184616088867,32.01816177368164,-59.14399337768555, 16.28505516052246
669,146750162,0.10003509,-0.5163848,-0.0050143274,-0.8504794,14.783417701721191,1.1530601978302002,9.89115047454834,53.96138381958008,-100.6414566040039, -3.8399298191070557
670,146766829,0.10501313,-0.526282,-0.008023793,-0.84376276,11.375182151794434,1.0948364734649658,5.750204086303711,28.236902236938477,-83.49332427978516, 23.292470932006836
671,146783496,0.100033686,-0.5407776,0.0057599526,-0.8351767,16.702165603637695,-12.590605735778809,-6.652927398681641,-108.44062042236328,-105.3683853149414, 27.920421600341797
672,146800163,0.11263028,-0.55713546,-0.006894349,-0.8227196,15.89545726776123,1.7942911386489868,-0.02939930558204651,107.36434173583984,-149.22178649902344, 33.03861999511719
673,146816830,0.11127596,-0.57303274,0.0020994025,-0.81194043,10.986985206604004,5.3841118812561035,1.8826361894607544,-68.25296783447266,-124.02437591552734, 35.75526428222656
674,146833497,0.10644408,-0.58582735,0.015602513,-0.803264,10.645943641662598,-3.934147596359253,-0.8516994714736938,-104.72271728515625,-94.90440368652344, 32.6192741394043
675,146850164,0.108012274,-0.5951782,0.022142984,-0.79599404,11.391114234924316,-3.4086577892303467,0.33097290992736816,-37.79349136352539,-75.96460723876953, 39.247398376464844
676,146866831,0.10954528,-0.60220224,0.02697004,-0.7903328,9.181052207946777,-1.6754543781280518,1.6461689472198486,-26.56997299194336,-57.890682220458984, 31.190536499023438
677,146883498,0.110868186,-0.60725164,0.030867761,-0.78613067,9.55956745147705,-1.1547290086746216,1.4477218389511108,-20.623807907104492,-41.77767562866211, 25.468835830688477
678,146900165,0.11501535,-0.61103696,0.03265475,-0.7825215,11.356054306030273,-1.9855564832687378,2.0165135860443115,3.6743178367614746,-34.67342758178711, 31.74266242980957
679,146916832,0.11913696,-0.6142738,0.035510972,-0.7792391,9.578828811645508,-1.6738958358764648,2.2798526287078857,-1.6696789264678955,-29.496681213378906, 35.96146011352539
680,146933499,0.12337654,-0.6172452,0.036879323,-0.7761618,8.830850601196289,-3.1121020317077637,2.4658665657043457,7.073509216308594,-28.462238311767578, 30.20622444152832
681,146950166,0.12653768,-0.62065613,0.038766123,-0.7728338,9.389962196350098,-2.311802864074707,3.0146987438201904,-0.7019073367118835,-31.166522979736328, 26.738040924072266
682,146966833,0.12680247,-0.6248314,0.04315729,-0.76918465,8.369694709777832,-2.306393623352051,2.7098605632781982,-27.1175537109375,-33.66074752807617, 22.108354568481445
683,146983500,0.12622002,-0.62964225,0.047487874,-0.7650911,9.272502899169922,-2.7697925567626953,2.438070774078369,-31.124013900756836,-38.74510955810547, 17.564729690551758
684,147000167,0.12571862,-0.6351527,0.051405262,-0.7603511,9.493443489074707,-2.6794121265411377,2.263601779937744,-29.416929244995117,-45.61845397949219, 16.531909942626953
