PacketCounter,SampleTimeFine,Quat_W,Quat_X,Quat_Y,Quat_Z,Acc_X,Acc_Y,Acc_Z,Gyr_X,Gyr_Y,Gyr_Z 
1,97133819,0.17546262,0.7186811,-0.17775662,0.6489322,-0.6463780999183655,-0.45859843492507935,1.9656329154968262,0.6605380177497864,2.192248821258545, -1.5474797487258911
2,97150486,0.17561005,0.7187519,-0.17808016,0.64872515,9.805047035217285,0.18706345558166504,-0.9185290932655334,0.25152313709259033,-2.7814242839813232, 0.4120635390281677
3,97167153,0.1755287,0.71875346,-0.1783804,0.64866287,9.797211647033691,0.2150491625070572,-0.9271037578582764,0.6721988916397095,-2.7208755016326904, 0.4526596963405609
4,97183820,0.1753378,0.7188851,-0.17841873,0.6485583,9.7943115234375,0.21590355038642883,-0.9387242794036865,0.7435943484306335,-3.0230796337127686, 0.5355808138847351
5,97200487,0.1753669,0.7190149,-0.17865312,0.648342,9.80398941040039,0.2348490059375763,-0.9085715413093567,0.6996558308601379,-2.9764392375946045, 0.5810561776161194
6,97217154,0.17558049,0.7190685,-0.17897628,0.64813536,9.818163871765137,0.2639837861061096,-0.8986670970916748,0.19572584331035614,-2.785073757171631, 0.6801388263702393
7,97233821,0.17556159,0.71920085,-0.17893086,0.64800644,9.797422409057617,0.17464911937713623,-0.9293910264968872,0.26978495717048645,-2.8681609630584717, 0.6840319037437439
8,97250488,0.17549385,0.7193328,-0.17900106,0.64785886,9.790969848632812,0.18568406999111176,-0.9426062107086182,0.6394402980804443,-2.845109701156616, 0.6461123824119568
9,97267155,0.17545451,0.7194746,-0.17916246,0.6476674,9.788500785827637,0.16042688488960266,-0.9335390329360962,0.7725238800048828,-2.880340337753296, 0.5533688068389893
10,97283822,0.17535402,0.71962774,-0.17931566,0.6474821,9.788471221923828,0.19265404343605042,-0.928108274936676,0.835800051689148,-2.8703255653381348, 0.5113639831542969
11,97300489,0.17520753,0.7198073,-0.17941147,0.6472956,9.78434944152832,0.1982267200946808,-0.9072392582893372,1.011285662651062,-2.9550654888153076, 0.4512253999710083
12,97317156,0.17506114,0.7200003,-0.17948586,0.6470998,9.800583839416504,0.17030112445354462,-0.9102206230163574,1.0743311643600464,-3.0972797870635986, 0.3691750764846802
13,97333823,0.17490797,0.7201865,-0.17954229,0.6469184,9.811644554138184,0.19577571749687195,-0.9157418608665466,0.8763448596000671,-3.0180981159210205, 0.3061549961566925
14,97350490,0.17479269,0.72035533,-0.17961062,0.6467426,9.823750495910645,0.19127164781093597,-0.8864791989326477,0.2653411626815796,-2.8887667655944824, 0.3075637221336365
15,97367157,0.17473108,0.7204276,-0.17974174,0.6466422,9.812104225158691,0.17395229637622833,-0.8772454261779785,-0.21729816496372223,-2.1686272621154785, 0.6050808429718018
16,97383824,0.1748172,0.7204966,-0.18010949,0.64643973,9.804079055786133,0.22260883450508118,-0.9557701945304871,-1.2274245023727417,-2.805499792098999, 0.8895866274833679
17,97400491,0.1749293,0.7206004,-0.18052761,0.646177,9.807373046875,0.2112428992986679,-0.9209707975387573,-1.347535252571106,-3.156278371810913, 0.9712656140327454
18,97417158,0.17497046,0.72073764,-0.18085213,0.6459221,9.78417682647705,0.22132156789302826,-0.9354565143585205,-1.0172595977783203,-3.220092296600342, 0.8890615701675415
19,97433825,0.17497993,0.7209176,-0.1811314,0.6456404,9.79568099975586,0.15668083727359772,-0.9083567261695862,-0.41972815990448,-3.4748880863189697, 0.7515215277671814
20,97450492,0.17489986,0.72112614,-0.18132572,0.64537466,9.796485900878906,0.1481328010559082,-0.8865084648132324,0.5813890695571899,-3.532413959503174, 0.6478028297424316
21,97467159,0.17498036,0.72130346,-0.18166946,0.64505786,9.793155670166016,0.18383897840976715,-0.9205712676048279,0.8377978205680847,-3.6232621669769287, 0.41281911730766296
22,97483826,0.17510422,0.7214794,-0.18206653,0.64471525,9.754682540893555,0.21553358435630798,-0.9250395894050598,1.3362468481063843,-3.722102165222168, 0.3564840257167816
23,97500493,0.1748573,0.7217707,-0.1820382,0.64446425,9.781691551208496,0.20531436800956726,-0.9383465647697449,1.4977858066558838,-3.7794737815856934, 0.30863940715789795
24,97517160,0.17476156,0.7218754,-0.18207633,0.64436215,9.808801651000977,0.22008821368217468,-0.9290573596954346,1.280257225036621,-2.0654594898223877, 0.31062445044517517
25,97533827,0.17484184,0.72190654,-0.18227002,0.6442508,9.787513732910156,0.17502889037132263,-0.9326055645942688,1.1687394380569458,-1.715397596359253, 0.24595233798027039
26,97550494,0.17482392,0.7220129,-0.1823793,0.6441054,9.806292533874512,0.20717622339725494,-0.8945237398147583,0.8234291076660156,-2.246579647064209, 0.2526884973049164
27,97567161,0.17490727,0.72213364,-0.18262398,0.6438781,9.820446968078613,0.19940656423568726,-0.9148338437080383,0.5153467655181885,-2.751995086669922, 0.2776224613189697
28,97583828,0.17487904,0.7222856,-0.18278632,0.64366925,9.817798614501953,0.20551271736621857,-0.9354823231697083,0.3478909134864807,-2.8589792251586914, 0.4779137372970581
29,97600495,0.17480004,0.7224463,-0.18293345,0.64346874,9.80093765258789,0.17516952753067017,-0.9202012419700623,0.6343434453010559,-2.8880882263183594, 0.6417967081069946
30,97617162,0.17464824,0.72261155,-0.18302147,0.64329934,9.794380187988281,0.17982390522956848,-0.9069089889526367,0.783370852470398,-2.7777485847473145, 0.7506634593009949
31,97633829,0.17460652,0.72274125,-0.18322356,0.6431072,9.785870552062988,0.20256748795509338,-0.916965901851654,0.36753585934638977,-2.723564863204956, 0.7634057402610779
32,97650496,0.1744491,0.7229378,-0.18330798,0.64290494,9.797553062438965,0.20763814449310303,-0.9167213439941406,0.024248825386166573,-3.0959737300872803, 0.7725238800048828
33,97667163,0.17438856,0.72315836,-0.18353572,0.6426083,9.765449523925781,0.18093019723892212,-0.9060134887695312,0.11178022623062134,-3.697744131088257, 0.7768523693084717
34,97683830,0.17436446,0.72339576,-0.1838165,0.64226705,9.785740852355957,0.14653711020946503,-0.8883422017097473,0.6846338510513306,-3.996746301651001, 0.6829946041107178
35,97700497,0.174166,0.723682,-0.18390977,0.64197177,9.787999153137207,0.13640326261520386,-0.8842363357543945,1.1554850339889526,-4.013510227203369, 0.6512733697891235
36,97717164,0.17407316,0.7239156,-0.1840969,0.6416801,9.806427001953125,0.2213372439146042,-0.911970853805542,0.9770413637161255,-3.7421441078186035, 0.6097680330276489
37,97733831,0.17390874,0.7241521,-0.1841921,0.64143044,9.814584732055664,0.19722500443458557,-0.9070813059806824,0.543123722076416,-3.549881935119629, 0.6778464913368225
38,97750498,0.17394172,0.7243156,-0.18452077,0.6411423,9.809521675109863,0.17539548873901367,-0.9027525782585144,0.4133184850215912,-3.4226889610290527, 0.7848049998283386
39,97767165,0.17377149,0.7245298,-0.18461497,0.64091927,9.815682411193848,0.1381712555885315,-0.9054222106933594,0.7804381251335144,-3.334683656692505, 0.740379810333252
40,97783832,0.17361642,0.72475296,-0.18471643,0.64067966,9.806920051574707,0.16612613201141357,-0.8989731073379517,1.003268837928772,-3.4475719928741455, 0.6250972151756287
41,97800499,0.1735117,0.7249811,-0.18485922,0.6404088,9.795477867126465,0.17524510622024536,-0.8864326477050781,0.7530326247215271,-3.615386486053467, 0.5374121069908142
42,97817166,0.17341447,0.7252056,-0.18500704,0.64013815,9.800036430358887,0.1681017279624939,-0.9091339111328125,0.631666898727417,-3.6071646213531494, 0.5430468916893005
43,97833833,0.17328934,0.72541374,-0.18514712,0.6398956,9.810494422912598,0.2122095227241516,-0.9086449146270752,0.6327424645423889,-3.428605318069458, 0.7036768794059753
44,97850500,0.17316577,0.7256247,-0.18526864,0.6396547,9.807969093322754,0.17045892775058746,-0.9076837301254272,0.5824519395828247,-3.416656970977783, 0.629156768321991
45,97867167,0.17320415,0.7257844,-0.18555987,0.6393785,9.800926208496094,0.1651879847049713,-0.9343657493591309,0.4790407121181488,-3.3471570014953613, 0.5950661301612854
46,97883834,0.17317346,0.7259782,-0.18575037,0.63911164,9.796035766601562,0.13679954409599304,-0.9130697250366211,0.7393041253089905,-3.425992965698242, 0.4333476424217224
47,97900501,0.17306283,0.72618043,-0.1858448,0.6388842,9.802790641784668,0.1854707896709442,-0.9447693228721619,0.663298487663269,-3.272688150405884, 0.453095018863678
48,97917168,0.17301947,0.7263425,-0.18600868,0.63866407,9.807714462280273,0.19387899339199066,-0.9172221422195435,0.49054089188575745,-3.0481419563293457, 0.5051913857460022
49,97933835,0.17302263,0.7263807,-0.18612108,0.63858694,9.811735153198242,0.1541961282491684,-0.9087318778038025,-0.7173476219177246,-1.6928198337554932, 0.5331090092658997
50,97950502,0.17311808,0.72639275,-0.18630074,0.6384951,9.792595863342285,0.10650934278964996,-0.9158939123153687,-0.6143078804016113,-1.6074531078338623, 0.36414217948913574
51,97967169,0.1732135,0.72648716,-0.18648045,0.6383091,9.780023574829102,0.14831869304180145,-0.9032002687454224,-0.1959499716758728,-2.438854217529297, 0.07761288434267044
52,97983836,0.17334983,0.7266416,-0.18676119,0.63801426,9.813020706176758,0.1872115135192871,-0.8770155310630798,0.27316585183143616,-3.3037309646606445, 0.04368885979056358
53,98000503,0.1733005,0.72689545,-0.18686762,0.63770723,9.816505432128906,0.15590165555477142,-0.9082047343254089,0.6232274770736694,-3.864072799682617, 0.03144599869847298
54,98017170,0.17317782,0.7271874,-0.18695532,0.63738185,9.817282676696777,0.150334432721138,-0.910599946975708,1.438991904258728,-4.196372032165527, 0.1439753919839859
55,98033837,0.17306349,0.7275051,-0.18705374,0.63702136,9.781110763549805,0.1703968197107315,-0.9435406923294067,1.6060764789581299,-4.490265369415283, 0.04796618968248367
56,98050504,0.17294613,0.72780836,-0.18713146,0.63668406,9.79391860961914,0.17546820640563965,-0.9361268877983093,1.309942364692688,-4.298450946807861, 0.05927419662475586
57,98067171,0.17283587,0.7280903,-0.18719788,0.636372,9.802804946899414,0.23993311822414398,-0.9431753158569336,0.7999293804168701,-4.067348003387451, 0.1006258875131607
58,98083838,0.17279337,0.72833127,-0.18737897,0.63605446,9.806059837341309,0.17733131349086761,-0.9279614686965942,0.9602136015892029,-3.956111431121826, 0.29629409313201904
59,98100505,0.17267178,0.7285771,-0.1874513,0.63578457,9.792457580566406,0.13290442526340485,-0.9372830986976624,1.3997533321380615,-3.7266740798950195, 0.2155885398387909
60,98117172,0.17247537,0.72883,-0.1874168,0.6355583,9.782114028930664,0.15359097719192505,-0.9371803402900696,1.5825129747390747,-3.525319814682007, 0.14229778945446014
61,98133839,0.1723464,0.72905976,-0.18744741,0.63532054,9.795476913452148,0.17727001011371613,-0.9086552262306213,1.3267185688018799,-3.475233316421509, 0.13339732587337494
62,98150506,0.17230447,0.7292697,-0.1875293,0.6350666,9.806524276733398,0.16243140399456024,-0.9008920788764954,0.6926121711730957,-3.4290151596069336, 0.009214168414473534
63,98167173,0.17227857,0.7294589,-0.18765502,0.6348192,9.80007266998291,0.170169398188591,-0.9309186935424805,0.5236964821815491,-3.350179433822632, 0.17693892121315002
64,98183840,0.1722923,0.72962743,-0.18782179,0.63457257,9.838249206542969,0.18979796767234802,-0.9094312191009521,0.32086947560310364,-3.26118803024292, 0.2108885794878006
65,98200507,0.17326449,0.7292675,-0.18885203,0.63441604,9.904467582702637,0.18641652166843414,-0.7010364532470703,-8.974040031433105,-0.30621275305747986, 1.1811107397079468
66,98217174,0.17665865,0.7275913,-0.19226007,0.6343807,9.909382820129395,0.06940242648124695,-0.7619330883026123,-33.06306457519531,6.310821533203125, 4.412694931030273
67,98233841,0.18012562,0.7261289,-0.19591035,0.6339644,9.632580757141113,0.0018923347815871239,-1.0266867876052856,-34.62749481201172,3.2452516555786133, 4.526083946228027
68,98250508,0.18218635,0.72546405,-0.19822226,0.63341796,9.647969245910645,0.1611945480108261,-0.9559054970741272,-20.221227645874023,-1.0980948209762573, 2.6131069660186768
69,98267175,0.18303299,0.7254198,-0.19932692,0.63287765,9.72922420501709,0.15813535451889038,-0.9763547778129578,-8.74785327911377,-3.9195637702941895, 1.120882511138916
70,98283842,0.1831631,0.7257234,-0.19969097,0.6323768,9.721946716308594,0.12013541162014008,-0.9522613286972046,-1.3079510927200317,-5.281608581542969, 0.09709135442972183
71,98300509,0.18289867,0.7262089,-0.19965322,0.63190776,9.816813468933105,0.3277500867843628,-0.8647400736808777,2.6654438972473145,-5.9520463943481445, -0.4038226902484894
72,98317176,0.18258235,0.72673863,-0.19953471,0.63142747,9.872563362121582,0.3297663927078247,-0.8079479932785034,3.8501076698303223,-6.178218841552734, -0.7090876698493958
73,98333843,0.181943,0.7274133,-0.19921994,0.6309344,9.818243980407715,0.2412530779838562,-0.876508355140686,5.975002765655518,-7.099176406860352, -0.4128512442111969
74,98350510,0.18099277,0.72820985,-0.19871502,0.6304478,9.79069709777832,0.17592853307724,-0.8781070113182068,8.62270450592041,-7.7984299659729, -0.17963474988937378
75,98367177,0.17981799,0.72914875,-0.19801219,0.62991977,9.81522274017334,0.21537089347839355,-0.9323327541351318,10.466143608093262,-8.704737663269043, -0.40355393290519714
76,98383844,0.17852128,0.73013675,-0.19717291,0.62940717,9.820520401000977,0.19093315303325653,-0.9879187941551208,11.746049880981445,-8.850858688354492, -0.59860759973526
77,98400511,0.1771737,0.73106736,-0.19618662,0.6290158,9.841697692871094,0.23447361588478088,-0.9679312109947205,12.530479431152344,-7.895338535308838, -0.854209840297699
78,98417178,0.17593127,0.7318338,-0.19524261,0.628767,9.83082389831543,0.23994296789169312,-0.9969637393951416,11.874958038330078,-6.392459869384766, -0.7001620531082153
79,98433845,0.17476116,0.7324667,-0.19433756,0.6286366,9.810809135437012,0.1684940904378891,-0.9877358078956604,11.227364540100098,-5.1836161613464355, -0.4656391441822052
80,98450512,0.17364164,0.73298055,-0.19346945,0.62861586,9.81459903717041,0.12724104523658752,-1.0068645477294922,10.324324607849121,-4.1151556968688965, -0.1282428652048111
81,98467179,0.17281017,0.73335993,-0.19285615,0.62859094,9.789474487304688,0.15289485454559326,-1.0126502513885498,8.304862976074219,-3.4819962978363037, -0.02196289785206318
82,98483846,0.17220475,0.73365813,-0.19242232,0.628542,9.792794227600098,0.11185766011476517,-0.9887046813964844,5.7482523918151855,-3.185387372970581, 0.06650978326797485
83,98500513,0.17179155,0.73388463,-0.19214557,0.62847537,9.766526222229004,0.037940699607133865,-1.0024486780166626,4.377255439758301,-2.9092319011688232, 0.04028237983584404
84,98517180,0.17138562,0.7341528,-0.19184959,0.6283636,9.762024879455566,0.09556480497121811,-0.9945533871650696,4.2364115715026855,-3.3024892807006836, -0.17802110314369202
85,98533847,0.17104092,0.73446196,-0.19161694,0.62816703,9.769194602966309,0.2039867490530014,-0.9910637140274048,3.5213046073913574,-3.9189610481262207, -0.2689077854156494
86,98550514,0.17095596,0.734669,-0.19167355,0.6279306,9.816183090209961,0.18140172958374023,-0.9681223630905151,0.9793850183486938,-3.693415880203247, 0.1335894614458084
87,98567181,0.17085883,0.73479927,-0.19172737,0.62778836,9.796854019165039,0.19613073766231537,-1.0259038209915161,0.8015943169593811,-2.922229766845703, 0.4332452416419983
88,98583848,0.17074561,0.73491496,-0.19177532,0.6276689,9.778242111206055,0.19794709980487823,-1.0197690725326538,0.9698185920715332,-2.7746622562408447, 0.5161407589912415
89,98600515,0.17065519,0.73503304,-0.19183077,0.6275384,9.812481880187988,0.1557195484638214,-0.9562149047851562,0.8988585472106934,-2.8345446586608887, 0.4312218427658081
90,98617182,0.17056718,0.7351614,-0.191933,0.62738055,9.814960479736328,0.1617683321237564,-0.9594504237174988,0.7285596132278442,-3.091503858566284, 0.6017511487007141
91,98633849,0.17043233,0.73532295,-0.19201073,0.6272041,9.777904510498047,0.17137959599494934,-1.009324550628662,1.0458625555038452,-3.384782552719116, 0.6234067678451538
92,98650516,0.17024878,0.73550975,-0.19208148,0.62701327,9.77140998840332,0.17126032710075378,-1.016600251197815,1.1985657215118408,-3.6420881748199463, 0.7729337811470032
93,98667183,0.17012167,0.73568374,-0.19220313,0.62680626,9.785744667053223,0.16530077159404755,-0.9907273650169373,1.2043157815933228,-3.6667914390563965, 0.7006931304931641
94,98683850,0.1700567,0.7358433,-0.19241372,0.626572,9.779133796691895,0.14986571669578552,-0.9895232915878296,0.28375670313835144,-3.7868764400482178, 0.8997166156768799
95,98700517,0.17007875,0.7360016,-0.1927584,0.62627417,9.768843650817871,0.11578018963336945,-0.9911907911300659,-1.0756694078445435,-4.168659210205078, 1.1731704473495483
96,98717184,0.17026605,0.73611635,-0.1933117,0.6259177,9.774359703063965,0.14926637709140778,-1.00443434715271,-2.2100303173065186,-4.318698406219482, 1.385973572731018
97,98733851,0.17034751,0.7362689,-0.19365925,0.6256086,9.767889022827148,0.13401593267917633,-0.9560967087745667,-1.462024211883545,-4.169312477111816, 0.933032214641571
98,98750518,0.17030971,0.73647344,-0.19386102,0.6253155,9.827384948730469,0.1319696009159088,-0.9762005805969238,-0.1170884370803833,-4.3257927894592285, 0.6527076363563538
99,98767185,0.1702272,0.7367126,-0.19398604,0.62501746,9.825058937072754,0.15926508605480194,-0.9751731753349304,0.49270519614219666,-4.493620872497559, 0.40097329020500183
100,98783852,0.17012501,0.7369575,-0.19404893,0.62473685,9.806103706359863,0.15153475105762482,-1.0200854539871216,0.907054603099823,-4.40903377532959, 0.18460993468761444
101,98800519,0.17004327,0.7371777,-0.19407365,0.62449175,9.809762954711914,0.1165241226553917,-1.0198715925216675,1.0283434391021729,-4.073251724243164, -0.026970170438289642
102,98817186,0.1699555,0.7373778,-0.19407529,0.62427884,9.792030334472656,0.15244321525096893,-1.0011094808578491,1.3850133419036865,-3.8253085613250732, -0.08732651174068451
103,98833853,0.16987582,0.73756826,-0.19407588,0.62407523,9.78905963897705,0.18818752467632294,-1.0185933113098145,0.840243935585022,-3.7535672187805176, -0.015431653708219528
104,98850520,0.16984503,0.7377225,-0.19410418,0.62389255,9.786121368408203,0.15748535096645355,-1.046020269393921,0.6242774724960327,-3.4815468788146973, -0.0341673381626606
105,98867187,0.16986285,0.73785,-0.19424193,0.623694,9.771428108215332,0.15066702663898468,-1.0453957319259644,-0.09174468368291855,-3.5311970710754395, 0.3233923316001892
106,98883854,0.16987504,0.7379817,-0.19434303,0.6235035,9.773367881774902,0.12306483089923859,-1.025025486946106,-0.005442698020488024,-3.4955570697784424, 0.1875297725200653
107,98900521,0.16985929,0.7381264,-0.19437733,0.6233258,9.806554794311523,0.09470590204000473,-1.0044984817504883,0.5453519821166992,-3.4683563709259033, -0.04897147789597511
108,98917188,0.1698312,0.7382957,-0.19435549,0.62313956,9.82119083404541,0.12071426212787628,-1.0178793668746948,0.9491874575614929,-3.5935261249542236, -0.34022629261016846
109,98933855,0.16982423,0.7384583,-0.19433448,0.62295526,9.805068969726562,0.1383211612701416,-1.011915683746338,0.9319247007369995,-3.5525712966918945, -0.43212470412254333
110,98950522,0.16974777,0.7386356,-0.19423912,0.62279564,9.79407024383545,0.1674376279115677,-1.0152170658111572,1.4150952100753784,-3.5237185955047607, -0.4589155614376068
111,98967189,0.16979477,0.7387349,-0.1942382,0.6226654,9.798236846923828,0.16106535494327545,-1.006940484046936,0.37884384393692017,-3.010042667388916, -0.37420153617858887
112,98983856,0.1700353,0.73869294,-0.19442077,0.6225925,9.817792892456055,0.16893547773361206,-0.9560852646827698,-1.4339654445648193,-2.096770763397217, -0.020310869440436363
113,99000523,0.17045273,0.73849386,-0.19483258,0.62258595,9.750520706176758,0.16969357430934906,-0.9967510104179382,-3.4372241497039795,-1.1489856243133545, 0.682725727558136
114,99017190,0.17095822,0.7383379,-0.19544327,0.6224407,9.794278144836426,0.18714895844459534,-1.0735214948654175,-4.187984943389893,-2.1734302043914795, 0.978539764881134
115,99033857,0.17120917,0.7383064,-0.19580252,0.6222962,9.770977973937988,0.2010716050863266,-1.044053554534912,-2.517779588699341,-2.777927875518799, 0.7738301157951355
116,99050524,0.17130907,0.738357,-0.19601002,0.62214345,9.7903470993042,0.14979687333106995,-1.017488956451416,-0.7057963013648987,-3.2161481380462646, 0.47998833656311035
117,99067191,0.17128508,0.73850024,-0.1960559,0.62196547,9.795171737670898,0.12598586082458496,-1.0016297101974487,0.5552384853363037,-3.743090867996216, 0.061131108552217484
118,99083858,0.171193,0.7387013,-0.19599766,0.62177056,9.798162460327148,0.14854475855827332,-1.0076695680618286,1.5441961288452148,-4.071062088012695, -0.30094924569129944
119,99100525,0.17105724,0.7389409,-0.195899,0.621554,9.783783912658691,0.20683348178863525,-0.9810068607330322,1.9866294860839844,-4.382166385650635, -0.39894336462020874
120,99117192,0.17084825,0.73920506,-0.19571178,0.6213565,9.786861419677734,0.17157182097434998,-1.0098543167114258,2.6628825664520264,-4.415066719055176, -0.5179272890090942
121,99133859,0.17060933,0.73948383,-0.19547372,0.62116534,9.782062530517578,0.18010732531547546,-1.0317633152008057,2.898608684539795,-4.453063011169434, -0.6281771659851074
122,99150526,0.17039828,0.7397489,-0.19525452,0.6209767,9.782946586608887,0.16138368844985962,-1.0606032609939575,2.843426465988159,-4.389428615570068, -0.65650475025177
123,99167193,0.1702159,0.7399773,-0.19505638,0.62081665,9.802412986755371,0.21839430928230286,-1.008561134338379,2.4672398567199707,-4.099057197570801, -0.561635434627533
124,99183860,0.17019711,0.7400998,-0.19498149,0.6206993,9.794170379638672,0.1574144959449768,-1.043776512145996,1.1422303915023804,-3.380812644958496, -0.4521409869194031
125,99200527,0.17024733,0.740173,-0.19494162,0.6206107,9.807415008544922,0.1555575430393219,-1.0196583271026611,0.9250091314315796,-2.9947268962860107, -0.5189773440361023
126,99217194,0.17027886,0.74022496,-0.19487531,0.62056077,9.811890602111816,0.18298712372779846,-1.0143177509307861,0.9418751001358032,-2.731107711791992, -0.45965829491615295
127,99233861,0.1703135,0.7402683,-0.19480756,0.620521,9.792644500732422,0.20131294429302216,-1.0216877460479736,0.97515869140625,-2.6631314754486084, -0.4599912464618683
128,99250528,0.17023937,0.7403814,-0.19469276,0.6204424,9.75629711151123,0.1632571965456009,-1.0148615837097168,1.5439913272857666,-3.2781567573547363, -0.33082646131515503
129,99267195,0.17018124,0.74055517,-0.19462815,0.6202714,9.796703338623047,0.14015555381774902,-1.0271717309951782,1.428977370262146,-4.068577766418457, -0.3729337155818939
130,99283862,0.17018497,0.7407004,-0.19458832,0.62010926,9.815625190734863,0.16003122925758362,-0.9941590428352356,0.9576526284217834,-3.874023914337158, -0.45603418350219727
131,99300529,0.17019357,0.7408579,-0.19453835,0.6199345,9.808226585388184,0.18522119522094727,-1.034191608428955,0.7603449821472168,-4.003149509429932, -0.5194255113601685
132,99317196,0.17027706,0.7409253,-0.19465345,0.6197947,9.777702331542969,0.1870526522397995,-0.9979129433631897,-0.1171909049153328,-3.5577573776245117, 0.11819621175527573
133,99333863,0.1705097,0.7409395,-0.19504112,0.61959183,9.773640632629395,0.22111529111862183,-1.0772439241409302,-2.434154510498047,-3.8022570610046387, 0.9156093597412109
134,99350530,0.17109782,0.74073505,-0.19570778,0.619464,9.85192584991455,0.21925120055675507,-0.9899641871452332,-5.247159004211426,-2.3584558963775635, 1.1448941230773926
135,99367197,0.17201252,0.74012434,-0.19651523,0.61968493,9.781473159790039,0.1631118208169937,-1.0455676317214966,-7.8097100257873535,1.3879460096359253, 1.4817781448364258
136,99383864,0.17271386,0.7396702,-0.19710477,0.61984503,9.718732833862305,0.2081661820411682,-1.0422108173370361,-5.792940616607666,0.35426849126815796, 1.0138338804244995
137,99400531,0.17309354,0.73946136,-0.19743611,0.6198828,9.755715370178223,0.16499914228916168,-1.037458062171936,-2.7845230102539062,-1.4626003503799438, 0.5700042247772217
138,99417198,0.17327675,0.7394252,-0.19753903,0.61984205,9.799822807312012,0.14799952507019043,-1.066322684288025,-0.41080206632614136,-2.6130077838897705, -0.13399283587932587
139,99433865,0.17347327,0.73939383,-0.19766116,0.6197855,9.86258316040039,0.262330025434494,-0.8761376142501831,-0.5336917638778687,-2.7397265434265137, -0.12604010105133057
140,99450532,0.17498104,0.73871225,-0.19904137,0.61973274,9.79404067993164,0.21022701263427734,-0.9469128847122192,-13.387063980102539,0.2967425584793091, 1.5841659307479858
141,99467199,0.1762603,0.73811036,-0.2001014,0.619746,9.78306770324707,0.19449445605278015,-1.0281490087509155,-10.777533531188965,0.33471325039863586, 0.917607307434082
142,99483866,0.17707504,0.7376604,-0.20061427,0.6198836,9.755478858947754,0.15982221066951752,-1.052703619003296,-5.828207969665527,0.3184875249862671, 0.0768573135137558
143,99500533,0.17744465,0.7374543,-0.20076329,0.6199749,9.763319969177246,0.16825571656227112,-1.0220202207565308,-1.4074817895889282,-1.1398675441741943, -0.3302629292011261
144,99517200,0.17745776,0.737496,-0.20061482,0.6199694,9.737663269042969,0.2039681375026703,-1.0152184963226318,1.6753970384597778,-2.839308500289917, -0.7500166296958923
145,99533867,0.17743732,0.737598,-0.2004852,0.6198959,9.802797317504883,0.221605584025383,-0.9674786329269409,1.7081561088562012,-3.5313384532928467, -0.6670572757720947
146,99550534,0.17758267,0.7376394,-0.2005045,0.6197987,9.774076461791992,0.18452534079551697,-0.9939992427825928,0.1517232209444046,-3.369901180267334, -0.5637611150741577
147,99567201,0.17781249,0.7376658,-0.20063373,0.61965966,9.797905921936035,0.1940630078315735,-0.9601936936378479,-0.6987528800964355,-3.555938959121704, -0.4163472056388855
148,99583868,0.17809567,0.73768634,-0.20070705,0.61953014,9.814764976501465,0.10910011827945709,-0.9214653968811035,-0.5495332479476929,-3.36310076713562, -0.9362720847129822
149,99600535,0.17808503,0.7378027,-0.20061478,0.6194247,9.87059497833252,0.2980498671531677,-0.9701329469680786,1.4697144031524658,-3.8829233646392822, -0.5745440721511841
150,99617202,0.17788854,0.73798084,-0.20042251,0.61933094,9.803864479064941,0.2467477023601532,-0.9738808870315552,2.8216166496276855,-4.246201515197754, -0.33309313654899597
151,99633869,0.17788301,0.7380519,-0.20045881,0.61923635,9.820645332336426,0.24274195730686188,-0.9271997213363647,0.9307336807250977,-3.8311355113983154, 0.13389679789543152
152,99650536,0.17795065,0.73807484,-0.20060848,0.61914086,9.748387336730957,0.2261093705892563,-0.9976600408554077,-0.026585984975099564,-3.6957077980041504, 0.4749554991722107
153,99667203,0.17793424,0.73816276,-0.2006737,0.6190196,9.761223793029785,0.18039904534816742,-0.9822430610656738,0.7252556681632996,-4.138128280639648, 0.3001103699207306
154,99683870,0.1777607,0.73833376,-0.2005998,0.61888945,9.793554306030273,0.18384581804275513,-0.9775515794754028,2.136873960494995,-4.606149673461914, 0.1503145545721054
155,99700537,0.17749847,0.738583,-0.20052722,0.61869085,9.7864351272583,0.20420825481414795,-0.9744003415107727,2.629854202270508,-5.4322614669799805, 0.33618590235710144
156,99717204,0.1771362,0.7388955,-0.20043896,0.61845016,9.780329704284668,0.27469533681869507,-0.9777092933654785,3.2740719318389893,-6.055650234222412, 0.5383790135383606
157,99733871,0.17672712,0.73921263,-0.20032984,0.61822367,9.77099609375,0.2281903773546219,-0.9634891152381897,3.506911039352417,-6.067202568054199, 0.670841634273529
158,99750538,0.1769123,0.73911375,-0.20062077,0.6181943,9.877762794494629,0.16043400764465332,-0.9326791167259216,-1.2524610757827759,-2.9856343269348145, 0.9603930115699768
159,99767205,0.17755544,0.7388086,-0.20126863,0.6181643,9.764519691467285,0.23187583684921265,-0.9468387961387634,-5.713822364807129,-1.9474873542785645, 1.1727607250213623
160,99783872,0.17918186,0.73826414,-0.2028549,0.6178267,9.751280784606934,0.15169623494148254,-1.0273962020874023,-15.339790344238281,-2.3007395267486572, 1.7008318901062012
161,99800539,0.18085451,0.73789537,-0.20470321,0.6171701,9.693901062011719,0.15734846889972687,-1.0707544088363647,-16.54620361328125,-4.938901424407959, 2.119856357574463
162,99817206,0.18174294,0.737852,-0.20581129,0.616592,9.754558563232422,0.1909383237361908,-1.0219718217849731,-9.260543823242188,-6.1256632804870605, 1.384194016456604
163,99833873,0.18210483,0.7380084,-0.20636244,0.61611366,9.809517860412598,0.2237309366464615,-1.0058953762054443,-3.949888229370117,-6.536579608917236, 0.6492371559143066
164,99850540,0.18203816,0.7382356,-0.20651825,0.6158089,9.861528396606445,0.2956734299659729,-1.0268217325210571,0.29775407910346985,-6.0889201164245605, 0.5663928389549255
165,99867207,0.18165493,0.73851293,-0.2063829,0.61563486,9.826605796813965,0.1790940761566162,-0.9943526387214661,3.3523247241973877,-5.7432379722595215, 0.5362210273742676
166,99883874,0.18155478,0.73863834,-0.2065677,0.61545193,9.881844520568848,0.17992088198661804,-0.9892163872718811,0.3573804199695587,-5.165620803833008, 1.1700074672698975
167,99900541,0.18412292,0.7387845,-0.21028185,0.61325186,9.624783515930176,-0.17930598556995392,-1.2069165706634521,-31.040897369384766,-16.13861846923828, 5.25852108001709
168,99917208,0.18670106,0.7391553,-0.21416357,0.6106769,9.667071342468262,0.31352347135543823,-1.0400831699371338,-32.045040130615234,-19.197223663330078, 5.223345756530762
169,99933875,0.18837357,0.73935753,-0.21631566,0.6091579,9.765178680419922,0.25768575072288513,-1.0247342586517334,-19.680782318115234,-12.270976066589355, 1.9911540746688843
170,99950542,0.18966627,0.7394412,-0.21762446,0.6081883,9.780218124389648,0.2369750440120697,-1.0773394107818604,-13.2936429977417,-8.475442886352539, 0.12947872281074524
171,99967209,0.19128343,0.7392553,-0.21899487,0.60741556,9.81332778930664,0.11342883855104446,-1.2415932416915894,-15.217159271240234,-5.96405029296875, -0.2657192051410675
172,99983876,0.19402866,0.73892707,-0.22140875,0.6060676,9.707113265991211,0.11992476880550385,-1.2971231937408447,-26.948461532592773,-7.993334770202637, -0.11625635623931885
173,100000543,0.19729346,0.7384645,-0.22391725,0.60465425,9.622318267822266,-0.07195626944303513,-1.3556592464447021,-29.791030883789062,-7.102232456207275, -1.7940343618392944
174,100017210,0.1992253,0.73834395,-0.22486961,0.60381407,9.553813934326172,-0.013686942867934704,-1.1888599395751953,-15.20859146118164,-5.562443256378174, -3.932577610015869
175,100033877,0.20010112,0.7385746,-0.22460899,0.60333914,9.711517333984375,0.115383081138134,-1.2109533548355103,-3.8718090057373047,-5.155709743499756, -5.744417667388916
176,100050544,0.20039742,0.7389746,-0.22370555,0.60308653,9.734476089477539,0.6102882027626038,-1.284415602684021,1.8110424280166626,-4.768829822540283, -6.465863227844238
177,100067211,0.20045227,0.7394871,-0.22258706,0.6028539,9.57667064666748,0.6658945083618164,-1.1964867115020752,4.399551868438721,-5.214580535888672, -6.731133937835693
178,100083878,0.20019451,0.74017435,-0.22122882,0.602596,9.657980918884277,0.32940319180488586,-1.143344759941101,7.078309059143066,-6.233788013458252, -6.906735897064209
179,100100545,0.19984846,0.7409241,-0.21976249,0.6023261,9.781229019165039,0.21201057732105255,-1.0222891569137573,7.9162678718566895,-6.563859462738037, -7.165168285369873
180,100117212,0.19949707,0.7416387,-0.21833926,0.60208064,9.811155319213867,0.6689686179161072,-1.0734466314315796,7.9817214012146,-6.3823041915893555, -6.878627300262451
181,100133879,0.19901556,0.74232894,-0.21689828,0.60191,9.818282127380371,0.26016271114349365,-1.211484670639038,7.825497150421143,-6.131491661071777, -6.067011833190918
182,100150546,0.1980516,0.7431175,-0.21526842,0.60184026,9.969902038574219,-0.5494318008422852,-1.1530194282531738,12.085585594177246,-6.475228309631348, -5.186025142669678
183,100167213,0.19608928,0.7440458,-0.2130134,0.60213804,10.07122802734375,0.1825898438692093,-1.3224759101867676,20.088706970214844,-5.845455169677734, -3.9024465084075928
184,100183880,0.19404432,0.7446346,-0.21075204,0.60286796,10.026137351989746,1.7105803489685059,-0.984940230846405,20.742351531982422,-2.355872392654419, -2.512097120285034
185,100200547,0.19224173,0.7447936,-0.20903471,0.6038463,9.921841621398926,1.2533048391342163,-1.0374361276626587,16.921283721923828,0.29119744896888733, 0.3330230712890625
186,100217214,0.19002753,0.7448771,-0.20730923,0.60503775,9.901710510253906,0.5562750697135925,-1.2129104137420654,19.162477493286133,1.0804026126861572, 2.4826996326446533
187,100233881,0.18755169,0.7450051,-0.20532043,0.60632944,9.908306121826172,-0.2103102058172226,-1.1323338747024536,21.8439998626709,1.372503638267517, 2.30165696144104
188,100250548,0.18505564,0.74503887,-0.20266585,0.6079459,9.937323570251465,-0.4745088517665863,-1.0729305744171143,25.592660903930664,4.267655849456787, -0.60896897315979
189,100267215,0.18309617,0.7449231,-0.20014349,0.6095145,9.816896438598633,0.1818801462650299,-1.0834896564483643,22.34609031677246,5.219563961029053, -2.124833583831787
190,100283882,0.18207182,0.7449009,-0.19855802,0.6103666,9.733780860900879,0.44488391280174255,-1.1475738286972046,12.47864818572998,1.2362167835235596, -2.2153713703155518
191,100300549,0.18150036,0.7449841,-0.1973799,0.61081713,9.736324310302734,0.22734498977661133,-1.4224910736083984,8.400307655334473,-1.1524564027786255, -2.73699951171875
192,100317216,0.1807376,0.74514145,-0.1961047,0.6112622,9.709249496459961,-0.21806570887565613,-1.4922529458999634,9.252135276794434,-1.6520962715148926, -2.4114363193511963
193,100333883,0.18000045,0.745193,-0.19479087,0.6118365,9.647210121154785,0.09052109718322754,-1.259033441543579,10.51363754272461,-0.4087532162666321, -2.6791913509368896
194,100350550,0.17886375,0.74549276,-0.19324715,0.612294,9.9172945022583,-0.13045689463615417,-0.9736358523368835,13.468427658081055,-2.3167855739593506, -2.6122794151306152
195,100367217,0.17774394,0.74611586,-0.19157326,0.6123872,9.813093185424805,0.23976954817771912,-0.7702151536941528,13.70095443725586,-5.389133453369141, -4.218286514282227
196,100383884,0.17690547,0.7469749,-0.1900462,0.61205846,9.735560417175293,0.3978056311607361,-0.8594991564750671,11.098739624023438,-8.399474143981934, -5.41633415222168
197,100400551,0.17817459,0.74770737,-0.19065383,0.61060524,9.518699645996094,0.8114739060401917,-1.5998247861862183,-10.55291748046875,-13.520381927490234, -4.474453449249268
198,100417218,0.18145925,0.748751,-0.19402833,0.60728717,9.393197059631348,1.5673249959945679,-1.5764884948730469,-34.817626953125,-25.159425735473633, -1.3457127809524536
199,100433885,0.18414515,0.7498657,-0.19755477,0.60395706,9.57143497467041,0.9981236457824707,-1.6671645641326904,-32.366294860839844,-26.507125854492188, 1.8980470895767212
200,100450552,0.18681815,0.7505688,-0.20113121,0.60107565,9.565179824829102,0.8016387224197388,-1.8334964513778687,-33.317752838134766,-22.59542465209961, 3.54196834564209
201,100467219,0.18909818,0.75084347,-0.2039309,0.59907305,9.288087844848633,0.4100940227508545,-1.953401803970337,-28.5280704498291,-15.86789608001709, 3.122462511062622
202,100483886,0.19021149,0.75103694,-0.20496936,0.5981227,9.110808372497559,0.34134283661842346,-1.6059341430664062,-14.158086776733398,-9.439455032348633, 0.37314534187316895
203,100500553,0.19006304,0.7514431,-0.20456415,0.59779847,9.30440616607666,0.5483240485191345,-1.536264181137085,0.3323952555656433,-6.928864002227783, -1.5659223794937134
204,100517220,0.18928623,0.7518588,-0.2034388,0.59790635,9.645572662353516,0.7791971564292908,-1.6972160339355469,7.5886664390563965,-4.650882720947266, -2.245107412338257
205,100533887,0.18831354,0.7521192,-0.20197642,0.5983815,9.69324779510498,0.5938084125518799,-1.9146068096160889,10.853571891784668,-1.923079252243042, -2.5774199962615967
206,100550554,0.18725106,0.75227803,-0.20009941,0.59914535,9.798964500427246,-0.14977890253067017,-1.8040598630905151,13.066730499267578,0.40585270524024963, -3.7759037017822266
207,100567221,0.18592611,0.75234485,-0.19771208,0.6002657,10.127469062805176,-0.04483657330274582,-1.0554808378219604,17.212234497070312,2.9484541416168213, -4.841292858123779
208,100583888,0.18446009,0.75231284,-0.1951354,0.60159975,10.011893272399902,0.8300345540046692,-0.8720290660858154,18.775127410888672,4.475742340087891, -4.825784683227539
209,100600555,0.18323778,0.75228816,-0.1928738,0.6027324,9.794170379638672,1.0186833143234253,-0.9639716744422913,15.193551063537598,3.2558445930480957, -4.2806925773620605
210,100617222,0.18228036,0.7523025,-0.19109625,0.6035702,9.800773620605469,0.6308279037475586,-0.9438302516937256,12.323320388793945,1.3260149955749512, -3.449226140975952
211,100633889,0.18128306,0.7524227,-0.1891283,0.60434026,9.948495864868164,0.05986054986715317,-1.2509958744049072,13.274333953857422,0.687656581401825, -4.456984043121338
212,100650556,0.18035583,0.7523781,-0.18685664,0.60537905,10.07109546661377,-0.18524383008480072,-1.4083309173583984,15.087423324584961,3.2607619762420654, -5.954138278961182
213,100667223,0.17945294,0.7522811,-0.18432026,0.6065443,9.958176612854004,0.11269994080066681,-1.496928334236145,15.545086860656738,4.449807643890381, -7.095685958862305
214,100683890,0.17866732,0.7522968,-0.18160085,0.60757625,9.824893951416016,0.20177361369132996,-1.3814431428909302,15.764935493469238,3.6699905395507812, -8.87286376953125
215,100700557,0.17801045,0.7524777,-0.17894378,0.608333,9.76920223236084,0.5792071223258972,-1.1738229990005493,15.311013221740723,1.6710577011108398, -9.768259048461914
216,100717224,0.17726937,0.75290084,-0.1763201,0.60879165,9.826028823852539,0.4632323086261749,-1.1813329458236694,15.293097496032715,-1.0571908950805664, -9.842856407165527
217,100733891,0.17647767,0.75349736,-0.1736808,0.6090422,9.742379188537598,0.529079794883728,-1.223875880241394,15.469711303710938,-2.9211959838867188, -10.149479866027832
218,100750558,0.17583025,0.75421405,-0.17101508,0.6090967,9.776350021362305,0.672825038433075,-1.1476707458496094,14.502267837524414,-4.263726234436035, -11.212459564208984
219,100767225,0.17549577,0.7550584,-0.16842678,0.6088683,9.58998966217041,0.5618795156478882,-1.2486233711242676,12.262216567993164,-6.013908386230469, -12.57773494720459
220,100783892,0.17629035,0.7558624,-0.16662154,0.6081374,9.440978050231934,0.22652001678943634,-1.5239291191101074,2.445125102996826,-8.10339069366455, -13.787047386169434
221,100800559,0.18010357,0.7569021,-0.16794913,0.6053554,9.28943920135498,0.12095716595649719,-2.061155080795288,-28.941097259521484,-20.125904083251953, -12.800701141357422
222,100817226,0.18438433,0.7587503,-0.17071615,0.60096306,9.473395347595215,0.5799290537834167,-1.5729342699050903,-38.343017578125,-33.09850311279297, -10.198163986206055
223,100833893,0.18746294,0.76044124,-0.17160189,0.5976118,9.70862865447998,0.9185762405395508,-0.9799902439117432,-22.88819694519043,-26.01715087890625, -13.636255264282227
224,100850560,0.18991795,0.7618023,-0.17105491,0.59525514,9.706698417663574,1.1322330236434937,-1.042540431022644,-13.448699951171875,-18.429601669311523, -16.789731979370117
225,100867227,0.19185182,0.76308614,-0.16981694,0.593342,9.558348655700684,1.055233120918274,-1.498084306716919,-7.66415548324585,-15.55618667602539, -17.54680824279785
226,100883894,0.19363056,0.7645613,-0.16836697,0.5912748,9.49632740020752,0.766825258731842,-1.8203437328338623,-5.613112926483154,-17.036020278930664, -18.50786781311035
227,100900561,0.19506212,0.76614225,-0.1661178,0.58939105,9.655330657958984,0.7600672245025635,-1.541569471359253,-0.4796757996082306,-15.872099876403809, -21.110754013061523
228,100917228,0.19664222,0.7678093,-0.16349465,0.58742696,9.630322456359863,0.9178807139396667,-1.3186004161834717,0.5345705151557922,-15.965580940246582, -23.951271057128906
229,100933895,0.19819292,0.769538,-0.16045865,0.5854775,9.646896362304688,0.9348699450492859,-1.5239322185516357,2.2877275943756104,-15.665827751159668, -26.01848793029785
230,100950562,0.19964132,0.7713535,-0.15717354,0.5834843,9.701306343078613,0.935194730758667,-1.647430658340454,4.144808769226074,-16.015817642211914, -27.136110305786133
231,100967229,0.20110188,0.7733006,-0.1537386,0.58131653,9.755342483520508,1.1792315244674683,-1.638540506362915,4.546624183654785,-17.289844512939453, -28.33194351196289
232,100983896,0.20320365,0.77500665,-0.15057883,0.57913655,9.839735984802246,1.5591914653778076,-1.8116166591644287,1.7256304025650024,-15.83211612701416, -29.69305992126465
233,101000563,0.20559981,0.7766629,-0.14765853,0.5768192,9.813034057617188,1.8442201614379883,-1.5681090354919434,-0.9896274209022522,-16.398658752441406, -29.72460174560547
234,101017230,0.2081315,0.77833474,-0.14486279,0.5743614,9.763640403747559,1.844051480293274,-1.6459698677062988,-2.3055624961853027,-17.264301300048828, -29.798707962036133
235,101033897,0.21078572,0.7801596,-0.14155288,0.57173705,10.054605484008789,1.40900719165802,-1.4754256010055542,-0.8555965423583984,-17.914085388183594, -33.41627883911133
236,101050564,0.21399604,0.7821429,-0.1376735,0.56877446,9.965045928955078,1.636448621749878,-1.3897655010223389,-1.6790772676467896,-19.009140014648438, -39.31885528564453
237,101067231,0.21798047,0.7841916,-0.13330105,0.56547254,10.080755233764648,2.037680149078369,-1.2282441854476929,-4.1120524406433105,-19.659109115600586, -45.57102584838867
238,101083898,0.22194542,0.7868878,-0.12819877,0.56134933,10.027968406677246,0.5818446278572083,-2.2637343406677246,-0.9163177013397217,-25.565431594848633, -51.25641632080078
239,101100565,0.22508761,0.79034203,-0.12224408,0.55655324,10.355973243713379,0.7149693965911865,-2.7273874282836914,7.39899206161499,-31.548593521118164, -54.45603942871094
240,101117232,0.22822104,0.79392374,-0.1158455,0.5515254,11.599918365478516,1.4185314178466797,-2.176776647567749,9.154845237731934,-32.5964241027832, -57.36914825439453
241,101133899,0.23165672,0.797526,-0.10813744,0.5464376,12.09586238861084,1.9150689840316772,-1.248475193977356,12.477585792541504,-30.729703903198242, -65.8299789428711
242,101150566,0.23564544,0.801486,-0.1005069,0.540361,12.648492813110352,2.6133153438568115,-0.49415743350982666,9.029426574707031,-37.279563903808594, -69.3724365234375
243,101167233,0.23944883,0.8059876,-0.091961704,0.53347117,12.844267845153809,1.614137887954712,-0.5650687217712402,13.826129913330078,-42.53119659423828, -75.45259857177734
244,101183900,0.24380222,0.81092936,-0.08363999,0.5253175,13.193746566772461,1.5404831171035767,-0.4134443402290344,9.934858322143555,-51.28546142578125, -78.68234252929688
245,101200567,0.24981152,0.8157722,-0.07589349,0.5160914,13.945552825927734,1.3567548990249634,0.15166451036930084,-2.1044535636901855,-57.04791259765625, -83.31328582763672
246,101217234,0.25763854,0.820413,-0.06888632,0.5057663,13.97256088256836,1.0978013277053833,0.6458761096000671,-15.782477378845215,-62.98026657104492, -87.55581665039062
247,101233901,0.26711178,0.8250609,-0.062762976,0.4939502,13.94726848602295,1.3498427867889404,1.3208916187286377,-28.7697811126709,-72.38375091552734, -91.13306427001953
248,101250568,0.27833796,0.8294612,-0.057173315,0.48088807,14.199703216552734,0.9677889347076416,1.8306175470352173,-41.43606948852539,-79.03976440429688, -96.45307159423828
249,101267235,0.29331586,0.83122534,-0.05154303,0.46943977,14.935196876525879,1.027683973312378,2.1248884201049805,-67.0165023803711,-59.78382873535156, -105.22847747802734
250,101283902,0.3093943,0.8323664,-0.04489799,0.45763063,14.732464790344238,-0.5670560598373413,0.23659883439540863,-71.3014144897461,-57.62302780151367, -115.39390563964844
251,101300569,0.3312083,0.8338522,-0.044757135,0.43930483,13.522521018981934,-2.122549057006836,-2.6292760372161865,-125.83839416503906,-108.2010498046875, -110.60892486572266
252,101317236,0.34300208,0.83838207,-0.039939314,0.42174646,12.766108512878418,-1.6986932754516602,-3.9492993354797363,-47.15895080566406,-105.42921447753906, -106.79197692871094
253,101333903,0.34730557,0.84438515,-0.030479819,0.40677223,10.857851028442383,2.707153081893921,-6.337062358856201,13.559093475341797,-85.92031860351562, -106.48907470703125
254,101350570,0.34985852,0.8504295,-0.019535782,0.3924121,10.985333442687988,5.66010046005249,-4.110143661499023,28.02174186706543,-79.23764038085938, -108.88908386230469
255,101367237,0.3493955,0.85621405,-0.010400816,0.38041052,9.273313522338867,-2.0991950035095215,-3.038226366043091,40.48583221435547,-69.54737854003906, -84.5076675415039
256,101383904,0.34483737,0.86141926,-0.003972375,0.3728654,7.9994707107543945,-3.8598060607910156,0.5674687027931213,56.321510314941406,-48.66969680786133, -47.32962417602539
257,101400571,0.34014493,0.8647146,0.00080058957,0.3695532,6.484692096710205,-1.1570371389389038,0.5364989638328552,48.384281158447266,-22.806413650512695, -27.306650161743164
258,101417238,0.33548632,0.86643004,0.0033065523,0.3697798,6.018143177032471,-1.5662894248962402,-0.2998177409172058,38.68502426147461,-3.197711706161499, -5.749467372894287
259,101433905,0.32891458,0.867182,0.0038523083,0.37389287,5.76733922958374,-1.3142850399017334,0.3383401930332184,42.7314453125,17.81350326538086, 19.637001037597656
260,101450572,0.3208018,0.86666757,0.0027720444,0.38205484,5.674466609954834,-1.2088253498077393,0.5458232164382935,44.7282829284668,41.4425048828125, 42.34400177001953
261,101467239,0.31061348,0.8649624,0.000060723163,0.3941569,5.741017818450928,-1.1047698259353638,0.3725135922431946,50.07393264770508,64.35143280029297, 66.12995910644531
262,101483906,0.2978328,0.8620112,-0.0038731792,0.41014338,6.205596446990967,-1.2499769926071167,-0.5028087496757507,59.47342300415039,88.07697296142578, 88.6888427734375
263,101500573,0.28177917,0.85759556,-0.008611593,0.4301816,7.515048027038574,-1.1985589265823364,-1.1533925533294678,73.64896392822266,114.35382080078125, 111.0011978149414
264,101517240,0.26371965,0.8505236,-0.014031237,0.45482397,8.406248092651367,-0.6035332679748535,-1.567707896232605,78.5197982788086,147.7827606201172, 130.00694274902344
265,101533907,0.24473539,0.8407472,-0.020277033,0.4825328,8.58639907836914,-1.2387957572937012,-2.6231400966644287,76.67826843261719,172.45201110839844, 143.54595947265625
266,101550574,0.22510454,0.8288379,-0.027782083,0.5114527,9.75197696685791,-0.8098752498626709,-3.665670394897461,72.73677825927734,184.2353057861328, 155.28334045410156
267,101567241,0.20610775,0.814332,-0.037358478,0.5412831,11.004500389099121,0.9740161895751953,-4.113061904907227,57.90814208984375,195.43356323242188, 166.73580932617188
268,101583908,0.18860373,0.797454,-0.049968306,0.5709634,11.513888359069824,1.1767536401748657,-4.521744728088379,34.78852081298828,199.51060485839844, 178.56968688964844
269,101600575,0.17088814,0.77883255,-0.06465373,0.6000308,12.114508628845215,0.9980207681655884,-4.811379909515381,20.413101196289062,199.26318359375, 191.780029296875
270,101617242,0.15306005,0.7583255,-0.08172515,0.6283598,12.994806289672852,1.2009856700897217,-4.888767719268799,13.36658000946045,201.4070281982422, 203.84262084960938
271,101633909,0.13494468,0.73585135,-0.10070478,0.65587467,13.854721069335938,1.8736743927001953,-4.949423789978027,4.019679546356201,203.74420166015625, 215.384521484375
272,101650576,0.11691431,0.7119641,-0.12210929,0.6815626,14.519622802734375,2.6185555458068848,-4.903165817260742,-9.986629486083984,199.0220489501953, 226.7342071533203
273,101667243,0.100843176,0.6879499,-0.14766097,0.70338607,14.734207153320312,2.969545602798462,-6.295595645904541,-42.424476623535156,179.41786193847656, 235.09548950195312
274,101683910,0.08409888,0.664791,-0.17418951,0.7215529,14.95517349243164,3.0717179775238037,-6.3153886795043945,-47.12620162963867,157.12481689453125, 239.85386657714844
275,101700577,0.06585947,0.6418467,-0.19926478,0.73755604,15.564620018005371,3.6035730838775635,-4.886592864990234,-35.56878662109375,145.7211456298828, 239.45135498046875
276,101717244,0.048168194,0.61962456,-0.22366384,0.75081277,15.07563591003418,3.976585626602173,-3.001255512237549,-38.0075798034668,131.4286346435547, 231.8225555419922
277,101733911,0.031804748,0.5988159,-0.24655531,0.76132685,14.454002380371094,5.278676986694336,-2.545069694519043,-39.641075134277344,115.3387451171875, 215.83526611328125
278,101750578,0.01803014,0.58092844,-0.26556444,0.7692026,14.368218421936035,10.548223495483398,-2.962991714477539,-33.8169059753418,94.72772979736328, 181.15386962890625
279,101767245,0.011223453,0.5698948,-0.276456,0.77373517,11.05609130859375,13.194746017456055,-6.398852348327637,-23.983766555786133,59.131797790527344, 99.4347152709961
280,101783912,0.0053337663,0.56886345,-0.2742586,0.77533764,5.82622766494751,9.30215072631836,-8.04940414428711,37.28206253051758,-2.5019171237945557, 24.510290145874023
281,101800579,0.0027171203,0.5746627,-0.26594648,0.7739691,7.228151321411133,14.0061616897583,-5.938493251800537,51.79772186279297,-43.87078094482422, -29.56236457824707
282,101817246,0.006595648,0.5833822,-0.25813735,0.77005655,7.537449359893799,13.22719669342041,-6.959260940551758,18.88779067993164,-57.40229797363281, -67.18693542480469
283,101833913,0.013098309,0.5950929,-0.25064996,0.76345766,7.991237640380859,9.731659889221191,-6.884316921234131,2.069585084915161,-79.19233703613281, -84.95426940917969
284,101850580,0.020875838,0.60886043,-0.24129775,0.7553997,8.008153915405273,6.374935626983643,-7.022108554840088,4.368831634521484,-93.44769287109375, -102.79598999023438
285,101867247,0.025584077,0.61378384,-0.24716781,0.7493485,18.950260162353516,-39.32175827026367,22.361093521118164,-59.72637939453125,-46.26713180541992, -8.097004890441895
286,101883914,0.015806474,0.61689556,-0.23522905,0.75090456,10.931480407714844,0.11067050695419312,6.478231906890869,105.7352066040039,-26.67731285095215, -4.869717121124268
287,101900581,0.01209471,0.6222766,-0.22089845,0.7508858,11.6300048828125,2.3518478870391846,-1.9514648914337158,90.0306625366211,-35.064422607421875, -50.14216232299805
288,101917248,0.013990428,0.6292855,-0.2114266,0.7477319,16.010833740234375,7.196227073669434,3.864023208618164,36.35107421875,-48.69468688964844, -60.97416305541992
289,101933915,0.017505685,0.63797784,-0.20680113,0.7415599,10.810762405395508,3.036194086074829,1.1228851079940796,0.19085152447223663,-68.5379409790039, -50.93147659301758
290,101950582,0.021643048,0.6471886,-0.204823,0.7339797,11.872225761413574,-0.6211151480674744,-2.3670589923858643,-17.961021423339844,-76.78571319580078, -43.36661148071289
291,101967249,0.024440592,0.65593207,-0.19999713,0.7274318,11.417718887329102,-3.76459002494812,-2.2038800716400146,3.7874937057495117,-71.24457550048828, -48.48616027832031
292,101983916,0.02497416,0.6637712,-0.19205368,0.72242624,9.532864570617676,-3.413158655166626,-1.874047875404358,31.58513832092285,-62.31163024902344, -49.784488677978516
293,102000583,0.026737165,0.6713034,-0.184672,0.71730965,9.39877700805664,-1.2507315874099731,-1.0859942436218262,23.00126838684082,-59.73822784423828, -53.00135040283203
294,102017250,0.029012246,0.6788153,-0.17748165,0.71194696,10.277029991149902,-1.0879216194152832,-0.06765183806419373,19.388181686401367,-60.14455795288086, -54.69325256347656
295,102033917,0.030996785,0.68613863,-0.1698607,0.7066828,9.737493515014648,-1.1942322254180908,-0.24028678238391876,22.939733505249023,-59.03219223022461, -55.055301666259766
296,102050584,0.032853913,0.69308853,-0.16277178,0.70146585,9.749567031860352,-0.3906358778476715,0.3053972125053406,20.935195922851562,-57.258140563964844, -51.50582504272461
297,102067251,0.034963563,0.6996859,-0.15677664,0.6961597,10.128705978393555,0.1630455106496811,-0.018296465277671814,14.27999210357666,-55.95547866821289, -47.15283203125
298,102083918,0.03835279,0.70581895,-0.15239525,0.6907421,10.309144020080566,-0.32519057393074036,0.6454116702079773,0.1707947999238968,-53.28492736816406, -45.04949951171875
299,102100585,0.04213129,0.71122915,-0.14895897,0.68570364,10.059585571289062,0.1714775264263153,-0.5244032144546509,-5.999131202697754,-47.868316650390625, -41.46806716918945
300,102117252,0.046682864,0.71609044,-0.14678559,0.6808007,10.139915466308594,-0.11302956938743591,-1.0678051710128784,-15.751615524291992,-44.19565200805664, -38.345340728759766
301,102133919,0.051011425,0.72072566,-0.14525141,0.67591023,10.124665260314941,0.21219854056835175,-1.081445336341858,-17.702552795410156,-43.506378173828125, -33.935455322265625
302,102150586,0.054691076,0.7251727,-0.14421046,0.67107135,10.02330207824707,0.6718754172325134,-0.6512902975082397,-16.791973114013672,-43.198974609375, -28.280536651611328
303,102167253,0.05880883,0.729101,-0.14444134,0.6664009,10.082559585571289,0.17886078357696533,-1.080070972442627,-24.870962142944336,-40.015193939208984, -23.39034080505371
304,102183920,0.06282411,0.73278254,-0.1450379,0.66185135,9.990822792053223,-0.6320521831512451,-1.5322500467300415,-26.011646270751953,-38.532962799072266, -20.805767059326172
305,102200587,0.06624895,0.7363663,-0.1451931,0.6574914,9.809036254882812,-1.1717923879623413,-2.0418736934661865,-20.881711959838867,-37.530025482177734, -20.18153190612793
306,102217254,0.069218524,0.739754,-0.14482014,0.65345246,9.671354293823242,-0.619069516658783,-1.6276683807373047,-15.958882331848145,-35.22798538208008, -20.477018356323242
307,102233921,0.07206027,0.7429594,-0.14400029,0.64967906,9.702058792114258,-0.6203290224075317,-1.2184630632400513,-13.124244689941406,-32.97331237792969, -21.88347053527832
308,102250588,0.07465425,0.7461246,-0.14251572,0.6460761,9.699341773986816,-1.1566965579986572,-1.167303442955017,-8.741372108459473,-31.843687057495117, -24.062530517578125
309,102267255,0.07661352,0.7494137,-0.14011127,0.6425562,9.56511402130127,-0.8561402559280396,-1.5071032047271729,-1.256784200668335,-32.12224197387695, -26.058259963989258
310,102283922,0.078741215,0.7527403,-0.13755211,0.6389533,9.519936561584473,-0.26413553953170776,-1.4108951091766357,-1.5030523538589478,-32.472537994384766, -27.693252563476562
311,102300589,0.08133288,0.75629574,-0.1351451,0.6349313,9.4308443069458,-0.37394142150878906,-1.4155460596084595,-4.845882415771484,-35.293460845947266, -29.396326065063477
312,102317256,0.08404966,0.7599016,-0.13245648,0.6308254,9.536113739013672,-0.954727053642273,-1.386594295501709,-4.31791353225708,-35.67911148071289, -31.509841918945312
313,102333923,0.087336846,0.7633878,-0.1296943,0.6267304,9.900322914123535,0.21949028968811035,-1.0240308046340942,-7.0402092933654785,-34.544715881347656, -34.26578140258789
314,102350590,0.09132786,0.76683384,-0.12749548,0.6223907,9.949434280395508,0.7928946614265442,-0.9308987855911255,-13.40450382232666,-35.37471389770508, -34.456886291503906
315,102367257,0.0959502,0.77035993,-0.12588386,0.6176508,9.939421653747559,0.4477013647556305,-1.412856101989746,-19.545116424560547,-37.64946365356445, -34.38502502441406
316,102383924,0.10029596,0.7741325,-0.12401908,0.61260027,9.6771879196167,0.026169102638959885,-1.8456413745880127,-17.11139678955078,-40.41767883300781, -34.97271728515625
317,102400591,0.10431998,0.7780906,-0.121526256,0.60739106,9.585058212280273,-0.06794586032629013,-1.8684529066085815,-12.761650085449219,-41.887508392333984, -37.23461151123047
318,102417258,0.10808088,0.78235847,-0.118098594,0.60190254,9.796207427978516,-0.45348888635635376,-2.125626564025879,-7.461859703063965,-44.22563934326172, -41.602989196777344
319,102433925,0.11164569,0.7866467,-0.113983445,0.59643126,10.042032241821289,0.3514457046985626,-2.0194339752197266,-3.534998655319214,-43.867401123046875, -44.503028869628906
320,102450592,0.11558213,0.7910024,-0.10978642,0.5906801,10.03469467163086,0.7875116467475891,-1.8762584924697876,-5.376685619354248,-45.30626678466797, -46.74204635620117
321,102467259,0.119594716,0.7952828,-0.10527979,0.5849263,10.314083099365234,1.1894950866699219,-1.852401852607727,-4.594477653503418,-44.71501159667969, -48.682823181152344
322,102483926,0.123880364,0.7993624,-0.10038692,0.5793064,10.413485527038574,1.1240246295928955,-2.40342116355896,-4.601548194885254,-42.666568756103516, -51.63844680786133
323,102500593,0.12924019,0.8034057,-0.09544071,0.5733477,10.897764205932617,0.8682494759559631,-2.3835883140563965,-10.556877136230469,-43.59920883178711, -56.47542190551758
324,102517260,0.13530512,0.80802786,-0.09005032,0.5662814,12.017058372497559,0.7789992690086365,-1.5614368915557861,-12.913796424865723,-51.146427154541016, -63.077369689941406
325,102533927,0.14193435,0.8134927,-0.083509915,0.5577729,13.007668495178223,0.676341712474823,-0.9773468375205994,-11.678851127624512,-61.033573150634766, -73.53496551513672
326,102550594,0.15019614,0.81991816,-0.076329365,0.5471284,14.410096168518066,0.7006950378417969,-0.09042422473430634,-18.64348030090332,-75.1212387084961, -86.02352905273438
327,102567261,0.16043542,0.82756424,-0.0684843,0.5335803,16.003616333007812,-0.27503150701522827,0.9939823746681213,-27.553186416625977,-94.38568878173828, -100.863525390625
328,102583928,0.17205821,0.83607346,-0.0598268,0.517492,17.924463272094727,-0.9901294708251953,2.8289732933044434,-32.68667984008789,-110.49856567382812, -113.7972412109375
329,102600595,0.1859928,0.8447173,-0.05152276,0.49920443,19.542896270751953,0.7007761597633362,5.196603775024414,-47.9791374206543,-123.14166259765625, -122.68370819091797
330,102617262,0.20317297,0.85271907,-0.044387206,0.4791877,21.134607315063477,-0.0604400709271431,6.985962867736816,-72.2629623413086,-131.39599609375, -129.05685424804688
331,102633929,0.22332971,0.85957664,-0.03753809,0.45808628,20.591245651245117,-0.4992472231388092,5.3578362464904785,-92.57647705078125,-133.55984497070312, -138.40084838867188
332,102650596,0.24546064,0.863626,-0.030069973,0.43931207,17.891313552856445,-4.567211151123047,2.2398805618286133,-105.99249267578125,-109.5616226196289, -144.03387451171875
333,102667263,0.2651342,0.8665749,-0.023965145,0.4221107,14.006598472595215,-6.361686706542969,-4.52030086517334,-97.05059051513672,-99.74104309082031, -125.70092010498047
334,102683930,0.27489215,0.87268007,-0.01771937,0.40317476,11.290966987609863,-3.804743528366089,-7.580075740814209,-32.120384216308594,-120.60772705078125, -101.5042724609375
335,102700597,0.27236173,0.88008624,-0.0054062633,0.38889337,9.78986644744873,5.758479595184326,-5.169862270355225,61.425758361816406,-86.2974853515625, -95.23767852783203
336,102717264,0.2841058,0.8817859,0.0006022258,0.3764803,8.395257949829102,4.687398910522461,-2.6579341888427734,-52.42146301269531,-70.99992370605469, -91.5317611694336
337,102733931,0.29331324,0.8808844,-0.0010985137,0.37149557,7.544886112213135,-10.568699836730957,1.4765597581863403,-62.09819030761719,-34.2718391418457, -23.722400665283203
338,102750598,0.29331225,0.8795432,-0.0043756547,0.374637,4.977985858917236,-8.112096786499023,3.264604330062866,-11.21522331237793,12.80478572845459, 25.675914764404297
339,102767265,0.29136315,0.8770534,-0.008361526,0.38185742,4.285487651824951,-2.1379892826080322,1.4055806398391724,-3.4721498489379883,38.92701721191406, 43.20334243774414
340,102783932,0.28726542,0.8733488,-0.014586155,0.39310032,4.691579341888428,-2.1849420070648193,0.4325388967990875,1.4021273851394653,61.76165771484375, 70.46640014648438
341,102800599,0.27965447,0.8683721,-0.024001665,0.4088365,5.092774868011475,-2.5197904109954834,0.6344619393348694,11.805707931518555,85.52830505371094, 108.12023162841797
342,102817266,0.26941994,0.86144024,-0.035850413,0.42900863,5.955760955810547,-1.0636420249938965,0.1784389466047287,17.597095489501953,112.39893341064453, 138.87155151367188
343,102833933,0.25671452,0.85249054,-0.049704507,0.45264468,6.290516376495361,-0.5453281402587891,-0.33606818318367004,23.42991065979004,134.54708862304688, 164.95599365234375
344,102850600,0.24248785,0.84124273,-0.06557402,0.47875935,6.67608642578125,-0.3124464154243469,-0.9121559858322144,22.86193084716797,152.15684509277344, 186.67169189453125
345,102867267,0.22679639,0.82752055,-0.08294762,0.506846,7.867089748382568,0.04030556604266167,-1.6545323133468628,23.14447593688965,168.551025390625, 204.60601806640625
346,102883934,0.21091269,0.81052566,-0.10227709,0.5367526,9.358596801757812,0.7311829328536987,-2.13067889213562,13.35202407836914,187.16836547851562, 221.12008666992188
347,102900601,0.19621068,0.7901626,-0.12410328,0.56722397,10.6053466796875,2.0393829345703125,-2.5595741271972656,-6.942361831665039,199.97518920898438, 233.87368774414062
348,102917268,0.18162829,0.7676035,-0.14862046,0.5964126,11.553988456726074,1.6779654026031494,-2.9225170612335205,-22.148462295532227,198.0613250732422, 248.18833923339844
349,102933935,0.16625893,0.7424966,-0.17554788,0.62469167,13.84558391571045,3.036864995956421,-2.274750232696533,-31.995018005371094,199.9222869873047, 265.6274108886719
350,102950602,0.1516409,0.71432275,-0.20549124,0.65155333,15.78817367553711,4.377796173095703,-2.470550060272217,-54.01048278808594,203.3463592529297, 279.91534423828125
351,102967269,0.1365017,0.6846333,-0.23570655,0.67608225,17.414569854736328,4.477896690368652,-3.5633645057678223,-57.54341506958008,197.68177795410156, 283.3338623046875
352,102983936,0.12067971,0.6548336,-0.2634484,0.6980146,19.298215866088867,5.539031982421875,-4.4915971755981445,-47.13593292236328,187.21107482910156, 272.6400451660156
353,103000603,0.10636477,0.62510246,-0.28792214,0.71765906,20.12824058532715,6.4842376708984375,-4.493388652801514,-42.31660842895508,182.0577850341797, 248.7193145751953
354,103017270,0.09323569,0.59682184,-0.3055525,0.7360358,18.44605255126953,6.450001239776611,-5.544768810272217,-15.072460174560547,176.8372344970703, 209.71937561035156
355,103033937,0.0809927,0.5736549,-0.3109441,0.75344163,14.305729866027832,10.741021156311035,-7.836097717285156,44.47919464111328,156.72158813476562, 143.71250915527344
356,103050604,0.07134071,0.56154567,-0.3040046,0.7662626,8.212137222290039,9.955964088439941,-11.153719902038574,94.50614929199219,93.81787109375, 55.56052017211914
357,103067271,0.06500893,0.56129503,-0.2905378,0.77221096,5.005177021026611,10.573805809020996,-12.94902229309082,107.5428695678711,15.036118507385254, -15.204752922058105
358,103083938,0.06169866,0.5699895,-0.2793762,0.77023,3.4168894290924072,11.183950424194336,-11.66042709350586,71.8211441040039,-57.955318450927734, -43.68778991699219
359,103100605,0.065699056,0.5801147,-0.27736977,0.76303136,7.456045627593994,14.060681343078613,-7.49723482131958,-14.711969375610352,-75.74137115478516, -51.412742614746094
360,103117272,0.070669115,0.5920354,-0.27737135,0.75336933,11.76038932800293,-1.461043119430542,-3.5289876461029053,-32.99407196044922,-93.99728393554688, -52.927330017089844
361,103133939,0.072403595,0.59664893,-0.2751935,0.7503577,16.216064453125,-15.481712341308594,13.464775085449219,0.6109118461608887,-34.16510009765625, -27.872121810913086
362,103150606,0.06849052,0.60341316,-0.2600307,0.75072366,13.161235809326172,3.339667558670044,0.7094002962112427,98.21376037597656,-35.713890075683594, -54.48750686645508
363,103167273,0.07038592,0.6131966,-0.24790946,0.7467106,17.05356788635254,5.413639545440674,0.1147858202457428,52.003841400146484,-60.50897979736328, -79.27738189697266
364,103183940,0.07513497,0.6243702,-0.23726647,0.74041986,14.684126853942871,5.599517345428467,1.457129955291748,29.17147445678711,-73.09000396728516, -91.11646270751953
365,103200607,0.07998266,0.63508725,-0.23375045,0.73186606,9.190803527832031,5.987508773803711,0.533305287361145,-11.463277816772461,-84.00849151611328, -61.40068435668945
366,103217274,0.087088995,0.6459879,-0.23585355,0.72075534,11.33781909942627,-0.4791800081729889,-6.9833221435546875,-53.60477828979492,-95.56990814208984, -49.896263122558594
367,103233941,0.09081038,0.6565588,-0.23348454,0.7114556,14.549880027770996,-1.9070404767990112,-2.5607762336730957,-13.650993347167969,-88.66375732421875, -51.372337341308594
368,103250608,0.09353591,0.66590023,-0.2279604,0.7041749,9.217986106872559,-1.5570366382598877,-1.7707135677337646,8.759397506713867,-73.15281677246094, -57.52491760253906
369,103267275,0.09669522,0.67384917,-0.22297789,0.69775236,9.1117582321167,-0.3691936731338501,-1.2478364706039429,4.605319023132324,-62.1483154296875, -54.432716369628906
370,103283942,0.098913275,0.6808152,-0.21809024,0.69220203,10.112807273864746,-2.590960741043091,-1.1311794519424438,9.195894241333008,-54.901344299316406, -47.40463638305664
371,103300609,0.09927383,0.68711287,-0.21204698,0.68779117,10.300726890563965,-0.8882287740707397,0.03864105045795441,24.64425277709961,-48.38882064819336, -42.22499084472656
372,103317276,0.099599615,0.6931021,-0.20625037,0.6834839,10.224015235900879,0.296234130859375,0.5909267067909241,23.581817626953125,-46.671287536621094, -40.3907356262207
373,103333943,0.100473575,0.69870925,-0.2020534,0.6788853,10.246463775634766,0.7934877276420593,0.17745469510555267,12.776908874511719,-46.597808837890625, -35.008758544921875
374,103350610,0.10182709,0.7038476,-0.19930516,0.67417175,10.197548866271973,0.4093341529369354,-0.40123483538627625,3.227341890335083,-45.31061935424805, -29.71865463256836
375,103367277,0.1035544,0.7084436,-0.19721566,0.6696941,10.052218437194824,-0.42228829860687256,-1.0548617839813232,-1.6897611618041992,-41.613861083984375, -27.36042594909668
376,103383944,0.1057519,0.7127101,-0.19547522,0.66532,9.902519226074219,-0.6000584363937378,-0.9089482426643372,-5.68071174621582,-39.21064758300781, -27.315805435180664
377,103400611,0.108529404,0.7169036,-0.19432642,0.66068757,10.0366849899292,-0.2396641969680786,-0.689647912979126,-11.630033493041992,-39.801002502441406, -27.1709041595459
378,103417278,0.11194344,0.7207766,-0.19373678,0.65606093,10.004374504089355,-0.2741071581840515,-0.491667777299881,-17.539945602416992,-37.89438247680664, -26.882360458374023
379,103433945,0.11569947,0.7242378,-0.19336191,0.65169376,9.774052619934082,-0.4482487142086029,-1.1882597208023071,-20.17432403564453,-34.473411560058594, -26.62109375
380,103450612,0.119185954,0.72754943,-0.19279659,0.64753085,9.644667625427246,-0.10747980326414108,-1.3433579206466675,-17.8265438079834,-32.99982452392578, -26.010347366333008
381,103467279,0.12288968,0.7305756,-0.19240557,0.6435355,9.713225364685059,-0.11748606711626053,-1.2180691957473755,-19.70157814025879,-30.75203514099121, -25.597700119018555
382,103483946,0.12668017,0.7334603,-0.19194598,0.63964444,9.739251136779785,-0.10810138285160065,-1.1184300184249878,-19.81597328186035,-29.43638801574707, -26.05706024169922
383,103500613,0.12995343,0.7365202,-0.19048697,0.6358972,9.567581176757812,-0.7077692747116089,-1.3184988498687744,-12.470763206481934,-29.301847457885742, -28.93660545349121
384,103517280,0.13262828,0.7398182,-0.18773563,0.63232446,9.418689727783203,-0.7147271633148193,-1.288811206817627,-3.350881338119507,-29.094587326049805, -33.03315353393555
385,103533947,0.13484158,0.743586,-0.18399146,0.6285259,9.322467803955078,-0.5541717410087585,-1.2314342260360718,3.448042154312134,-31.982563018798828, -36.90314865112305
386,103550614,0.13677171,0.7479932,-0.17973258,0.6240963,9.2709321975708,-1.20124351978302,-1.0977941751480103,6.912065505981445,-37.86090850830078, -39.71846389770508
387,103567281,0.13803288,0.7529408,-0.1746877,0.619283,9.463705062866211,-1.2266812324523926,-1.1420010328292847,13.75784969329834,-42.247676849365234, -41.93701934814453
388,103583948,0.1395601,0.75792253,-0.1691086,0.61439294,10.0020170211792,1.1674267053604126,-0.6312779784202576,14.591657638549805,-41.97234344482422, -45.96781539916992
389,103600615,0.1421423,0.7628141,-0.16422832,0.6090479,10.145429611206055,1.3416579961776733,-0.7278771996498108,5.527947425842285,-43.41856002807617, -47.115997314453125
390,103617282,0.14482251,0.7677546,-0.1595492,0.60342634,9.932997703552246,1.0603350400924683,-1.2712068557739258,3.907743453979492,-45.17220687866211, -46.79740905761719
391,103633949,0.14712349,0.77270776,-0.15447871,0.5978412,9.956504821777344,0.8258523941040039,-1.5676742792129517,7.5878586769104,-45.06690979003906, -47.271541595458984
392,103650616,0.149853,0.7777769,-0.14948101,0.5918302,10.179271697998047,0.9354270100593567,-1.6922069787979126,4.677205562591553,-47.431922912597656, -49.206581115722656
393,103667283,0.15287413,0.7831542,-0.14450057,0.5851655,9.981435775756836,1.2160255908966064,-1.6978024244308472,2.692988634109497,-51.90707778930664, -51.296836853027344
394,103683950,0.15631598,0.7886126,-0.13954754,0.5780849,10.270359992980957,1.0886318683624268,-1.8244602680206299,-0.008503589779138565,-54.09052276611328, -53.3646354675293
395,103700617,0.16045357,0.79410815,-0.13415031,0.5706581,10.88123893737793,0.6212339997291565,-1.9466032981872559,-2.306809425354004,-54.978355407714844, -58.952552795410156
396,103717284,0.16572613,0.7997443,-0.12806548,0.5626219,12.098991394042969,0.11990851163864136,-1.4652128219604492,-6.213314533233643,-57.0618896484375, -67.97354888916016
397,103733951,0.17228153,0.80554354,-0.12122368,0.55382645,12.308895111083984,0.8365799188613892,-1.113680362701416,-10.82272720336914,-59.89168167114258, -78.1239013671875
398,103750618,0.180839,0.8115512,-0.11359019,0.54385626,14.30154037475586,0.8242043852806091,-0.09456107020378113,-19.62834358215332,-64.60579681396484, -91.71183013916016
399,103767285,0.19083758,0.81846637,-0.104619935,0.531741,15.833475112915039,0.28797343373298645,1.277586579322815,-23.215158462524414,-77.21331787109375, -107.95523071289062
400,103783952,0.20215237,0.8266403,-0.094972074,0.5165081,17.07325553894043,-0.01806286722421646,2.762666702270508,-28.732044219970703,-97.57183837890625, -121.60713195800781
401,103800619,0.21458697,0.83547527,-0.083822206,0.49890625,19.34389305114746,-0.8952309489250183,5.242919921875,-30.3836669921875,-110.62493133544922, -137.8836669921875
402,103817286,0.22846162,0.843897,-0.07221508,0.48002955,21.147628784179688,-1.3286056518554688,7.122625350952148,-38.420249938964844,-115.1069564819336, -147.14602661132812
403,103833953,0.24651548,0.8505831,-0.06164399,0.46036813,21.68625831604004,-1.062417984008789,5.947359085083008,-69.19087219238281,-113.58049011230469, -155.36672973632812
404,103850620,0.26642418,0.8555982,-0.051295374,0.44083863,18.847375869750977,-5.258141040802002,1.4276585578918457,-83.50090026855469,-107.19400787353516, -159.07862854003906
405,103867287,0.2827121,0.86170125,-0.042050496,0.4192576,14.935786247253418,-6.813011169433594,-4.994958877563477,-64.2835693359375,-125.90576934814453, -145.84117126464844
406,103883954,0.2872962,0.8694305,-0.030220041,0.40079725,12.026902198791504,-2.9706578254699707,-7.14833927154541,16.544509887695312,-110.4585189819336, -121.89781188964844
407,103900621,0.28415814,0.87752444,-0.014989036,0.38597998,9.85193920135498,5.823516845703125,-7.035003185272217,73.52345275878906,-84.56285095214844, -113.8604965209961
408,103917288,0.29434627,0.8796456,-0.0070288666,0.37354356,9.505553245544434,1.845984697341919,-0.7695969939231873,-37.602455139160156,-67.15966033935547, -100.07376098632812
409,103933955,0.30041257,0.87953997,-0.005454363,0.3689609,7.555074691772461,-10.932361602783203,2.7181472778320312,-33.19279479980469,-27.073850631713867, -34.87812423706055
410,103950622,0.30076694,0.87838924,-0.0063661207,0.37139097,5.06568717956543,-6.7149763107299805,2.9573545455932617,-6.8897199630737305,12.609776496887207, 9.098580360412598
411,103967289,0.298565,0.8763583,-0.008336563,0.37787008,4.885915756225586,-2.0076985359191895,0.4421352744102478,4.1865129470825195,36.99279022216797, 30.395111083984375
412,103983956,0.29312152,0.8733516,-0.01334417,0.38879135,5.263201713562012,-2.194854259490967,0.08508031070232391,14.073078155517578,59.86933517456055, 66.28358459472656
413,104000623,0.28441462,0.86897683,-0.021248259,0.40439644,5.614991664886475,-1.7441376447677612,0.1054866835474968,23.5902099609375,85.5133056640625, 101.95765686035156
414,104017290,0.27390268,0.862742,-0.03144686,0.42386898,5.705907821655273,-0.6042542457580566,-0.8960663080215454,24.914886474609375,109.03842163085938, 128.51756286621094
415,104033957,0.26172054,0.8544958,-0.044018243,0.44654438,5.9538774490356445,-0.39143630862236023,-1.7123908996582031,24.80654525756836,129.07632446289062, 153.93197631835938
416,104050624,0.2485066,0.84394675,-0.05915578,0.47169822,6.356629371643066,0.14983023703098297,-1.6585849523544312,19.587221145629883,145.79205322265625, 177.34141540527344
417,104067291,0.23534136,0.83053374,-0.07713008,0.49887827,7.260584354400635,0.655714750289917,-1.6655279397964478,6.026762008666992,162.02687072753906, 198.2823486328125
418,104083958,0.22274117,0.81384116,-0.09800808,0.52767766,8.344944953918457,1.4969230890274048,-1.9336591958999634,-11.617188453674316,178.1454315185547, 217.2989044189453
419,104100625,0.21116626,0.7941113,-0.12216387,0.5566617,9.602385520935059,2.7883834838867188,-2.2476394176483154,-33.78257751464844,185.89222717285156, 234.26658630371094
420,104117292,0.20022038,0.7718521,-0.14979133,0.5845673,10.911511421203613,3.5333518981933594,-2.4673731327056885,-55.08838653564453,185.1977996826172, 251.39735412597656
421,104133959,0.1886215,0.7476248,-0.17983083,0.6108521,11.863737106323242,3.639528751373291,-2.3193490505218506,-65.70689392089844,180.54039001464844, 266.64984130859375
422,104150626,0.17576252,0.7213344,-0.21135895,0.635698,14.042431831359863,4.249354362487793,-1.984287142753601,-69.93589782714844,178.35182189941406, 280.3144226074219
423,104167293,0.16124396,0.6932885,-0.2421927,0.65931344,16.561431884765625,5.242928504943848,-2.5416667461395264,-62.580657958984375,178.3745880126953, 285.2283630371094
424,104183960,0.14674237,0.6642942,-0.27066082,0.6811188,18.0158748626709,6.858588695526123,-3.833256244659424,-56.001529693603516,176.7216796875, 273.4908142089844
425,104200627,0.13250796,0.6359184,-0.2948696,0.7007865,18.164779663085938,6.225740432739258,-5.458696365356445,-40.61165237426758,168.88690185546875, 249.53807067871094
426,104217294,0.11576152,0.6098645,-0.3101359,0.72005594,17.378726959228516,5.1046037673950195,-5.726991653442383,14.782547950744629,159.0595245361328, 217.5387420654297
427,104233961,0.0976069,0.58693546,-0.31490064,0.73947096,15.937829971313477,8.564102172851562,-5.443358898162842,75.50201416015625,149.6063690185547, 174.00123596191406
428,104250628,0.08390636,0.5685892,-0.31289783,0.75614876,12.24827766418457,13.199355125427246,-7.718046188354492,89.08475494384766,129.4973602294922, 112.38558959960938
429,104267295,0.07465122,0.56005365,-0.3035879,0.76720375,7.060906410217285,11.07085132598877,-12.746050834655762,103.26242065429688,70.36296081542969, 36.4908332824707
430,104283962,0.0677749,0.5645384,-0.28929982,0.7700706,2.978733539581299,7.878559112548828,-15.398115158081055,109.972900390625,-22.210105895996094, -26.507658004760742
431,104300629,0.06884677,0.5750628,-0.28374502,0.76423275,6.862877368927002,15.919833183288574,-9.512338638305664,18.41823959350586,-76.11093139648438, -50.704402923583984
432,104317296,0.07692423,0.5881663,-0.2865535,0.75234985,11.249251365661621,1.4096641540527344,-1.8283764123916626,-63.789451599121094,-103.7842788696289, -62.209083557128906
433,104333963,0.07816244,0.5953619,-0.28424552,0.7474219,16.1158447265625,-17.177465438842773,14.84666919708252,0.9247536063194275,-55.85039520263672, -32.174617767333984
434,104350630,0.07333819,0.60304826,-0.26828757,0.74764735,11.603292465209961,4.363506317138672,2.1730501651763916,106.20379638671875,-41.89939498901367, -55.20658874511719
435,104367297,0.07547476,0.6130212,-0.25659105,0.74341756,14.983389854431152,5.260603904724121,-0.3966331481933594,48.362796783447266,-61.43811798095703, -79.73839569091797
436,104383964,0.078995734,0.6255455,-0.24581568,0.7362252,16.35775375366211,3.3625967502593994,-0.619062066078186,33.9166374206543,-84.98320770263672, -88.91346740722656
437,104400631,0.08110456,0.6380908,-0.23616175,0.72834754,10.206944465637207,2.6952078342437744,-1.0048433542251587,33.176856994628906,-91.01818084716797, -77.30689239501953
438,104417298,0.083100915,0.6503748,-0.23090735,0.71888036,10.557538032531738,-0.2381850928068161,-6.834192276000977,8.91927719116211,-99.3084487915039, -57.884918212890625
439,104433965,0.08362627,0.6613251,-0.22334257,0.7111778,13.295570373535156,-1.0008907318115234,-2.2366762161254883,28.974679946899414,-85.78591918945312, -57.8256721496582
440,104450632,0.08428779,0.67013204,-0.2148984,0.7054343,9.605642318725586,0.7699998021125793,-1.6299315690994263,34.44051742553711,-65.66787719726562, -58.08314895629883
441,104467299,0.08786276,0.6768836,-0.20965631,0.7001094,9.856361389160156,2.1287028789520264,-0.4388159513473511,4.91644811630249,-51.31480026245117, -54.18286895751953
442,104483966,0.09188076,0.6824142,-0.20610467,0.69526255,11.591389656066895,0.47164660692214966,-0.3486228287220001,-5.330578804016113,-43.6038818359375, -46.390018463134766
443,104500633,0.093053825,0.68718964,-0.20142156,0.6917664,10.394099235534668,-0.6962558627128601,0.1000223457813263,14.863205909729004,-36.98293685913086, -36.17897415161133
444,104517300,0.092584796,0.6918066,-0.19603254,0.6887694,10.1814603805542,0.4481813907623291,-0.23308789730072021,26.568742752075195,-35.704856872558594, -31.181934356689453
445,104533967,0.09312896,0.69621587,-0.19288613,0.6851318,10.230928421020508,0.7481660842895508,0.2450108826160431,10.13459300994873,-37.840248107910156, -25.44788360595703
446,104550634,0.09477042,0.70031536,-0.19170342,0.6810484,10.246341705322266,0.3538113534450531,0.009223509579896927,-5.156665802001953,-38.33310317993164, -21.09505844116211
447,104567301,0.097876295,0.7044542,-0.19208904,0.676215,9.920525550842285,-0.6981089115142822,-0.7487488985061646,-20.511669158935547,-41.236026763916016, -20.947294235229492
448,104583968,0.102448806,0.70807827,-0.1933351,0.6713801,9.782575607299805,-0.0811409130692482,-0.5404042601585388,-31.964811325073242,-37.503631591796875, -22.933055877685547
449,104600635,0.10756273,0.7113486,-0.19495088,0.66663927,9.801764488220215,-0.4102908968925476,-0.3453148901462555,-36.429874420166016,-34.96825408935547, -23.103866577148438
450,104617302,0.11166146,0.7147559,-0.19560386,0.6621142,9.810652732849121,-1.0765115022659302,-0.4374932050704956,-26.660669326782227,-35.20582962036133, -23.194652557373047
451,104633969,0.11482305,0.71830046,-0.19520335,0.6578418,9.785149574279785,-1.0295605659484863,-0.7332370281219482,-16.814910888671875,-35.05415344238281, -24.114097595214844
452,104650636,0.117651306,0.7219441,-0.19395797,0.653709,9.608397483825684,-0.9598332047462463,-0.9976693391799927,-11.08237361907959,-34.60414123535156, -26.818084716796875
453,104667303,0.12015955,0.7255914,-0.19180907,0.64983714,9.599491119384766,-1.151553750038147,-1.233626365661621,-5.083029270172119,-33.02859878540039, -29.674850463867188
454,104683970,0.12263798,0.72926277,-0.18894418,0.64609295,9.59066104888916,-0.9342226982116699,-0.8787225484848022,-1.5486832857131958,-31.952884674072266, -33.057979583740234
455,104700637,0.1240606,0.7332593,-0.18484145,0.64247465,9.439661026000977,-1.0516828298568726,-0.8206965923309326,9.680036544799805,-33.10283660888672, -34.90735626220703
456,104717304,0.12413926,0.7376922,-0.17935383,0.6389304,9.344947814941406,-0.8512784242630005,-0.7807500958442688,23.037702560424805,-35.19251251220703, -36.46354293823242
457,104733971,0.12314448,0.7424003,-0.17250213,0.63554734,9.400493621826172,-0.5383817553520203,-0.8944780230522156,34.905513763427734,-35.75018310546875, -38.88679885864258
458,104750638,0.121946946,0.7471592,-0.1647917,0.6322388,9.565067291259766,0.28779760003089905,-0.7799562811851501,39.82390594482422,-35.113433837890625, -42.39733123779297
459,104767305,0.12127642,0.75207216,-0.1570694,0.62849736,9.822422981262207,0.29532086849212646,-0.5968993902206421,36.80552673339844,-37.408363342285156, -45.29636764526367
460,104783972,0.121374786,0.7571311,-0.14958824,0.62421495,9.926406860351562,0.5207600593566895,-0.5539629459381104,31.325761795043945,-40.21834182739258, -47.99015426635742
461,104800639,0.12260614,0.7622505,-0.14262895,0.6193539,10.120087623596191,0.9545524716377258,-0.6522682905197144,22.642526626586914,-42.77345275878906, -50.68942642211914
462,104817306,0.12516525,0.76742166,-0.13640109,0.61383414,10.333647727966309,1.073912262916565,-0.9734796285629272,11.968944549560547,-45.774051666259766, -53.1215705871582
463,104833973,0.12827477,0.7726713,-0.13042004,0.6078779,10.322450637817383,0.9972901940345764,-1.4419012069702148,7.6824116706848145,-48.11650848388672, -54.596168518066406
464,104850640,0.13187526,0.77799773,-0.124605976,0.60149974,10.43073558807373,0.9654664397239685,-1.4599249362945557,4.067346096038818,-50.39555740356445, -56.20909118652344
465,104867307,0.1356328,0.7838637,-0.11883231,0.5941721,10.327789306640625,0.740877628326416,-1.5490480661392212,2.7377099990844727,-57.61766815185547, -57.973751068115234
466,104883974,0.13981664,0.7904525,-0.11271743,0.5856033,10.66823673248291,0.36228787899017334,-1.2828080654144287,1.4941037893295288,-66.60456085205078, -63.31340789794922
467,104900641,0.14468145,0.79768014,-0.10535038,0.57591254,11.728185653686523,1.7655584812164307,-0.3174319267272949,2.580098867416382,-73.55757904052734, -74.45067596435547
468,104917308,0.15087448,0.80535734,-0.09790259,0.56484663,12.585986137390137,1.727990746498108,-0.5395934581756592,-4.926527976989746,-81.86389923095703, -81.85462951660156
469,104933975,0.15928619,0.81315607,-0.090675905,0.5524341,14.023590087890625,1.30104398727417,-0.3928135633468628,-18.8463134765625,-88.55779266357422, -90.73690795898438
470,104950642,0.16936556,0.82128096,-0.0830188,0.5384431,15.327374458312988,0.6547184586524963,0.3894035518169403,-27.155027389526367,-97.1456527709961, -101.43099975585938
471,104967309,0.18075652,0.8297424,-0.074653774,0.5227638,16.455698013305664,0.02275313064455986,1.7913026809692383,-32.50941848754883,-106.40196990966797, -112.47441101074219
472,104983976,0.19361857,0.83810365,-0.06513579,0.5058177,18.141983032226562,-0.17866486310958862,3.785323143005371,-37.523990631103516,-111.14410400390625, -125.90788269042969
473,105000643,0.209274,0.8456288,-0.05673106,0.48774794,19.439022064208984,-0.9851061701774597,5.274810791015625,-59.09893035888672,-115.02967834472656, -130.38528442382812
474,105017310,0.22811726,0.8517989,-0.048697833,0.46907344,20.67436408996582,-1.1132166385650635,5.315857410430908,-81.0517349243164,-113.39264678955078, -139.33316040039062
475,105033977,0.24792783,0.85707766,-0.0401527,0.44981956,19.164142608642578,-3.8109004497528076,2.310645818710327,-86.64094543457031,-112.88484954833984, -146.1488037109375
476,105050644,0.26787686,0.86163765,-0.033431828,0.4297734,15.830495834350586,-6.397735595703125,-2.1854019165039062,-94.54390716552734,-118.47142028808594, -137.08486938476562
477,105067311,0.28130877,0.8676741,-0.02700461,0.40899625,13.64803695678711,-4.160466194152832,-7.20194149017334,-54.280582427978516,-129.22698974609375, -117.87662506103516
478,105083978,0.28001195,0.87566257,-0.012478819,0.3932594,10.832149505615234,1.7346537113189697,-6.844663619995117,61.03449630737305,-91.7051773071289, -115.45389556884766
479,105100645,0.2852395,0.88004565,-0.0009445987,0.3796808,10.669048309326172,6.4911909103393555,-1.4840068817138672,6.889267444610596,-74.15030670166016, -110.63064575195312
480,105117312,0.29390758,0.8806559,0.0023860522,0.37156186,8.975171089172363,-6.437213897705078,1.2307790517807007,-42.67983627319336,-47.34769821166992, -59.23549270629883
481,105133979,0.29707104,0.8799247,0.0014965285,0.37078184,5.921236515045166,-8.017215728759766,2.8442342281341553,-22.989418029785156,-7.951927661895752, -4.882713317871094
482,105150646,0.2960227,0.8785487,-0.0007079017,0.3748634,4.701932430267334,-2.9004387855529785,1.2591267824172974,-2.2573187351226807,20.435476303100586, 23.670793533325195
483,105167313,0.29197043,0.8761698,-0.005641234,0.38346857,4.801258563995361,-2.0518639087677,0.7453855872154236,6.824138641357422,44.76470947265625, 57.0894889831543
484,105183980,0.2848564,0.87250954,-0.013938698,0.39672387,4.746450424194336,-1.7279163599014282,0.42524856328964233,13.99615478515625,69.27669525146484, 94.80050659179688
485,105200647,0.27516657,0.8673906,-0.024409587,0.41391003,5.096883773803711,-0.6547951102256775,-0.04049215465784073,21.028478622436523,92.32943725585938, 122.6981201171875
486,105217314,0.26401737,0.8603069,-0.0374086,0.43447405,5.418667316436768,-0.16970300674438477,-0.21389862895011902,19.377227783203125,113.03731536865234, 148.6528778076172
487,105233981,0.2517839,0.8509963,-0.05307741,0.4578136,5.871957778930664,0.05672585591673851,-0.560117244720459,14.478081703186035,130.9849090576172, 173.3021697998047
488,105250648,0.23881231,0.8389057,-0.071496546,0.48383296,6.6035380363464355,0.7195037007331848,-0.800111711025238,6.293452739715576,150.39559936523438, 197.3826446533203
489,105267315,0.22565673,0.8236663,-0.09267333,0.51192284,7.41943883895874,1.2726970911026,-1.3430745601654053,-5.984286785125732,168.20912170410156, 218.86407470703125
490,105283982,0.21172564,0.8054784,-0.11653851,0.5411061,8.666254043579102,1.6973077058792114,-1.4667277336120605,-14.94223403930664,180.1348419189453, 240.4125518798828
491,105300649,0.19793329,0.78443646,-0.1431208,0.5700866,10.014176368713379,2.3404266834259033,-1.4380764961242676,-30.155893325805664,185.80526733398438, 256.9573059082031
492,105317316,0.183926,0.76090926,-0.17187253,0.59803694,11.644584655761719,2.5625410079956055,-1.7329469919204712,-41.9051513671875,186.84765625, 270.5659484863281
493,105333983,0.16850488,0.7352028,-0.20159599,0.62485385,13.616296768188477,2.6636297702789307,-1.5936133861541748,-42.61160659790039,187.0048370361328, 282.6339111328125
494,105350650,0.15042977,0.7074301,-0.2304336,0.6510102,15.778813362121582,3.2811660766601562,-1.9225369691848755,-28.7032527923584,189.9158935546875, 291.6921081542969
495,105367317,0.13081853,0.6777785,-0.2572712,0.67625046,18.56427574157715,5.863441467285156,-2.5797948837280273,-15.681325912475586,193.53607177734375, 290.9171142578125
496,105383984,0.11396618,0.64638615,-0.28311038,0.6993177,20.366798400878906,8.346010208129883,-2.9327597618103027,-29.307952880859375,197.3177947998047, 274.6355285644531
497,105400651,0.100958794,0.6146333,-0.30665985,0.71971756,20.539396286010742,7.210258960723877,-4.321837425231934,-40.86558151245117,196.51687622070312, 244.68544006347656
498,105417318,0.088056356,0.5852343,-0.31990135,0.7398718,19.524105072021484,8.44096851348877,-5.603083610534668,10.834953308105469,191.25982666015625, 195.5680389404297
499,105433985,0.07855321,0.5626383,-0.31975326,0.7583045,13.43726634979248,11.010866165161133,-10.08212947845459,65.61776733398438,165.36801147460938, 108.5101318359375
500,105450652,0.0706617,0.5543975,-0.3073591,0.77018243,6.831475257873535,9.307713508605957,-14.211695671081543,116.58348846435547,75.4343490600586, 17.774396896362305
501,105467319,0.06517789,0.55977654,-0.29185987,0.7728003,1.1903951168060303,8.285562515258789,-16.58133316040039,110.93388366699219,-25.241342544555664, -39.986637115478516
502,105483986,0.06739413,0.5701785,-0.2894991,0.7658623,6.591642379760742,17.976465225219727,-8.850881576538086,-5.39092493057251,-78.99078369140625, -44.624759674072266
503,105500653,0.07685291,0.58251363,-0.29379562,0.7539601,10.976664543151855,3.085941791534424,-3.9197325706481934,-77.8171615600586,-97.22186279296875, -62.63650894165039
504,105517320,0.07945961,0.589506,-0.2914883,0.74913543,16.465511322021484,-15.873570442199707,13.614020347595215,-4.646263122558594,-51.48994064331055, -38.97946548461914
505,105533987,0.07457959,0.5971723,-0.276463,0.7492608,11.479504585266113,1.4196128845214844,1.9892348051071167,101.47520446777344,-43.062007904052734, -50.73202896118164
506,105550654,0.07760894,0.606212,-0.26552948,0.74563956,15.2266206741333,6.422520160675049,0.7680965065956116,41.49911880493164,-52.58259963989258, -79.17987823486328
507,105567321,0.08436153,0.6177819,-0.25733185,0.73824733,17.415546417236328,5.565134048461914,1.5468472242355347,6.418698310852051,-75.9237060546875, -93.41082000732422
508,105583988,0.09021384,0.63008934,-0.25180492,0.7290016,9.260088920593262,4.22204065322876,-0.9648761749267578,-6.161350727081299,-90.68310546875, -79.79749298095703
509,105600655,0.096130304,0.6433695,-0.25201502,0.7164659,11.329694747924805,0.38030603528022766,-8.192182540893555,-40.272605895996094,-113.25232696533203, -58.950401306152344
510,105617322,0.10060592,0.65588665,-0.24817926,0.7057609,14.615427017211914,-1.820378065109253,-1.6441510915756226,-11.267104148864746,-101.14387512207031, -67.20924377441406
511,105633989,0.10339348,0.6667716,-0.24164346,0.69737667,8.669515609741211,-1.6953181028366089,-2.1842966079711914,12.292941093444824,-83.7588882446289, -66.81562042236328
512,105650656,0.10624404,0.67619437,-0.2353505,0.6899882,8.996440887451172,-0.676304042339325,-1.356021761894226,11.465381622314453,-72.23712158203125, -62.893402099609375
513,105667323,0.10849895,0.6845099,-0.22882879,0.68360215,10.239986419677734,-2.0754635334014893,-1.6991512775421143,16.139312744140625,-63.11554718017578, -58.62397766113281
514,105683990,0.10932946,0.6916335,-0.22177933,0.67860466,10.677247047424316,0.05123411864042282,-0.5920863747596741,26.620386123657227,-52.81816864013672, -51.53081130981445
515,105700657,0.10927818,0.6982398,-0.21453245,0.674163,10.48630428314209,0.22536693513393402,0.05425219237804413,32.19659423828125,-48.961612701416016, -47.15803909301758
516,105717324,0.10956272,0.70402604,-0.20847388,0.6699866,10.35498332977295,1.961191177368164,0.339200496673584,24.851720809936523,-44.29676055908203, -41.60920715332031
517,105733991,0.110737845,0.70912427,-0.2044678,0.6656373,10.500534057617188,0.7083981037139893,0.24010080099105835,10.32402229309082,-42.249507904052734, -34.91242980957031
518,105750658,0.112563506,0.7135391,-0.2018147,0.66140956,10.343786239624023,0.508945882320404,-0.46683743596076965,0.6128594279289246,-38.66265869140625, -30.243511199951172
519,105767325,0.115138695,0.7172786,-0.2001137,0.6574262,10.024877548217773,0.15652233362197876,-0.9119042754173279,-7.576699256896973,-34.10281753540039, -27.859973907470703
520,105783992,0.118076056,0.7204061,-0.19875862,0.65388715,9.978961944580078,-0.18645666539669037,-1.0074864625930786,-10.797635078430176,-28.931594848632812, -26.606103897094727
521,105800659,0.12083037,0.7230314,-0.19688936,0.6510457,9.78393840789795,-1.189212441444397,-1.4330686330795288,-7.033984184265137,-23.061565399169922, -27.08989906311035
522,105817326,0.122782335,0.7250532,-0.19396175,0.6493084,9.751431465148926,-0.4703035056591034,-1.525647521018982,2.6820623874664307,-15.082962036132812, -27.047426223754883
523,105833993,0.12352666,0.727051,-0.19034038,0.6480036,9.678827285766602,-0.8374736905097961,-1.7158180475234985,12.353551864624023,-13.847015380859375, -24.733306884765625
524,105850660,0.122827426,0.7292648,-0.18582848,0.6469577,9.773853302001953,0.0662693977355957,-1.3167872428894043,24.056488037109375,-14.647625923156738, -22.83613395690918
525,105867327,0.12205119,0.73154265,-0.18122119,0.64583915,9.540565490722656,0.47214874625205994,-0.7572534680366516,24.826465606689453,-15.317544937133789, -23.127124786376953
526,105883994,0.121514045,0.7342038,-0.17643823,0.6442429,9.42794132232666,0.32969900965690613,-0.39015325903892517,24.12904930114746,-18.985498428344727, -25.959442138671875
527,105900661,0.12001611,0.73776865,-0.16968201,0.6422628,9.508584022521973,-0.44544923305511475,0.04172569513320923,21.82585334777832,-23.562335968017578, -30.969812393188477
528,105917328,0.11894756,0.7418851,-0.16269527,0.6395221,9.614335060119629,-0.5490713119506836,0.13803523778915405,20.5758056640625,-29.344623565673828, -35.26311111450195
529,105933995,0.11974332,0.74597704,-0.15715437,0.6359895,9.692811965942383,0.14888665080070496,-0.14620928466320038,19.56196403503418,-33.122196197509766, -38.90013885498047
530,105950662,0.121291205,0.7502344,-0.15181457,0.6319725,9.733920097351074,0.42634516954421997,-0.5723040699958801,14.437652587890625,-35.69982147216797, -41.74880599975586
531,105967329,0.12330606,0.7546768,-0.14644893,0.627544,9.93556022644043,0.41859763860702515,-0.7752135396003723,11.865992546081543,-38.13148498535156, -44.458770751953125
532,105983996,0.12596707,0.7591727,-0.14100878,0.622821,9.957064628601074,0.893631637096405,-0.7628857493400574,8.584733009338379,-39.18821716308594, -47.948944091796875
533,106000663,0.12929098,0.7637738,-0.13566777,0.61767954,9.973166465759277,0.7432692646980286,-0.8383013606071472,4.386247634887695,-41.280521392822266, -50.74294662475586
534,106017330,0.1329199,0.7686523,-0.13004528,0.61204123,10.020675659179688,0.5036224722862244,-0.9021223783493042,3.763960599899292,-44.547332763671875, -54.22751235961914
535,106033997,0.13670081,0.7739966,-0.12389836,0.605716,10.135287284851074,0.494765967130661,-1.1854901313781738,4.980512619018555,-49.53568649291992, -58.69727325439453
536,106050664,0.1401628,0.7801588,-0.11710409,0.5983258,10.251818656921387,0.2707940340042114,-1.6328084468841553,9.236967086791992,-58.28435516357422, -62.52738571166992
537,106067331,0.1432305,0.7869141,-0.10955984,0.5901256,10.3763427734375,0.7137907147407532,-1.461701512336731,14.355422019958496,-64.6727294921875, -66.20532989501953
538,106083998,0.1475024,0.79357773,-0.10218726,0.58140844,11.074603080749512,1.9209164381027222,-1.1382496356964111,6.667110919952393,-66.37191009521484, -70.61891174316406
539,106100665,0.15371999,0.8002024,-0.09478715,0.5718934,12.073390007019043,2.1239511966705322,-0.3840024471282959,-4.433501243591309,-69.19390106201172, -79.33589935302734
540,106117332,0.16174601,0.8069768,-0.087416135,0.5612358,13.455704689025879,2.2495362758636475,-0.016308575868606567,-15.076722145080566,-74.95233917236328, -87.60182189941406
541,106133999,0.1717061,0.8138441,-0.07939349,0.5494287,15.130614280700684,1.5297353267669678,0.5958911776542664,-23.870527267456055,-79.84253692626953, -100.02986145019531
542,106150666,0.18326184,0.82146156,-0.07114892,0.5353077,16.15621566772461,0.6142603158950806,1.2343275547027588,-32.32880401611328,-94.54525756835938, -110.47105407714844
543,106167333,0.19529833,0.83025765,-0.062058814,0.5183434,17.567298889160156,-0.7375146150588989,2.6740615367889404,-31.827186584472656,-113.70879364013672, -121.22293853759766
544,106184000,0.2076536,0.8394643,-0.05189023,0.49948722,19.041648864746094,-1.395055890083313,3.78076171875,-30.048194885253906,-124.47246551513672, -131.3019256591797
545,106200667,0.22401212,0.84674156,-0.04316271,0.48060894,20.33875274658203,-0.9062780141830444,5.3732523918151855,-60.8569450378418,-118.70306396484375, -136.16159057617188
546,106217334,0.2453362,0.8512939,-0.035503183,0.4624376,20.757783889770508,-1.8168977499008179,4.243372917175293,-97.2636947631836,-105.8717269897461, -144.55433654785156
547,106234001,0.27226105,0.8542804,-0.030827044,0.44173375,17.487165451049805,-4.167011260986328,-0.7134400606155396,-142.7843475341797,-119.49100494384766, -148.91964721679688
548,106250668,0.29034278,0.85968363,-0.025536679,0.41951573,14.238515853881836,-6.745347499847412,-6.607264041900635,-84.77865600585938,-136.48873901367188, -129.13543701171875
549,106267335,0.29126543,0.8682659,-0.012520686,0.40140077,12.033194541931152,-0.7666624784469604,-6.565622806549072,45.94464874267578,-108.98529815673828, -117.78165435791016
550,106284002,0.2926416,0.87448925,0.0005948431,0.38681966,10.93175983428955,6.525211334228516,-3.0529274940490723,39.057220458984375,-81.13532257080078, -112.39097595214844
551,106300669,0.30158198,0.8763089,0.0066696266,0.3756153,8.913309097290039,-1.703661322593689,-0.5482574105262756,-34.001800537109375,-63.329978942871094, -83.39298248291016
552,106317336,0.30602047,0.87670535,0.0072112745,0.3710629,7.1685051918029785,-8.665742874145508,2.549041271209717,-24.4365177154541,-30.861370086669922, -24.752517700195312
553,106334003,0.3041037,0.87691575,0.006218954,0.3721582,4.706114292144775,-5.3566670417785645,1.9894238710403442,9.247467041015625,0.7028194665908813, 12.495453834533691
554,106350670,0.29887214,0.87630767,0.0036298495,0.37781948,4.730686664581299,-2.379744529724121,0.7602700591087341,23.21770477294922,27.105125427246094, 40.07542419433594
555,106367337,0.2908421,0.8746591,-0.001863172,0.38778722,4.496087551116943,-2.520921230316162,0.10769730806350708,30.27519989013672,49.84050369262695, 73.64844512939453
556,106384004,0.27945554,0.87194127,-0.009703716,0.4019067,5.146510601043701,-1.6956045627593994,-0.014681927859783173,42.09741973876953,72.91230010986328, 105.01937103271484
557,106400671,0.2663129,0.8672117,-0.01990108,0.4202686,5.6872358322143555,-0.47772330045700073,-0.151147723197937,42.514949798583984,99.24726104736328, 132.28240966796875
558,106417338,0.25239706,0.860148,-0.03264783,0.4420131,5.905171871185303,-0.7126631140708923,-0.8787343502044678,35.93558120727539,121.37786102294922, 156.23468017578125
559,106434005,0.23617426,0.8508352,-0.04728892,0.46697462,6.71909761428833,-0.6299552321434021,-1.496893048286438,40.62828063964844,143.43519592285156, 180.54110717773438
560,106450672,0.21810816,0.8388963,-0.06339083,0.4946352,7.495952129364014,0.22626346349716187,-1.687778115272522,43.31624221801758,164.6907501220703, 200.2495574951172
561,106467339,0.19899002,0.8241733,-0.0807287,0.52404636,8.672743797302246,0.8020504713058472,-1.8047740459442139,41.758811950683594,181.95252990722656, 214.80702209472656
562,106484006,0.18040471,0.80624366,-0.099539794,0.55454284,9.871975898742676,1.9625164270401,-2.151902198791504,29.631813049316406,197.9470672607422, 224.51412963867188
563,106500673,0.163045,0.7856613,-0.12080435,0.5844307,11.188697814941406,2.4539847373962402,-2.770879030227661,9.770411491394043,202.4971160888672, 234.52210998535156
564,106517340,0.14280236,0.76349914,-0.14108522,0.6138174,12.63291072845459,2.372199058532715,-2.9455626010894775,-1.8974355459213257,203.02481079101562, 247.9727020263672
565,106534007,0.124581955,0.73869306,-0.16622388,0.6412347,14.11878490447998,2.8790314197540283,-2.920862913131714,-8.602701187133789,202.90435791015625, 259.2228698730469
566,106550674,0.105189055,0.7120089,-0.1921381,0.66712946,16.16438102722168,3.5674681663513184,-2.9913392066955566,-9.424302101135254,201.48443603515625, 269.219482421875
567,106567341,0.08615906,0.6834627,-0.21892753,0.691033,18.654155731201172,5.796070575714111,-3.323300361633301,-19.203718185424805,200.1659698486328, 272.919189453125
568,106584008,0.06982332,0.654231,-0.24586911,0.7117972,19.580230712890625,7.410033702850342,-4.725994110107422,-37.73320388793945,192.68429565429688, 260.0895690917969
569,106600675,0.055433035,0.62635565,-0.27009374,0.7291471,18.77791404724121,6.089842796325684,-6.603896141052246,-38.300411224365234,175.34335327148438, 234.52235412597656
570,106617342,0.04031138,0.6008592,-0.2843681,0.74597466,17.72918128967285,8.62452220916748,-6.786839485168457,14.69083023071289,163.69161987304688, 190.82492065429688
571,106634009,0.029367425,0.5808015,-0.28801957,0.7608234,12.497600555419922,13.041131019592285,-9.611801147460938,49.56589126586914,138.82533264160156, 114.47039794921875
572,106650676,0.022098098,0.5722124,-0.28156304,0.7699398,7.335502624511719,9.421360969543457,-13.253467559814453,78.74784851074219,65.3808822631836, 31.19934844970703
573,106667343,0.017091349,0.57609665,-0.26974797,0.77139926,2.861933469772339,7.532656669616699,-15.835068702697754,85.32987213134766,-25.41912269592285, -27.04220962524414
574,106684010,0.019288603,0.5861573,-0.26761892,0.764479,6.254704475402832,17.155691146850586,-10.223098754882812,-9.335959434509277,-78.97278594970703, -39.24140930175781
575,106700677,0.028365228,0.5995961,-0.27172074,0.7522287,11.084284782409668,3.1366443634033203,-1.8265693187713623,-79.14962005615234,-106.27351379394531, -57.017051696777344
576,106717344,0.030469732,0.60656774,-0.26797992,0.7478866,16.79345703125,-14.777612686157227,16.36293601989746,3.6881754398345947,-51.69428253173828, -39.59671401977539
577,106734011,0.02439606,0.61403924,-0.2507728,0.7479799,11.080695152282715,3.5629756450653076,1.3490309715270996,115.27836608886719,-48.16364669799805, -53.815582275390625
578,106750678,0.025894098,0.6236536,-0.2381334,0.7440958,15.575323104858398,4.736937999725342,-0.15167468786239624,53.31922149658203,-63.67548370361328, -77.77323150634766
579,106767345,0.028233273,0.6356643,-0.22531386,0.7378128,16.094457626342773,2.8663744926452637,-0.43501949310302734,47.13969802856445,-84.78547668457031, -87.11604309082031
580,106784012,0.029813575,0.64784604,-0.21521111,0.73013103,9.854935646057129,2.9458796977996826,-1.4971554279327393,34.557193756103516,-93.4431381225586, -71.8672103881836
581,106800679,0.033419218,0.66037846,-0.21062604,0.7200144,11.003289222717285,-0.21223527193069458,-6.1387619972229,-5.676456928253174,-104.16039276123047, -58.43923568725586
582,106817346,0.035300385,0.67173386,-0.2031565,0.7115162,12.822164535522461,-1.374824047088623,-3.016632080078125,18.538803100585938,-92.75234985351562, -60.91831970214844
583,106834013,0.03843003,0.68139344,-0.19474535,0.70448625,9.817553520202637,0.32203277945518494,-1.473623514175415,19.03861427307129,-75.66950225830078, -68.65794372558594
584,106850680,0.043585226,0.6896073,-0.18857263,0.6978417,9.755894660949707,1.8091480731964111,0.10009188950061798,-1.1518633365631104,-64.7315444946289, -65.94393920898438
585,106867347,0.04907438,0.6969977,-0.18416698,0.6912805,10.950006484985352,-0.48956021666526794,-0.3044894337654114,-11.349157333374023,-60.4941520690918, -58.06021499633789
586,106884014,0.05166656,0.70324105,-0.17914651,0.686068,10.582557678222656,-0.8913276791572571,-0.26964664459228516,6.783772945404053,-52.05268859863281, -45.34007263183594
587,106900681,0.052513003,0.7086083,-0.17297156,0.682054,9.842546463012695,-0.7219899892807007,-0.616104006767273,21.837581634521484,-43.87339401245117, -41.20004653930664
588,106917348,0.05284625,0.7131349,-0.16723366,0.6787335,10.407475471496582,0.8545088768005371,-0.35338330268859863,22.811494827270508,-37.32514190673828, -35.43268585205078
589,106934015,0.053179577,0.7170608,-0.16259818,0.6756907,10.558781623840332,0.5343124270439148,-0.3641777038574219,17.769330978393555,-33.57084655761719, -29.235965728759766
590,106950682,0.054212898,0.7209028,-0.15957528,0.6722324,9.909539222717285,0.5796729922294617,-0.8454586863517761,6.334619045257568,-35.048343658447266, -24.599470138549805
591,106967349,0.056271985,0.7247516,-0.15835331,0.6682014,9.903727531433105,0.16805659234523773,-1.0150030851364136,-7.695527076721191,-37.47248458862305, -20.638439178466797
592,106984016,0.059782337,0.72804785,-0.15855232,0.66425455,9.975361824035645,0.17512927949428558,-0.7822830080986023,-21.57406997680664,-33.49636459350586, -19.59773063659668
593,107000683,0.06290728,0.7311016,-0.15878974,0.6605447,9.845348358154297,-0.4882606565952301,-0.8163939714431763,-19.659847259521484,-31.653846740722656, -17.290401458740234
594,107017350,0.065265596,0.73393226,-0.15849935,0.65723836,9.76970100402832,-0.5596140623092651,-0.6734921932220459,-13.063661575317383,-29.236553192138672, -16.058284759521484
595,107034017,0.067155845,0.73663867,-0.15756515,0.65423787,9.851095199584961,-0.7170382142066956,-0.8404433727264404,-7.514590263366699,-27.367618560791016, -16.934938430786133
596,107050684,0.068861775,0.7393757,-0.15583842,0.6513804,9.700008392333984,-0.7452976107597351,-1.053726315498352,-2.848079204559326,-26.628578186035156, -20.104267120361328
597,107067351,0.07059393,0.74222475,-0.15318885,0.6485773,9.54414176940918,-0.9764747619628906,-0.9786869883537292,1.2606821060180664,-26.39905548095703, -25.02518081665039
598,107084018,0.07236272,0.74542344,-0.14955546,0.64555484,9.588793754577637,-1.3107086420059204,-0.5226699113845825,5.3992228507995605,-28.570402145385742, -30.705427169799805
599,107100685,0.07382138,0.749111,-0.14512007,0.6421245,9.332291603088379,-0.9881901144981384,-0.463098406791687,10.370058059692383,-32.76679992675781, -34.171424865722656
600,107117352,0.07475635,0.75328714,-0.13983922,0.6382911,9.447476387023926,-0.6435604691505432,-0.5153779983520508,16.641332626342773,-37.107872009277344, -36.9295654296875
601,107134019,0.075553484,0.7579016,-0.13387173,0.6339999,9.701838493347168,-0.560039758682251,-0.665136992931366,20.154251098632812,-41.197296142578125, -40.55883026123047
602,107150686,0.07656057,0.76283157,-0.12746422,0.62926906,9.724649429321289,0.0643821507692337,-0.7608344554901123,20.73800277709961,-44.45461654663086, -44.30644989013672
603,107167353,0.07795076,0.76810634,-0.12108025,0.62392014,9.859533309936523,0.6088517904281616,-1.0098788738250732,18.266788482666016,-48.878021240234375, -46.4823112487793
604,107184020,0.08001404,0.77348757,-0.11488289,0.6181561,10.024330139160156,0.9240265488624573,-1.2276347875595093,13.626045227050781,-51.079994201660156, -48.70416259765625
605,107200687,0.08238383,0.7789952,-0.10881309,0.61199635,10.02888298034668,0.7769835591316223,-1.3108024597167969,11.215381622314453,-53.56064987182617, -49.6530876159668
606,107217354,0.08522086,0.7847289,-0.103045635,0.6052436,10.284469604492188,1.03690505027771,-1.3369730710983276,7.129026889801025,-57.52236557006836, -50.514705657958984
607,107234021,0.08834811,0.79090136,-0.097315915,0.5976617,10.3685941696167,0.5553369522094727,-1.5474200248718262,5.080458164215088,-63.653751373291016, -52.3240966796875
608,107250688,0.09144857,0.79737616,-0.09094999,0.5895395,10.336906433105469,-0.43016496300697327,-1.9443684816360474,7.6678786277771,-67.47870635986328, -56.21958541870117
609,107267355,0.09499528,0.8039041,-0.08408816,0.5810712,11.001293182373047,-0.9075606465339661,-2.1585376262664795,7.046796798706055,-69.01359558105469, -61.02510452270508
610,107284022,0.10085183,0.8103616,-0.07714319,0.57200724,12.055359840393066,1.7502009868621826,-0.5844685435295105,-5.781734466552734,-70.64952850341797, -71.09510040283203
611,107300689,0.10881882,0.81715506,-0.07115067,0.5615641,11.818142890930176,2.117790699005127,-0.6030853986740112,-21.77693748474121,-79.23417663574219, -75.2315902709961
612,107317356,0.118711315,0.8242216,-0.065676436,0.5497758,12.832042694091797,2.341395378112793,-0.37469130754470825,-35.0373420715332,-87.33153533935547, -80.9031753540039
613,107334023,0.13037625,0.83148515,-0.05969053,0.5367234,14.883963584899902,1.605966329574585,-0.23258176445960999,-43.543113708496094,-94.0717544555664, -91.63707733154297
614,107350690,0.14371222,0.83904374,-0.053694934,0.5219863,15.829606056213379,0.5304273366928101,1.1740761995315552,-53.47479248046875,-104.1589584350586, -99.52104949951172
615,107367357,0.15861042,0.8457076,-0.04424507,0.50760627,18.086772918701172,0.5315342545509338,4.174664497375488,-79.32270050048828,-101.2850570678711, -111.36915588378906
616,107384024,0.17764242,0.85105443,-0.03569651,0.4928242,20.367069244384766,-0.8021027445793152,6.825351715087891,-100.56526184082031,-98.2920913696289, -123.44062805175781
617,107400691,0.20420922,0.8555817,-0.03170442,0.47463033,21.232391357421875,-0.8249654769897461,7.256895065307617,-141.01881408691406,-113.64906311035156, -136.64547729492188
618,107417358,0.23263834,0.86059386,-0.027339414,0.45222858,21.29041862487793,-3.1853694915771484,3.393965482711792,-150.9635467529297,-139.22515869140625, -151.0720672607422
619,107434025,0.2523761,0.86702764,-0.019178594,0.42918763,17.87164878845215,-7.361621856689453,-3.920257568359375,-85.55321502685547,-143.1004180908203, -147.94956970214844
620,107450692,0.2597468,0.87479144,-0.0063938345,0.40893933,13.955398559570312,-5.037383556365967,-7.417112350463867,4.451506614685059,-124.0114974975586, -134.5059051513672
621,107467359,0.25797763,0.88299656,0.009138922,0.39202246,11.1124906539917,0.9045507311820984,-4.721174716949463,68.02738189697266,-100.70388793945312, -119.50396728515625
622,107484026,0.2619801,0.8876392,0.021792008,0.37813824,9.877163887023926,6.201829433441162,-3.096525192260742,18.70153045654297,-78.16677856445312, -112.45114135742188
623,107500693,0.271843,0.8886014,0.02657629,0.36848757,8.43798828125,-3.3083627223968506,-0.7896276116371155,-44.75661087036133,-57.81865692138672, -72.58657836914062
624,107517360,0.2755381,0.88838696,0.02682249,0.36623523,6.403327465057373,-9.116080284118652,2.7237324714660645,-22.150901794433594,-17.0139102935791, -15.691612243652344
625,107534027,0.2736309,0.8877192,0.025117148,0.36939186,4.465396404266357,-4.510156154632568,2.0588266849517822,5.243591785430908,14.458062171936035, 20.40200424194336
626,107550694,0.26928592,0.8860354,0.021680973,0.37677148,4.071280002593994,-1.85892653465271,0.6738236546516418,13.059712409973145,39.95266342163086, 44.88600158691406
627,107567361,0.26225033,0.88331574,0.015524986,0.38824928,4.460694789886475,-1.7368232011795044,0.12156642228364944,19.858123779296875,62.95630645751953, 75.84613037109375
628,107584028,0.25314447,0.8788527,0.0063634943,0.40434593,5.288761138916016,-1.099976658821106,0.24286335706710815,20.750757217407227,90.45487213134766, 107.75800323486328
629,107600695,0.24245654,0.87220013,-0.0056845257,0.42479402,5.991742134094238,-0.4348326027393341,-0.40532201528549194,18.266061782836914,117.87025451660156, 137.07081604003906
630,107617362,0.23021226,0.8633842,-0.02050385,0.44849756,6.136212348937988,-0.5167220830917358,-1.2235692739486694,16.005064010620117,139.02456665039062, 163.74668884277344
631,107634029,0.21526043,0.8523825,-0.037339084,0.47509313,6.768781661987305,-0.2327854186296463,-1.5422074794769287,22.785245895385742,159.3665313720703, 188.95188903808594
632,107650696,0.19886874,0.83857435,-0.056244373,0.50406456,7.8775858879089355,0.8060222268104553,-1.4417692422866821,20.891157150268555,179.0365753173828, 210.0320281982422
633,107667363,0.18239051,0.82168454,-0.07726531,0.5344142,8.719655990600586,1.5572253465652466,-1.9508610963821411,10.352932929992676,194.7475128173828, 225.6204376220703
634,107684030,0.166126,0.802153,-0.10095696,0.56458884,10.105162620544434,2.2151434421539307,-2.021696090698242,-4.096467018127441,200.24708557128906, 241.12600708007812
635,107700697,0.15002888,0.7800726,-0.12698685,0.594014,11.889761924743652,2.5724551677703857,-2.2664794921875,-17.54949951171875,203.47532653808594, 254.3092041015625
636,107717364,0.1301541,0.7566874,-0.15116398,0.6226024,13.436156272888184,2.481513738632202,-2.5416932106018066,-23.148029327392578,201.97250366210938, 266.517822265625
637,107734031,0.11183703,0.7303806,-0.17985624,0.64937586,15.48591423034668,3.3318800926208496,-2.3504462242126465,-23.835256576538086,203.6285400390625, 278.4010925292969
638,107750698,0.09344609,0.7014205,-0.20915934,0.6749295,17.993797302246094,4.467501163482666,-2.8016748428344727,-29.76722526550293,208.8325653076172, 284.1999816894531
639,107767365,0.07557841,0.6709623,-0.23738721,0.6983876,19.563871383666992,6.014861106872559,-3.8952128887176514,-31.293195724487305,207.1724395751953, 277.4698181152344
640,107784032,0.060422987,0.640149,-0.26414615,0.71887815,20.54299545288086,7.946457386016846,-4.450202941894531,-41.800594329833984,200.4491729736328, 256.81109619140625
641,107800699,0.047430974,0.6104441,-0.28580606,0.73717266,19.148452758789062,7.451364994049072,-5.949023723602295,-29.640016555786133,191.4305419921875, 220.89010620117188
642,107817366,0.035833914,0.5845843,-0.29676637,0.75425947,15.344118118286133,11.894402503967285,-8.634162902832031,17.637065887451172,173.20053100585938, 161.1079559326172
643,107834033,0.027744247,0.56973064,-0.2942654,0.7668413,8.499335289001465,11.479640007019043,-13.676980972290039,66.88221740722656,108.6186294555664, 65.4482650756836
644,107850700,0.020354493,0.57013786,-0.27995306,0.7721109,1.5750210285186768,7.754125595092773,-17.265920639038086,114.58094024658203,3.380408763885498, -16.596302032470703
645,107867367,0.018955344,0.5791324,-0.27095842,0.7686536,5.026979446411133,18.507219314575195,-9.999246597290039,47.34750747680664,-65.40587615966797, -45.207401275634766
646,107884034,0.027860558,0.59166545,-0.27042693,0.7589633,8.2357759475708,13.42044734954834,-8.86955451965332,-49.5373420715332,-90.70118713378906, -73.13243103027344
647,107900701,0.034970593,0.60590255,-0.26875368,0.74795115,12.26941204071045,-0.8611214756965637,-1.2026771306991577,-38.369422912597656,-107.97901153564453, -71.64032745361328
648,107917368,0.035204235,0.61060196,-0.26826772,0.744284,16.859634399414062,-27.005483627319336,14.836228370666504,-4.526114463806152,-41.29786682128906, -11.914772987365723
649,107934035,0.029683381,0.6156213,-0.25157294,0.7462177,12.861749649047852,7.437661170959473,1.3216311931610107,112.9605941772461,-26.280376434326172, -50.04590606689453
650,107950702,0.031638395,0.6239925,-0.23989992,0.7430214,15.917808532714844,3.8558106422424316,0.7302985191345215,47.35240936279297,-53.2662467956543, -73.86256408691406
651,107967369,0.037330754,0.63421226,-0.22923304,0.73745096,16.51742935180664,6.878237724304199,1.964417815208435,22.667539596557617,-66.93107604980469, -92.1141586303711
652,107984036,0.04257972,0.6453158,-0.22586103,0.7285201,8.381054878234863,6.008214950561523,-2.5958266258239746,-17.452207565307617,-88.64299774169922, -60.18519592285156
653,108000703,0.048511773,0.6577616,-0.22693913,0.7165859,14.015082359313965,-0.4934782385826111,-7.138463020324707,-47.01272964477539,-108.90769958496094, -46.746009826660156
654,108017370,0.053113572,0.6689799,-0.22306329,0.7070277,13.40815258026123,-1.2991825342178345,-0.43249621987342834,-13.240495681762695,-92.45093536376953, -59.87385559082031
655,108034037,0.056566555,0.6782516,-0.21805957,0.6994467,8.48562240600586,-1.5347787141799927,-1.3912818431854248,-0.13722427189350128,-75.24396514892578, -55.77415466308594
656,108050704,0.061099082,0.6861852,-0.21415138,0.69250023,9.277056694030762,-0.34596794843673706,-0.9621894359588623,-9.989819526672363,-64.64971923828125, -53.63520431518555
657,108067371,0.065178744,0.69321024,-0.21075183,0.6861453,10.136899948120117,-1.5725889205932617,-1.079822301864624,-9.777756690979004,-58.41629409790039, -47.50416946411133
658,108084038,0.06733894,0.69994885,-0.20635654,0.68040746,10.422908782958984,-0.8348071575164795,-0.3407222628593445,4.843850135803223,-56.45958709716797, -42.530025482177734
659,108100705,0.068821505,0.70649713,-0.20190628,0.6748034,10.140776634216309,-0.21750546991825104,-0.07396460324525833,8.470036506652832,-55.87276840209961, -39.31184768676758
660,108117372,0.0699338,0.71249783,-0.19817448,0.6694651,9.951639175415039,-0.22578483819961548,-0.5925660729408264,7.051422595977783,-52.910404205322266, -33.229740142822266
661,108134039,0.0708391,0.7178664,-0.19465408,0.66465,10.14197063446045,-0.7980145215988159,-0.8720043897628784,7.508582592010498,-47.83091735839844, -30.14194679260254
662,108150706,0.071520224,0.72267735,-0.19124375,0.6603397,9.960179328918457,-0.33767977356910706,-0.9882577657699585,8.521393775939941,-43.152286529541016, -27.60295295715332
663,108167373,0.07270424,0.72694045,-0.18845308,0.656321,9.928805351257324,-0.18275533616542816,-0.8982093334197998,3.327082872390747,-38.86815643310547, -25.958282470703125
664,108184040,0.073794976,0.7307013,-0.1858035,0.6527691,10.0615873336792,-0.6760374903678894,-1.135645866394043,3.5136168003082275,-34.471038818359375, -23.96070098876953
665,108200707,0.074605435,0.73388684,-0.18287444,0.6499241,9.856485366821289,-1.5033800601959229,-1.4709964990615845,6.7891082763671875,-28.56307601928711, -23.032089233398438
666,108217374,0.0739336,0.73662424,-0.17866282,0.64807314,9.542155265808105,-1.5939595699310303,-1.55086088180542,21.016538619995117,-22.753517150878906, -21.83710289001465
667,108234041,0.07260385,0.73900354,-0.1735735,0.6468963,9.554474830627441,-1.1725722551345825,-1.141688346862793,28.90071678161621,-18.106082916259766, -22.600509643554688
668,108250708,0.071075276,0.74126047,-0.16768032,0.6460378,9.763320922851562,-0.45582959055900574,-0.5488446354866028,33.80192947387695,-15.784642219543457, -25.52213478088379
669,108267375,0.07012242,0.7437436,-0.16138732,0.64488995,9.72576904296875,-0.3830723762512207,-0.3595430850982666,32.41692352294922,-17.41657066345215, -30.536718368530273
670,108284042,0.06974499,0.7465753,-0.15504755,0.643212,9.652647018432617,0.1802741289138794,-0.16454912722110748,29.258249282836914,-21.029296875, -33.98680877685547
671,108300709,0.069832936,0.74976677,-0.14888234,0.6409428,9.801276206970215,0.4470048248767853,-0.19668176770210266,25.637487411499023,-25.261573791503906, -35.825897216796875
672,108317376,0.07061445,0.7532893,-0.14311068,0.63803494,9.931036949157715,0.2924639582633972,-0.524031937122345,19.834129333496094,-29.5113582611084, -37.507652282714844
673,108334043,0.07196102,0.7570978,-0.13784507,0.6345264,9.870574951171875,0.3669034540653229,-0.7708310484886169,14.234825134277344,-33.58549118041992, -37.94948959350586
674,108350710,0.07476883,0.7610037,-0.13354121,0.6304365,9.53170108795166,0.36721816658973694,-0.8569682836532593,1.9330549240112305,-36.14265441894531, -39.708656311035156
675,108367377,0.07752449,0.7651348,-0.12872013,0.62609124,9.520800590515137,-0.7603688836097717,-1.531136155128479,4.329549789428711,-38.2532844543457, -42.53928756713867
676,108384044,0.07985767,0.769516,-0.12307227,0.6215479,9.673381805419922,-0.3561844527721405,-1.4093412160873413,10.067354202270508,-40.312278747558594, -45.42561340332031
677,108400711,0.08218369,0.7741406,-0.1172268,0.616612,9.807394981384277,0.2925567924976349,-1.1951987743377686,10.750877380371094,-43.33740234375, -46.88591384887695
678,108417378,0.084745795,0.77894306,-0.111243635,0.611303,10.055425643920898,0.5407512784004211,-1.093048334121704,9.879610061645508,-45.82393264770508, -48.99098205566406
679,108434045,0.087295085,0.78389674,-0.104570165,0.60576487,10.053991317749023,0.7371546626091003,-1.222603678703308,12.764802932739258,-47.31060791015625, -52.897918701171875
680,108450712,0.08936296,0.7892316,-0.09720556,0.59973264,9.940404891967773,1.0302850008010864,-1.6035163402557373,18.116174697875977,-51.509159088134766, -55.202293395996094
681,108467379,0.09150577,0.7948967,-0.089685984,0.5930623,10.085206985473633,1.273836374282837,-1.6867297887802124,18.12843894958496,-56.199546813964844, -56.97584915161133
682,108484046,0.094508156,0.80080324,-0.082335606,0.58566517,10.729232788085938,0.9322705864906311,-1.877923846244812,12.451476097106934,-60.74519729614258, -60.17267608642578
683,108500713,0.09963176,0.8067197,-0.07564374,0.5775425,11.456266403198242,1.131460189819336,-1.285232424736023,-2.2786245346069336,-64.0228271484375, -65.5827407836914
684,108517380,0.107368864,0.8125592,-0.06940835,0.5686847,12.235416412353516,2.0184738636016846,-0.6695224642753601,-19.017467498779297,-66.78004455566406, -73.91053009033203
685,108534047,0.11677647,0.81867015,-0.06363917,0.55865276,12.985641479492188,2.4339332580566406,-0.33341485261917114,-30.520048141479492,-73.99376678466797, -78.8458480834961
686,108550714,0.12753016,0.8250354,-0.056893364,0.5475547,14.556194305419922,0.7665153741836548,-0.2760685086250305,-34.593528747558594,-79.65510559082031, -90.49333190917969
687,108567381,0.13957779,0.8318219,-0.049820993,0.53489137,14.998953819274902,0.4324726462364197,0.46941521763801575,-40.93466567993164,-89.39574432373047, -98.80055236816406
688,108584048,0.15340512,0.83871067,-0.042001285,0.5208334,16.89302635192871,-0.6484593152999878,2.2615182399749756,-48.73577117919922,-96.50299835205078, -111.05050659179688
689,108600715,0.16892996,0.84538376,-0.033548553,0.5056322,18.18003273010254,-0.6789407134056091,3.794374704360962,-56.80340576171875,-101.28116607666016, -122.01026916503906
690,108617382,0.18777235,0.8516282,-0.026476523,0.48864153,19.434228897094727,0.1743830442428589,5.550810813903809,-81.77848052978516,-111.17530822753906, -127.60356140136719
691,108634049,0.20966312,0.85665196,-0.020252135,0.47093415,20.038787841796875,-1.1905591487884521,5.273768901824951,-104.14887237548828,-111.9795150756836, -133.7022705078125
692,108650716,0.23412047,0.8599393,-0.014737407,0.45329365,17.230443954467773,-3.5699214935302734,1.1763416528701782,-124.02890014648438,-106.79029846191406, -137.64910888671875
693,108667383,0.25477356,0.86553246,-0.010368364,0.4310879,14.660386085510254,-5.182337760925293,-4.866796493530273,-101.86000061035156,-143.29173278808594, -126.7735824584961
694,108684050,0.260521,0.8724188,0.0020363424,0.41353428,12.600902557373047,-1.6942946910858154,-5.3574538230896,13.213412284851074,-106.42526245117188, -122.50426483154297
