PacketCounter,SampleTimeFine,Quat_W,Quat_X,Quat_Y,Quat_Z,Acc_X,Acc_Y,Acc_Z,Gyr_X,Gyr_Y,Gyr_Z 
1,91325537,0.025926188,0.70201826,-0.026629752,0.7111886,-1.8370296955108643,1.2528587579727173,0.841745138168335,2.4592387676239014,0.41210031509399414, 1.0463895797729492
2,91342204,0.026198281,0.7021479,-0.026746862,0.71104616,9.813846588134766,0.008348450064659119,0.11973799020051956,-1.4399330615997314,0.2905568480491638, -0.2164400815963745
3,91358871,0.026451437,0.7021967,-0.026695704,0.71099055,9.817702293395996,-0.012934939935803413,0.13372531533241272,-1.5849394798278809,0.3661399185657501, -0.2554995119571686
4,91375538,0.026600497,0.70215636,-0.026722535,0.71102387,9.84251594543457,-0.021687738597393036,0.12045369297266006,-1.7561348676681519,0.3303590416908264, -0.19495107233524323
5,91392205,0.026750723,0.70213056,-0.026868047,0.71103823,9.831820487976074,-0.012309757061302662,0.13910137116909027,-1.3942017555236816,0.22630740702152252, -0.18497492372989655
6,91408872,0.026906455,0.70207256,-0.027031517,0.7110835,9.865370750427246,0.012583979405462742,0.14904198050498962,-1.651224970817566,0.2460547685623169, -0.13614429533481598
7,91425539,0.027168654,0.701963,-0.027232027,0.71117395,9.843299865722656,-0.007089823950082064,0.1729063242673874,-1.8816243410110474,0.5354911088943481, -0.12939536571502686
8,91442206,0.027392862,0.7018167,-0.027408676,0.711303,9.851224899291992,0.0013290883507579565,0.14445169270038605,-1.8936620950698853,0.6282089948654175, -0.11643532663583755
9,91458873,0.02761777,0.70167184,-0.02759689,0.7114298,9.829601287841797,-0.019585896283388138,0.1105910912156105,-2.2417261600494385,0.7645455598831177, -0.0433494970202446
10,91475540,0.02770836,0.701582,-0.027683685,0.7115116,9.815797805786133,-0.006853611674159765,0.13304123282432556,-1.6150985956192017,0.6066560745239258, -0.025753572583198547
11,91492207,0.02790552,0.7015109,-0.02788383,0.71156615,9.803844451904297,0.0036894138902425766,0.1712670773267746,-1.8329343795776367,0.47040921449661255, 0.0007619777461513877
12,91508874,0.027992886,0.7014375,-0.027974436,0.7116316,9.838067054748535,-0.013424837030470371,0.18648208677768707,-2.040883779525757,0.43615224957466125, 0.03854070603847504
13,91525541,0.028087277,0.70137227,-0.028063886,0.71168864,9.805802345275879,-0.035052940249443054,0.18683581054210663,-1.8728902339935303,0.25724753737449646, -0.036305997520685196
14,91542208,0.028227884,0.70130974,-0.028196378,0.7117393,9.849418640136719,-0.014036232605576515,0.18187691271305084,-2.1176836490631104,0.16227567195892334, -0.14099793136119843
15,91558875,0.028368104,0.7012575,-0.028319208,0.7117802,9.853759765625,-0.023714344948530197,0.15159164369106293,-2.0643579959869385,0.058185648173093796, -0.1888040006160736
16,91575542,0.0285236,0.70121264,-0.02844548,0.7118134,9.846158027648926,-0.033092763274908066,0.1356392651796341,-1.6623796224594116,0.06141285225749016, -0.2627606987953186
17,91592209,0.02867245,0.7011688,-0.028585559,0.71184504,9.834820747375488,0.014649620279669762,0.16379380226135254,-1.2862440347671509,0.13444745540618896, -0.1894187182188034
18,91608876,0.028739009,0.7011221,-0.028643088,0.71188587,9.830337524414062,-0.003189671551808715,0.16092665493488312,-1.5296032428741455,0.21005617082118988, -0.1338263601064682
19,91625543,0.028816136,0.70107764,-0.028693167,0.71192455,9.840503692626953,-0.010649755597114563,0.12608487904071808,-1.3389679193496704,0.2133345752954483, -0.20058585703372955
20,91642210,0.028813396,0.7010219,-0.02868034,0.71198,9.855303764343262,-0.01288263313472271,0.1696006804704666,-1.059456467628479,0.41502174735069275, -0.11007057130336761
21,91658877,0.028852835,0.70094967,-0.028710898,0.71204835,9.829726219177246,0.0030207810923457146,0.18024390935897827,-1.3660404682159424,0.5561221241950989, -0.0999663695693016
22,91675544,0.028908059,0.70087385,-0.028775262,0.7121182,9.836654663085938,0.012729817070066929,0.15436728298664093,-1.8081668615341187,0.5670331716537476, 0.0021322572138160467
23,91692211,0.02873358,0.7008098,-0.028604073,0.7121952,9.79714584350586,-0.019217809662222862,0.1701967865228653,-1.654529094696045,0.568838894367218, -0.01814659871160984
24,91708878,0.02883028,0.7007615,-0.028724696,0.71223384,9.791851043701172,0.008001730777323246,0.2295263409614563,-1.8129819631576538,0.3048103153705597, 0.07975153625011444
25,91725545,0.029103475,0.70071137,-0.029008439,0.7122605,9.819225311279297,-0.024955952540040016,0.21230892837047577,-2.409937620162964,0.21175941824913025, 0.03204789012670517
26,91742212,0.02926685,0.70065546,-0.0291875,0.7123015,9.805927276611328,-0.024919521063566208,0.1397811323404312,-2.2010915279388428,0.28756019473075867, 0.042152103036642075
27,91758879,0.029346388,0.7006087,-0.029274331,0.7123407,9.842570304870605,0.0065460228361189365,0.17230404913425446,-2.43939208984375,0.2753429412841797, -0.02241111360490322
28,91775546,0.029609006,0.70056385,-0.029557904,0.7123622,9.834222793579102,-0.025715231895446777,0.15379875898361206,-2.3685216903686523,0.1869150847196579, 0.06990346312522888
29,91792213,0.029706525,0.700529,-0.029700164,0.71238655,9.838296890258789,-0.002984702354297042,0.17101843655109406,-2.132411003112793,0.16990825533866882, 0.1660151183605194
30,91808880,0.029817117,0.70047915,-0.029863544,0.7124242,9.82581615447998,-0.002272010315209627,0.14870986342430115,-1.9884034395217896,0.3138900101184845, 0.22091592848300934
31,91825547,0.029843275,0.7004418,-0.029956345,0.7124559,9.827120780944824,-0.015734246000647545,0.1503239870071411,-1.8405157327651978,0.24204638600349426, 0.28662532567977905
32,91842214,0.029872725,0.70041776,-0.03009173,0.7124725,9.823396682739258,-0.032004840672016144,0.1668606400489807,-1.649778127670288,0.11179303377866745, 0.4752884805202484
33,91858881,0.02985032,0.7004095,-0.03016923,0.71247834,9.848770141601562,-0.023377535864710808,0.18222038447856903,-1.508959412574768,-0.008349740877747536, 0.43012043833732605
34,91875548,0.029956678,0.70038444,-0.030377576,0.71248966,9.858854293823242,-0.05450143665075302,0.16688106954097748,-1.6465253829956055,0.09757798910140991, 0.4510076344013214
35,91892215,0.029969178,0.70036405,-0.030486602,0.71250457,9.845044136047363,-0.04704911261796951,0.176217183470726,-1.2379897832870483,0.0994989275932312, 0.40863141417503357
36,91908882,0.030023249,0.70032555,-0.030643633,0.7125334,9.818798065185547,-0.009101081639528275,0.2095419019460678,-1.6130752563476562,0.2562614679336548, 0.43506374955177307
37,91925549,0.030267615,0.70024604,-0.030957477,0.71258754,9.823290824890137,-0.006894327234476805,0.19743260741233826,-2.4376375675201416,0.5737820267677307, 0.29418107867240906
38,91942216,0.030400405,0.7001687,-0.031201862,0.7126471,9.80911636352539,-0.026270020753145218,0.1639452874660492,-2.496636152267456,0.5772910118103027, 0.4987240433692932
39,91958883,0.030476166,0.7000842,-0.031375058,0.7127194,9.825995445251465,-0.009538793936371803,0.21735668182373047,-2.419477939605713,0.68565833568573, 0.43064552545547485
40,91975550,0.030510562,0.7000852,-0.031516526,0.7127107,9.82545280456543,-0.037209685891866684,0.22722548246383667,-2.194035291671753,-0.13462035357952118, 0.44950932264328003
41,91992217,0.03060979,0.70010185,-0.031691477,0.71268237,9.825904846191406,-0.04570965841412544,0.18386608362197876,-1.9901707172393799,-0.31054118275642395, 0.2954360842704773
42,92008884,0.03074029,0.7001325,-0.031898726,0.7126373,9.830853462219238,-0.030024781823158264,0.1660262793302536,-2.086026430130005,-0.457686185836792, 0.29099228978157043
43,92025551,0.030844593,0.7001395,-0.032091275,0.7126172,9.826189994812012,-0.03294636309146881,0.14067886769771576,-2.3268625736236572,-0.21449357271194458, 0.3525652587413788
44,92042218,0.031042567,0.7001425,-0.03237411,0.712593,9.849493980407715,-0.0413745753467083,0.18946963548660278,-1.9977391958236694,-0.20373620092868805, 0.3502856492996216
45,92058885,0.031232605,0.7001441,-0.032637313,0.7125712,9.835725784301758,-0.04879220947623253,0.2072811722755432,-2.060720920562744,-0.18304114043712616, 0.29101788997650146
46,92075552,0.03139755,0.700149,-0.03287668,0.71254814,9.834704399108887,-0.08782598376274109,0.15972056984901428,-1.877103328704834,-0.21024182438850403, 0.2946932911872864
47,92092219,0.03143762,0.7001709,-0.03297864,0.7125202,9.822061538696289,-0.07762787491083145,0.16617093980312347,-1.1785811185836792,-0.3073267936706543, 0.21867482364177704
48,92108886,0.0313823,0.7002139,-0.032988317,0.7124798,9.818253517150879,-0.020461775362491608,0.21922819316387177,-1.207574725151062,-0.46535712480545044, 0.2104659378528595
49,92125553,0.031557407,0.70026386,-0.033211008,0.71241266,9.818746566772461,-0.04043168947100639,0.21731428802013397,-1.316736102104187,-0.6357200145721436, 0.14105553925037384
50,92142220,0.031375844,0.70034206,-0.03306614,0.71235055,9.83164119720459,-0.08096420764923096,0.2133682668209076,-1.298948049545288,-0.747160792350769, 0.05481758341193199
51,92158887,0.031443197,0.70036274,-0.03316157,0.71232283,9.825336456298828,-0.050712700933218,0.17833904922008514,-2.0308821201324463,-0.3063150644302368, 0.03446828946471214
52,92175554,0.03140473,0.70039785,-0.03314353,0.7122907,9.822092056274414,-0.03637523949146271,0.1318034529685974,-2.303030014038086,-0.3924121558666229, -0.020310871303081512
53,92192221,0.03148981,0.70041937,-0.033271614,0.7122598,9.850500106811523,-0.06832706928253174,0.14610028266906738,-1.7905325889587402,-0.3187244236469269, 0.11486656218767166
54,92208888,0.031446762,0.7004688,-0.03325312,0.71221405,9.855464935302734,-0.07611281424760818,0.18146851658821106,-1.3476248979568481,-0.5158525705337524, 0.008778752759099007
55,92225555,0.03136309,0.7005453,-0.03316249,0.71214676,9.838454246520996,-0.03226422518491745,0.1998724639415741,-1.2728230953216553,-0.7444074153900146, -0.1624869555234909
56,92242222,0.031474285,0.7006174,-0.033236172,0.71206754,9.818888664245605,-0.046057429164648056,0.17497214674949646,-1.7118887901306152,-0.779612123966217, -0.3017944097518921
57,92258889,0.0315609,0.7006642,-0.033294145,0.7120148,9.821500778198242,-0.041977204382419586,0.11995210498571396,-1.8576247692108154,-0.5297346115112305, -0.2500823736190796
58,92275556,0.031642757,0.70068663,-0.033360627,0.711986,9.841584205627441,-0.08531132340431213,0.13809384405612946,-1.5370564460754395,-0.29035836458206177, -0.16816017031669617
59,92292223,0.031547334,0.70071465,-0.033273954,0.7119669,9.840224266052246,-0.06479662656784058,0.16405925154685974,-1.1540697813034058,-0.26912543177604675, -0.062174826860427856
60,92308890,0.03157826,0.7007133,-0.03328614,0.71196616,9.86219310760498,-0.07034514099359512,0.2153640240430832,-1.4449788331985474,-0.0322335809469223, -0.1830795705318451
61,92325557,0.031688087,0.70066655,-0.033365406,0.71200347,9.824883460998535,-0.051470428705215454,0.15174895524978638,-2.351578950881958,0.37048134207725525, -0.23324204981327057
62,92342224,0.031883243,0.70062375,-0.033517085,0.71202976,9.814175605773926,-0.06401471793651581,0.12559008598327637,-2.3391950130462646,0.30223628878593445, -0.2931373715400696
63,92358891,0.032075748,0.70056766,-0.033677183,0.7120688,9.828264236450195,-0.04234211519360542,0.17444932460784912,-2.1228318214416504,0.43219512701034546, -0.23157724738121033
64,92375558,0.032250494,0.7005011,-0.033820294,0.71211964,9.847086906433105,-0.039389267563819885,0.1892555058002472,-2.495535135269165,0.5405368208885193, -0.2290927916765213
65,92392225,0.032457873,0.70041513,-0.03399534,0.7121865,9.842338562011719,-0.06456265598535538,0.21783506870269775,-3.2928714752197266,0.7126029133796692, -0.23356221616268158
66,92408892,0.03295689,0.70012176,-0.034388173,0.7124333,9.94454574584961,-0.025689782574772835,0.7824940085411072,-5.309091091156006,2.6057276725769043, -0.5191183090209961
67,92425559,0.034454018,0.6982446,-0.0355243,0.7141467,9.959864616394043,-0.180672287940979,0.6469569206237793,-13.283960342407227,17.414186477661133, -1.113283395767212
68,92442226,0.0348034,0.69687575,-0.035367582,0.71547353,9.671772956848145,-0.28663018345832825,-0.3142396807670593,-4.0970988273620605,13.043792724609375, -1.9839352369308472
69,92458893,0.035034325,0.69606835,-0.035046652,0.7162634,9.746522903442383,-0.1927868276834488,-0.00038200803101062775,-0.2976836562156677,7.786639213562012, -2.425215721130371
70,92475560,0.034921344,0.6956644,-0.03442474,0.71669155,9.763810157775879,0.017642715945839882,0.2098885476589203,1.727288842201233,4.094183921813965, -2.406710624694824
71,92492227,0.034906108,0.6954968,-0.034062535,0.71687204,9.844139099121094,0.1733422577381134,0.23626364767551422,-0.9072785973548889,1.7161340713500977, -1.7819522619247437
72,92508894,0.034826685,0.69545275,-0.03384248,0.7169292,9.82517147064209,0.03720087185502052,0.2108328491449356,-1.3985813856124878,0.47569823265075684, -0.8235378861427307
73,92525561,0.034500282,0.6955316,-0.03355713,0.71688175,9.84923267364502,0.04874728247523308,0.2364838570356369,-0.4320606291294098,-0.661524772644043, 0.01866525411605835
74,92542228,0.034310136,0.6957544,-0.033771943,0.7166645,9.821731567382812,0.05661023035645485,0.255676805973053,-2.131962776184082,-2.2618961334228516, 1.7182984352111816
75,92558895,0.034542248,0.69611824,-0.03460552,0.7162604,9.8407621383667,0.10886963456869125,0.3320738673210144,-5.366168975830078,-3.894296407699585, 2.5845203399658203
76,92575562,0.03473571,0.6966664,-0.035550058,0.7156714,9.793259620666504,-0.014273837208747864,0.20040690898895264,-8.49715805053711,-5.721598148345947, 3.156017541885376
77,92592229,0.034898438,0.6972612,-0.03645847,0.7150383,9.832035064697266,-0.06964915245771408,0.1861036717891693,-7.192138671875,-6.1531081199646, 3.1442227363586426
78,92608896,0.0350394,0.6978559,-0.037235443,0.71441096,9.84119701385498,-0.0385960228741169,0.22048689424991608,-5.584300518035889,-6.092712879180908, 2.644275188446045
79,92625563,0.03510483,0.6984204,-0.037873138,0.71382236,9.821416854858398,-0.011578589677810669,0.23986376821994781,-4.490663051605225,-5.742278575897217, 2.3676700592041016
80,92642230,0.035171326,0.69892514,-0.03841492,0.71329606,9.851572036743164,-0.013527218252420425,0.22358019649982452,-3.92110013961792,-5.1288161277771, 1.941141963005066
81,92658897,0.03511788,0.6993024,-0.03872534,0.7129119,9.834668159484863,-0.06695861369371414,0.20208202302455902,-2.9007153511047363,-3.7934205532073975, 1.477577567100525
82,92675564,0.035037763,0.69958246,-0.038882755,0.7126325,9.801616668701172,-0.07099808007478714,0.21380138397216797,-1.9149845838546753,-2.7852015495300293, 0.9267250895500183
83,92692231,0.035007805,0.69983286,-0.03900715,0.71238136,9.80669116973877,-0.08975645154714584,0.2315877079963684,-1.7707725763320923,-2.4858791828155518, 0.5421120524406433
84,92708898,0.03488583,0.7000471,-0.039012555,0.71217644,9.821553230285645,-0.11461644619703293,0.2544609308242798,-1.415690541267395,-2.0824787616729736, 0.4287757873535156
85,92725565,0.034762986,0.70020324,-0.038950123,0.71203226,9.860833168029785,-0.11098791658878326,0.16717147827148438,0.0330980122089386,-1.5051687955856323, 0.15273495018482208
86,92742232,0.03458339,0.70029,-0.038822193,0.71196264,9.851727485656738,-0.1401442140340805,0.06166807934641838,-0.17314185202121735,-0.8001663684844971, 0.13534390926361084
87,92758899,0.03427958,0.70032465,-0.038539056,0.7119587,9.846553802490234,-0.18809062242507935,0.0842590183019638,0.7148568034172058,-0.21240609884262085, 0.013043266721069813
88,92775566,0.034004245,0.70023865,-0.038224727,0.71207327,9.87668228149414,-0.15385951101779938,0.21251195669174194,1.9004175662994385,0.963146448135376, -0.20765498280525208
89,92792233,0.033592943,0.70002115,-0.037746724,0.71233225,9.842865943908691,-0.09713760018348694,0.18445247411727905,1.9627714157104492,2.3089654445648193, -0.29175427556037903
90,92808900,0.033459112,0.69983304,-0.037600145,0.7125311,9.81314468383789,-0.0688103660941124,0.26097580790519714,-0.06707965582609177,1.8642139434814453, -0.06328897923231125
91,92825567,0.033498377,0.6997007,-0.037667233,0.71265566,9.808433532714844,-0.04252735525369644,0.18836623430252075,-1.5532563924789429,1.2186073064804077, 0.09280120581388474
92,92842234,0.03351736,0.69964296,-0.037809912,0.71270394,9.813018798828125,-0.11240100860595703,0.16172826290130615,-1.94516921043396,0.4637371301651001, 0.5203155875205994
93,92858901,0.03358527,0.69969654,-0.038074072,0.71263415,9.821725845336914,-0.10427230596542358,0.16820986568927765,-3.2080421447753906,-0.6608717441558838, 0.7988921999931335
94,92875568,0.033650514,0.6997688,-0.038366463,0.7125444,9.80795955657959,-0.09837260097265244,0.18990054726600647,-3.7199251651763916,-0.8512254357337952, 0.9297347664833069
95,92892235,0.033849712,0.69986,-0.038727902,0.7124258,9.795076370239258,-0.08392255008220673,0.2371779829263687,-4.219500541687012,-1.067217230796814, 0.6022763252258301
96,92908902,0.03408617,0.69992554,-0.039095994,0.71233004,9.812652587890625,-0.055763766169548035,0.22133716940879822,-5.471987247467041,-0.8197473287582397, 0.44656386971473694
97,92925569,0.03426621,0.6999687,-0.03939776,0.71226245,9.806511878967285,-0.11890441924333572,0.14812549948692322,-4.973973274230957,-0.5772846341133118, 0.41817212104797363
98,92942236,0.034272958,0.70003873,-0.03951691,0.7121865,9.851140022277832,-0.13896514475345612,0.11408346146345139,-3.334184169769287,-0.7496324777603149, 0.37545013427734375
99,92958903,0.034392536,0.70010835,-0.039714105,0.71210146,9.841198921203613,-0.1492050290107727,0.17577596008777618,-1.8639512062072754,-0.7944545745849609, 0.23337647318840027
100,92975570,0.03436117,0.70017767,-0.039698746,0.71203554,9.860058784484863,-0.12939834594726562,0.19808566570281982,-0.9041154384613037,-0.6859720945358276, -0.06363475322723389
101,92992237,0.034331333,0.70023614,-0.03965946,0.71198165,9.851638793945312,-0.1188792958855629,0.1798580139875412,-0.6805165410041809,-0.5724565982818604, -0.18082565069198608
102,93008904,0.034251697,0.70030004,-0.039584283,0.7119268,9.815543174743652,-0.12738579511642456,0.1780260056257248,-0.8389824032783508,-0.6054969429969788, -0.12242870032787323
103,93025571,0.03414266,0.7003836,-0.039439004,0.7118579,9.826985359191895,-0.12282484024763107,0.15738888084888458,-0.03036385402083397,-0.7644622325897217, -0.32165706157684326
104,93042238,0.034108587,0.70050293,-0.03933718,0.71174777,9.81757926940918,-0.11355958878993988,0.171966552734375,-0.33032700419425964,-1.1304548978805542, -0.49609237909317017
105,93058905,0.034044888,0.7006143,-0.039242685,0.7116464,9.819211959838867,-0.10997182875871658,0.18935489654541016,-1.1834092140197754,-1.0518752336502075, -0.3275351822376251
106,93075572,0.033954844,0.7006861,-0.039101914,0.7115878,9.831761360168457,-0.08618608117103577,0.11122352629899979,-1.8962105512619019,-0.6415852904319763, -0.4178839325904846
107,93092239,0.033961218,0.7007238,-0.039049584,0.7115532,9.810687065124512,-0.13059793412685394,0.12031685560941696,-1.670998215675354,-0.36002492904663086, -0.43080565333366394
108,93108906,0.03389661,0.70075613,-0.038911007,0.7115321,9.853452682495117,-0.1419164091348648,0.12833505868911743,-1.3052488565444946,-0.2617489695549011, -0.5031102895736694
109,93125573,0.03381763,0.7008083,-0.038721412,0.7114948,9.835725784301758,-0.1165279820561409,0.1781383901834488,-0.8831642866134644,-0.42852604389190674, -0.6895706653594971
110,93142240,0.033858277,0.7008464,-0.03867504,0.71145785,9.857067108154297,-0.09112397581338882,0.18842561542987823,-1.1798232793807983,-0.3705901801586151, -0.5682048797607422
111,93158907,0.03384404,0.70088804,-0.038569413,0.7114233,9.849223136901855,-0.13066425919532776,0.09378338605165482,-0.6335813999176025,-0.38039982318878174, -0.585749626159668
112,93175574,0.033804223,0.7009283,-0.038432863,0.7113928,9.841133117675781,-0.08907897770404816,0.11760029941797256,-0.5566279888153076,-0.34684714674949646, -0.6140900254249573
113,93192241,0.033769507,0.7009579,-0.03829954,0.7113725,9.829785346984863,-0.1075437068939209,0.09705469012260437,-0.4770621359348297,-0.24492143094539642, -0.6167153716087341
114,93208908,0.03367014,0.70095825,-0.03810505,0.71138734,9.851452827453613,-0.08543910086154938,0.14806310832500458,-0.7062061429023743,0.07464180886745453, -0.5928571224212646
115,93225575,0.033635627,0.700933,-0.03798665,0.71142024,9.818260192871094,-0.09397880733013153,0.15370431542396545,-1.0929323434829712,0.28306517004966736, -0.5283644199371338
116,93242242,0.033644665,0.7009854,-0.03796699,0.7113692,9.793907165527344,-0.10623696446418762,0.13578979671001434,-0.9597077369689941,-0.5190413594245911, -0.29411059617996216
117,93258909,0.033606436,0.7010575,-0.037916332,0.71130264,9.826990127563477,-0.07444647699594498,0.15065282583236694,-1.2574810981750488,-0.6903135180473328, -0.2321406900882721
118,93275576,0.033632718,0.70113474,-0.037918612,0.71122515,9.80070972442627,-0.08168430626392365,0.1637362539768219,-1.0463299751281738,-0.7690213322639465, -0.2848644554615021
119,93292243,0.03355934,0.70124114,-0.037824586,0.7111288,9.847142219543457,-0.07373780012130737,0.14756807684898376,-1.0857094526290894,-1.0014437437057495, -0.28715676069259644
120,93308910,0.03355836,0.70136696,-0.03780235,0.71100587,9.852910041809082,-0.08217912912368774,0.1821250021457672,-1.3908591270446777,-1.2248375415802002, -0.2993740141391754
121,93325577,0.03354359,0.70150715,-0.037786033,0.7108692,9.831231117248535,-0.09259159862995148,0.14068718254566193,-1.402231216430664,-1.3705739974975586, -0.21130476891994476
122,93342244,0.03344405,0.70166206,-0.037695076,0.7107257,9.821307182312012,-0.0765094980597496,0.13612540066242218,-0.8816403150558472,-1.479056477546692, -0.1663544774055481
123,93358911,0.03336726,0.70177853,-0.037613716,0.7106186,9.817190170288086,-0.06688636541366577,0.12011449038982391,-1.2222635746002197,-1.110451340675354, -0.21422460675239563
124,93375578,0.033351786,0.7018714,-0.03760554,0.71052814,9.830514907836914,-0.09794477373361588,0.12291452288627625,-1.4479883909225464,-0.9186634421348572, -0.1442379206418991
125,93392245,0.033159308,0.7019727,-0.037409797,0.71044743,9.816536903381348,-0.1130683645606041,0.14664658904075623,-1.2477611303329468,-0.9052041172981262, -0.20408199727535248
126,93408912,0.033194628,0.70205235,-0.03742434,0.7103662,9.859973907470703,-0.08891633152961731,0.14988693594932556,-1.5211254358291626,-0.8067616820335388, -0.278077095746994
127,93425579,0.033272438,0.7021541,-0.037515566,0.7102572,9.84692668914795,-0.11255620419979095,0.13135166466236115,-2.1632871627807617,-1.0559347867965698, -0.12796105444431305
128,93442246,0.033337567,0.70224595,-0.037584674,0.71015954,9.826020240783691,-0.08532221615314484,0.07920419424772263,-2.009098529815674,-0.9532023072242737, -0.17036285996437073
129,93458913,0.03334729,0.70234615,-0.037584435,0.71006006,9.818310737609863,-0.11035432666540146,0.1048562079668045,-1.5995898246765137,-0.9971407055854797, -0.23956838250160217
130,93475580,0.033398192,0.70246226,-0.03760276,0.709942,9.854643821716309,-0.10073240101337433,0.14731766283512115,-1.4645851850509644,-1.1601399183273315, -0.35641348361968994
131,93492247,0.033336308,0.70261717,-0.037472293,0.70979834,9.851181983947754,-0.10804001986980438,0.11514951288700104,-0.9202899932861328,-1.4666345119476318, -0.549213171005249
132,93508914,0.033310656,0.70278597,-0.037358157,0.7096385,9.834155082702637,-0.03447549417614937,0.14773017168045044,-1.060878038406372,-1.609373927116394, -0.6553649306297302
133,93525581,0.033407234,0.7029553,-0.037378293,0.7094652,9.810877799987793,-0.09352030605077744,0.06035495176911354,-2.1894118785858154,-1.6802316904067993, -0.6014885902404785
134,93542248,0.03355154,0.7030858,-0.03746775,0.70932436,9.79338550567627,-0.0499289371073246,0.0546296089887619,-2.3312036991119385,-1.338506817817688, -0.48004597425460815
135,93558915,0.03369117,0.7032223,-0.03757067,0.70917684,9.813786506652832,-0.06776825338602066,0.0758884996175766,-2.6108179092407227,-1.399836540222168, -0.39458924531936646
136,93575582,0.033778775,0.7033685,-0.037624028,0.70902485,9.823488235473633,-0.07274721562862396,0.08556521683931351,-2.5823616981506348,-1.468183994293213, -0.3872896134853363
137,93592249,0.03383108,0.70348024,-0.037674163,0.7089088,9.842740058898926,-0.11726868897676468,0.029706187546253204,-2.006037950515747,-1.1364355087280273, -0.2098064422607422
138,93608916,0.033775736,0.70357627,-0.037597954,0.7088202,9.842789649963379,-0.11501819640398026,0.05595342814922333,-1.3918837308883667,-0.9195727109909058, -0.2929452359676361
139,93625583,0.033825826,0.7036366,-0.037618183,0.7087569,9.842084884643555,-0.039863284677267075,0.11625270545482635,-2.0891897678375244,-0.6192638874053955, -0.32656195759773254
140,93642250,0.03400514,0.7036584,-0.03778714,0.7087177,9.84090518951416,-0.05459051579236984,0.08676300942897797,-2.957575559616089,-0.3223230242729187, -0.21577420830726624
141,93658917,0.034120012,0.703647,-0.037877012,0.70871866,9.825721740722656,-0.0808984786272049,0.05429191142320633,-2.8344552516937256,0.03887367621064186, -0.2669227421283722
142,93675584,0.03423747,0.70363677,-0.038016375,0.70871574,9.851279258728027,-0.11722778528928757,0.06570501625537872,-1.9862905740737915,-0.002407593885436654, -0.036754220724105835
143,93692251,0.034152377,0.7036349,-0.037931927,0.7087261,9.842517852783203,-0.08061550557613373,0.046486999839544296,-1.2236850261688232,0.028782270848751068, -0.14263711869716644
144,93708918,0.03415492,0.703651,-0.03794842,0.70870924,9.839995384216309,-0.07371317595243454,0.1270836889743805,-1.403563141822815,-0.1936832219362259, -0.08913218975067139
145,93725585,0.034177545,0.7036793,-0.0379701,0.7086789,9.82857608795166,-0.11168239265680313,0.06845587491989136,-1.5513228178024292,-0.31776392459869385, -0.16776317358016968
146,93742252,0.034129977,0.70369786,-0.03791866,0.70866543,9.807147979736328,-0.10193297266960144,0.07540281862020493,-1.2777663469314575,-0.1876642405986786, -0.17895592749118805
147,93758919,0.034249526,0.70370173,-0.038065344,0.70864797,9.824872970581055,-0.005733037367463112,0.09534163028001785,-2.6267998218536377,-0.14112597703933716, -0.03017176128923893
148,93775586,0.034335714,0.7037237,-0.03817643,0.7086159,9.808211326599121,-0.11984117329120636,0.07812913507223129,-3.0746636390686035,-0.2974274754524231, -0.04962460696697235
149,93792253,0.03434022,0.70380765,-0.038178153,0.70853245,9.835919380187988,-0.13889490067958832,0.1060478538274765,-1.7440325021743774,-0.8460257649421692, -0.20869223773479462
150,93808920,0.034251742,0.70392805,-0.038076885,0.7084224,9.86604118347168,-0.11400008946657181,0.10974781215190887,-0.8101937174797058,-1.1545181274414062, -0.2742736041545868
151,93825587,0.034261942,0.70403874,-0.03807651,0.70831203,9.855748176574707,-0.01782880909740925,0.10908824950456619,-1.7821701765060425,-1.1106691360473633, -0.26758867502212524
152,93842254,0.03437019,0.7041423,-0.038223166,0.70819587,9.842253684997559,-0.0722738653421402,0.054310839623212814,-3.086522102355957,-1.1142677068710327, -0.027636101469397545
153,93858921,0.034495026,0.704197,-0.038406022,0.70812553,9.831219673156738,-0.08718161284923553,0.014645703136920929,-3.0642523765563965,-0.6604234576225281, 0.09053449332714081
154,93875588,0.034561217,0.7042415,-0.03855831,0.7080698,9.856058120727539,-0.10088957846164703,0.03525190055370331,-3.0131678581237793,-0.5431813597679138, 0.23070000112056732
155,93892255,0.03456475,0.7043017,-0.038676128,0.70800334,9.869673728942871,-0.09712938219308853,0.046499352902173996,-2.6002397537231445,-0.6780834197998047, 0.3616449534893036
156,93908922,0.034530185,0.7043426,-0.03876964,0.7079592,9.843951225280762,-0.09246032685041428,0.020719140768051147,-1.9383306503295898,-0.4820566177368164, 0.43909767270088196
157,93925589,0.03443332,0.70437586,-0.03880876,0.70792866,9.80496597290039,-0.0764535516500473,0.027720043435692787,-1.9045217037200928,-0.3764297664165497, 0.4821653664112091
158,93942256,0.034337066,0.7044165,-0.038850825,0.7078906,9.804304122924805,-0.10616685450077057,0.05430896580219269,-1.7131822109222412,-0.44975900650024414, 0.489439457654953
159,93958923,0.034398783,0.70448714,-0.039014723,0.70780826,9.796174049377441,-0.08479085564613342,0.10558763891458511,-2.8033485412597656,-0.7988729476928711, 0.2925802767276764
160,93975590,0.03469478,0.70461243,-0.039489154,0.70764273,9.792688369750977,-0.011165441945195198,0.13523650169372559,-5.5923662185668945,-1.480759859085083, 0.6211528182029724
161,93992257,0.035093322,0.70466405,-0.040091358,0.70753807,9.80148983001709,-0.08299479633569717,0.050684604793787,-6.59963846206665,-0.8366134166717529, 0.7803487181663513
162,94008924,0.03540623,0.70473814,-0.040623993,0.70741826,9.78909683227539,-0.11355619132518768,-0.011876598000526428,-5.499917507171631,-1.0291950702667236, 0.8510140180587769
163,94025591,0.035550363,0.7049036,-0.04103298,0.7072224,9.789241790771484,-0.11720432341098785,0.009818118065595627,-4.44773530960083,-1.8524130582809448, 1.0264352560043335
164,94042258,0.035701998,0.7050875,-0.041432813,0.7070082,9.838311195373535,-0.1155555248260498,0.029454249888658524,-4.074507236480713,-2.027860164642334, 0.9347675442695618
165,94058925,0.035802938,0.7052558,-0.04170972,0.7068188,9.873510360717773,-0.14682860672473907,0.026429718360304832,-3.0825271606445312,-1.8163247108459473, 0.5958859324455261
166,94075592,0.035823412,0.70540005,-0.04185811,0.7066651,9.88793659210205,-0.12979289889335632,0.08801412582397461,-1.7866908311843872,-1.521432876586914, 0.373593270778656
167,94092259,0.036001544,0.70547396,-0.042141687,0.7065652,9.878543853759766,-0.09643304347991943,0.1416238248348236,-3.3773159980773926,-0.9088793992996216, 0.29730579257011414
168,94108926,0.036356855,0.70540965,-0.042590376,0.70658433,9.878946304321289,-0.04759243130683899,0.3382558524608612,-5.136755466461182,0.34375447034835815, 0.30673131346702576
169,94125593,0.037059795,0.70481217,-0.043231342,0.70710504,9.85055923461914,-0.07923617213964462,0.22187034785747528,-7.958636283874512,5.402968406677246, -0.16399817168712616
170,94142260,0.037571937,0.7041199,-0.043611813,0.707744,9.696768760681152,-0.14599381387233734,-0.08911839872598648,-6.020522117614746,6.437106609344482, -0.43623557686805725
171,94158927,0.037872504,0.70365775,-0.04381773,0.7081747,9.770803451538086,-0.17064526677131653,-0.08041049540042877,-3.7975432872772217,4.296972274780273, -0.3804894685745239
172,94175594,0.03805998,0.7034326,-0.04397558,0.70837855,9.783956527709961,-0.11229683458805084,0.08014850318431854,-3.1625280380249023,2.0327200889587402, -0.19915156066417694
173,94192261,0.03809498,0.70325273,-0.043892127,0.7085606,9.78458309173584,-0.18423724174499512,0.241768017411232,-2.046121835708618,1.7314890623092651, -0.6425586342811584
174,94208928,0.038103096,0.703047,-0.043693032,0.70877653,9.732657432556152,-0.1880534589290619,0.16269071400165558,-0.33054473996162415,2.0237555503845215, -1.0599048137664795
175,94225595,0.037971757,0.7030393,-0.043452136,0.708806,9.683183670043945,-0.2994658052921295,-0.14405712485313416,0.4562709927558899,0.12206371128559113, -0.6954360008239746
176,94242262,0.037796225,0.7031974,-0.04314467,0.70867723,9.720568656921387,-0.16052691638469696,-0.11984366923570633,0.4021258056163788,-1.4279208183288574, -0.9077269434928894
177,94258929,0.03767199,0.7035378,-0.042929668,0.70835906,9.7891845703125,-0.03528976067900658,0.14054517447948456,0.054023586213588715,-3.232245683670044, -0.8142405152320862
178,94275596,0.037459213,0.7040865,-0.042684693,0.7078397,9.831344604492188,-0.06798349320888519,0.20499353110790253,0.7221181392669678,-5.2430100440979, -0.6380636096000671
179,94292263,0.036992423,0.70483434,-0.04215722,0.70715135,9.754861831665039,-0.2013029158115387,0.11957816034555435,2.8714468479156494,-7.03709077835083, -0.8692311644554138
180,94308930,0.03656509,0.7056866,-0.04163411,0.706354,9.850611686706543,0.06663846224546432,0.2676936984062195,3.320129871368408,-8.072880744934082, -1.1038050651550293
181,94325597,0.036572147,0.70656973,-0.041619476,0.7054713,9.963587760925293,0.10171674937009811,0.16622954607009888,-2.125624179840088,-8.647157669067383, -0.7630665302276611
182,94342264,0.036673024,0.7075868,-0.0418333,0.7044332,9.801243782043457,-0.19623762369155884,-0.0036308681592345238,-3.481510639190674,-10.093239784240723, -0.17237354815006256
183,94358931,0.036482766,0.70878106,-0.04183994,0.703241,9.803242683410645,-0.035743411630392075,0.13758689165115356,-0.15256212651729584,-11.740893363952637, 0.12489398568868637
184,94375598,0.036258392,0.7100657,-0.041972626,0.7019477,9.903583526611328,0.1441294252872467,0.04382890835404396,-0.9942342638969421,-12.719143867492676, 0.863039493560791
185,94392265,0.03644557,0.7114207,-0.042749505,0.7005177,9.96950626373291,0.02072165347635746,-0.020760435611009598,-5.439949035644531,-13.781370162963867, 1.9660258293151855
186,94408932,0.036727432,0.71282244,-0.04373437,0.69901556,9.938528060913086,-0.15968070924282074,-0.07203628867864609,-7.131004810333252,-14.387089729309082, 2.5040857791900635
187,94425599,0.036959227,0.71411884,-0.044638913,0.6976216,9.82925033569336,-0.06433335691690445,-0.25152286887168884,-6.676468372344971,-13.349364280700684, 2.4078967571258545
188,94442266,0.03735579,0.7153131,-0.04568646,0.69630784,9.822431564331055,0.012979287654161453,-0.22730451822280884,-7.951199054718018,-12.44902229309082, 2.371936321258545
189,94458933,0.03766575,0.716356,-0.046617948,0.69515634,9.966723442077637,-0.1457298994064331,-0.472064346075058,-6.809753894805908,-10.926702499389648, 2.302729845046997
190,94475600,0.037734214,0.7172119,-0.047343705,0.6942205,9.989217758178711,-0.14564256370067596,-0.5416571497917175,-4.0211310386657715,-8.990816116333008, 2.5349984169006348
191,94492267,0.03771306,0.7178563,-0.047979575,0.69351137,9.938535690307617,-0.17809583246707916,-0.5830457806587219,-3.948378324508667,-6.846814155578613, 2.6718344688415527
192,94508934,0.037722204,0.7183845,-0.048587512,0.69292146,9.783041954040527,-0.20730796456336975,-0.5332709550857544,-3.9553310871124268,-5.672483921051025, 2.4614126682281494
193,94525601,0.0379332,0.7188521,-0.049362328,0.69236994,9.631820678710938,-0.2528429925441742,-0.49879205226898193,-4.995821952819824,-5.169898509979248, 2.314037322998047
194,94542268,0.037999786,0.71935165,-0.0498967,0.69180906,9.645541191101074,-0.28405019640922546,-0.3580649793148041,-2.346635580062866,-5.35872745513916, 1.7573578357696533
195,94558935,0.037891537,0.7198486,-0.050103657,0.6912828,9.89876937866211,-0.16494275629520416,-0.2548941671848297,-1.4551986455917358,-5.126958847045898, 1.045363187789917
196,94575602,0.038069885,0.7203511,-0.050605755,0.69071287,10.115877151489258,0.019642561674118042,-0.2887366712093353,-3.3478751182556152,-5.3706254959106445, 1.0808241367340088
197,94592269,0.038507584,0.7209745,-0.05154549,0.6899682,10.032102584838867,-0.2784229516983032,-0.38287824392318726,-7.5954999923706055,-6.8277459144592285, 1.9820713996887207
198,94608936,0.039083887,0.7217809,-0.05267615,0.6890066,9.966191291809082,-0.3995562791824341,-0.10432448983192444,-8.159940719604492,-8.792267799377441, 2.0860979557037354
199,94625603,0.039434712,0.7223348,-0.0533004,0.6883578,9.857942581176758,-0.278107613325119,-0.25767403841018677,-6.223542213439941,-5.983307361602783, 0.8757176399230957
200,94642270,0.039672475,0.7228069,-0.053704973,0.68781704,9.656356811523438,-0.27524030208587646,-0.5233247876167297,-3.6645379066467285,-5.066333770751953, 0.33151164650917053
201,94658937,0.039945133,0.7233195,-0.05403108,0.68723655,9.587090492248535,-0.2696382701396942,-0.5505594611167908,-2.395146369934082,-5.436642169952393, -0.31512588262557983
202,94675604,0.04027906,0.72393256,-0.05439893,0.6865421,9.771842956542969,-0.26619642972946167,-0.562379777431488,-2.449599027633667,-6.471202850341797, -0.5044422149658203
203,94692271,0.04033264,0.7247969,-0.05453814,0.6856154,10.049925804138184,-0.4503304958343506,-0.3410113751888275,-1.5025054216384888,-8.825804710388184, -0.3979574143886566
204,94708938,0.040179897,0.72613084,-0.05461978,0.6842048,10.586575508117676,0.12429796904325485,0.6759635210037231,1.0478994846343994,-13.544414520263672, -0.11503951996564865
205,94725605,0.04071974,0.7282214,-0.055585027,0.68186957,10.741312980651855,-0.24711471796035767,1.2911975383758545,-7.729812145233154,-21.755443572998047, 0.5628722310066223
206,94742272,0.041449893,0.73130083,-0.056440897,0.67845076,10.900964736938477,-0.592848002910614,1.9197776317596436,-7.925840377807617,-31.820491790771484, -1.5914894342422485
207,94758939,0.04206974,0.7353339,-0.056540806,0.6740307,11.25905990600586,-0.90459144115448,2.0407676696777344,-4.153086185455322,-41.266319274902344, -5.57153844833374
208,94775606,0.042503428,0.7406293,-0.056065448,0.6682204,11.639357566833496,-1.1988133192062378,1.995714783668518,-0.4670012295246124,-54.20309066772461, -8.586875915527344
209,94792273,0.042294156,0.7471683,-0.054930978,0.6610094,12.090545654296875,-1.1413546800613403,1.8941811323165894,8.424701690673828,-67.29022979736328, -10.3118314743042
210,94808940,0.04098181,0.7548067,-0.052641124,0.65254605,12.7379789352417,-0.6968777775764465,2.0638465881347656,17.126508712768555,-78.93328857421875, -11.848163604736328
211,94825607,0.03927439,0.7628045,-0.049395822,0.6435427,12.75645923614502,0.06976350396871567,1.3533343076705933,23.051923751831055,-83.3966293334961, -15.290440559387207
212,94842274,0.03690926,0.770765,-0.04490789,0.63446224,11.929536819458008,-0.10643138736486435,0.2259078323841095,31.9648380279541,-83.67686462402344, -18.877370834350586
213,94858941,0.031828392,0.77755356,-0.03741803,0.62689507,10.54403305053711,0.9595568180084229,2.2131733894348145,58.58341598510742,-70.72661590576172, -21.973066329956055
214,94875608,0.025594965,0.78113943,-0.028902164,0.6231621,8.580304145812988,-1.2028125524520874,4.499422550201416,69.37460327148438,-36.70143127441406, -20.732885360717773
215,94892275,0.016151818,0.78141665,-0.018416107,0.62352884,8.629714012145996,-0.3761823773384094,7.251830577850342,95.37015533447266,-1.101894736289978, -16.22064781188965
216,94908942,0.008827973,0.7782034,-0.009885564,0.6278725,8.415499687194824,-0.49846208095550537,5.843413352966309,75.79924011230469,34.84437561035156, -13.893343925476074
217,94925609,0.0045332555,0.77182174,-0.003698531,0.6358122,8.922377586364746,-0.05164886638522148,5.806772232055664,49.649967193603516,67.47308349609375, -13.99113941192627
218,94942276,0.0042045596,0.76248926,-0.0008355451,0.6469867,9.175705909729004,-0.28901174664497375,4.868298530578613,14.141777992248535,97.19499206542969, -13.48593521118164
219,94958943,0.0067427033,0.75066036,-0.0007953318,0.66065353,9.71036148071289,-0.5153557658195496,3.8740391731262207,-13.583271980285645,121.02032470703125, -11.332245826721191
220,94975610,0.010796657,0.736848,-0.0032257608,0.6759645,10.025014877319336,-1.6347041130065918,2.82360577583313,-32.609962463378906,138.1948699951172, -5.417163372039795
221,94992277,0.013026987,0.72193813,-0.0056091305,0.69181246,10.489603996276855,-1.680387258529663,1.944506049156189,-23.38898468017578,145.83213806152344, 2.814213275909424
222,95008944,0.014663307,0.70600593,-0.008699353,0.7080008,10.797765731811523,-1.34756338596344,0.9635018110275269,-23.94996452331543,152.21421813964844, 9.134288787841797
223,95025611,0.015160328,0.6894191,-0.01196887,0.72410536,10.856438636779785,-1.6025903224945068,0.5765603184700012,-19.37105369567871,154.89645385742188, 15.513490676879883
224,95042278,0.014899064,0.6723001,-0.015110215,0.7399745,10.938874244689941,-1.2927082777023315,0.6618291139602661,-15.442172050476074,156.41058349609375, 18.613475799560547
225,95058945,0.014220944,0.6547116,-0.018036775,0.7555298,10.99046516418457,-1.0430222749710083,0.5249783992767334,-12.950858116149902,157.38076782226562, 19.64826202392578
226,95075612,0.013365565,0.6370459,-0.020825803,0.77042866,11.054292678833008,-0.7186378836631775,-0.012486442923545837,-11.60059642791748,154.9022216796875, 19.820404052734375
227,95092279,0.012683764,0.6197532,-0.02366463,0.7843374,10.840962409973145,-0.3332168757915497,-0.04035042226314545,-13.153092384338379,148.75103759765625, 18.841005325317383
228,95108946,0.012302266,0.60309154,-0.027041104,0.7971187,10.652972221374512,-0.5197311639785767,0.15142518281936646,-17.259658813476562,140.6967010498047, 19.316387176513672
229,95125613,0.012436582,0.5873456,-0.031490907,0.8086278,10.355510711669922,-0.6539243459701538,0.3030569553375244,-25.526592254638672,130.5749053955078, 20.590755462646484
230,95142280,0.0128490655,0.57270074,-0.036738385,0.81884027,9.892668724060059,-1.217677354812622,0.21533067524433136,-31.07341957092285,119.3746566772461, 21.92742919921875
231,95158947,0.013113062,0.5595579,-0.04196515,0.8276244,9.390101432800293,-1.1540268659591675,-0.050440311431884766,-30.60185432434082,105.44367980957031, 22.104291915893555
232,95175614,0.013379181,0.5480092,-0.04732772,0.8350252,9.154924392700195,-0.8767407536506653,-0.5199077725410461,-31.567554473876953,91.23600769042969, 21.997032165527344
233,95192281,0.014016121,0.5382456,-0.0530936,0.84099734,8.582024574279785,-0.3340311348438263,-0.9152306914329529,-35.58448791503906,75.91422271728516, 20.63376808166504
234,95208948,0.015138378,0.53053594,-0.058975298,0.845473,8.10438346862793,0.1444026231765747,-1.8491655588150024,-38.28036117553711,58.89462661743164, 17.408884048461914
235,95225615,0.016865917,0.5252168,-0.064285696,0.8483691,7.86746883392334,0.6291471123695374,-2.522925615310669,-37.542659759521484,39.80937957763672, 10.703811645507812
236,95242282,0.018872485,0.52272284,-0.068389304,0.8495456,7.789552211761475,0.39000818133354187,-2.902958869934082,-31.92453384399414,17.671363830566406, 3.334449291229248
237,95258949,0.019775098,0.5233061,-0.070186704,0.84901917,7.826025485992432,0.6663047671318054,-2.919278621673584,-14.887356758117676,-6.3443098068237305, -0.12205743044614792
238,95275616,0.020158026,0.52670103,-0.070581175,0.8468754,8.036482810974121,1.871766448020935,-3.3912782669067383,-5.216220855712891,-28.347782135009766, -3.6351826190948486
239,95292283,0.021187443,0.53231615,-0.070898205,0.84330535,8.249690055847168,2.4125797748565674,-3.442014217376709,-7.539785385131836,-45.806129455566406, -8.843571662902832
240,95308950,0.022693634,0.53991866,-0.070244364,0.83847404,8.591728210449219,2.357085704803467,-2.8176639080047607,-3.9436559677124023,-61.27556228637695, -16.13425636291504
241,95325617,0.023481658,0.54382235,-0.06957233,0.83598197,14.575943946838379,-2.6578192710876465,22.007095336914062,-0.45536988973617554,-31.357454299926758, -9.679971694946289
242,95342284,0.025721062,0.5470625,-0.06890766,0.8338542,9.781567573547363,-1.4372433423995972,7.204682350158691,-5.9950079917907715,-26.11971092224121, -17.70616340637207
243,95358951,0.027073272,0.5537129,-0.06709216,0.82955873,10.94381046295166,1.6204514503479004,-1.8731749057769775,3.6736910343170166,-54.1754035949707, -18.893991470336914
244,95375618,0.02955634,0.5629675,-0.06315126,0.82353264,13.175601959228516,-2.974790334701538,0.25749146938323975,11.430027961730957,-74.45317840576172, -34.73806381225586
245,95392285,0.028502006,0.5744292,-0.055027694,0.81620514,11.915318489074707,-3.8317699432373047,-0.14537407457828522,48.77154541015625,-92.46897888183594, -32.191871643066406
246,95408952,0.027627587,0.585818,-0.046986323,0.80860776,10.723755836486816,-0.38795581459999084,1.0346665382385254,47.213218688964844,-92.86697387695312, -33.150169372558594
247,95425619,0.027584696,0.59591466,-0.04006063,0.8015734,9.546494483947754,1.8148577213287354,1.8212525844573975,37.587337493896484,-83.2540054321289, -32.7498893737793
248,95442286,0.030459384,0.6035931,-0.037231684,0.79584,8.76171875,1.4579660892486572,0.838391900062561,2.9203808307647705,-64.52433013916016, -31.039440155029297
249,95458953,0.033998583,0.61111075,-0.03357083,0.79010177,11.609379768371582,3.953087329864502,-1.603853702545166,4.6549482345581055,-63.2530632019043, -38.01548767089844
250,95475620,0.038303375,0.6178312,-0.03347962,0.7846635,11.888337135314941,-1.9871801137924194,0.22737708687782288,-18.115568161010742,-58.12675476074219, -26.745527267456055
251,95492287,0.04026183,0.62420595,-0.031010164,0.7796053,9.885890007019043,-0.5083950757980347,0.5336989760398865,4.690494060516357,-54.45376205444336, -24.088220596313477
252,95508954,0.0411965,0.6300022,-0.026789792,0.77503717,10.349367141723633,-1.3918964862823486,0.7935602068901062,18.41130256652832,-48.91899871826172, -25.878921508789062
253,95525621,0.04243849,0.63530236,-0.022380788,0.77077186,10.620712280273438,-0.12424230575561523,1.281352162361145,18.00326919555664,-44.80279541015625, -28.220922470092773
254,95542288,0.04501965,0.6398711,-0.018830119,0.76693135,10.051695823669434,0.4063490033149719,1.6767218112945557,7.449667930603027,-39.09050750732422, -31.345565795898438
255,95558955,0.048678268,0.64386326,-0.016408592,0.76341426,10.058709144592285,0.2699125111103058,1.4881337881088257,-3.391007423400879,-34.83805465698242, -31.87678337097168
256,95575622,0.050876077,0.64795434,-0.012781888,0.7598708,9.80618953704834,0.562480092048645,1.4355437755584717,9.423209190368652,-35.23375701904297, -29.566362380981445
257,95592289,0.052080587,0.65212375,-0.008636395,0.7562722,9.740975379943848,1.2559778690338135,1.411966323852539,16.57280921936035,-35.79720687866211, -26.70963478088379
258,95608956,0.052610982,0.6563903,-0.004562365,0.752571,9.764541625976562,0.9914966225624084,1.124499797821045,19.242082595825195,-36.83420944213867, -22.897947311401367
259,95625623,0.052512065,0.66088516,-0.0003426409,0.7486477,9.72428035736084,1.270850419998169,0.8704846501350403,22.904144287109375,-38.9835319519043, -20.37309455871582
260,95642290,0.0538323,0.66510206,0.0018433187,0.7448073,9.766155242919922,1.443742275238037,0.9637383818626404,5.879335880279541,-37.900489807128906, -18.382389068603516
261,95658957,0.056000225,0.6690839,0.0026833038,0.7410692,9.711658477783203,0.8925063014030457,0.6824467778205872,-4.984246730804443,-36.73909378051758, -16.502317428588867
262,95675624,0.05748515,0.6731199,0.0041073174,0.73728454,9.600358009338379,0.9126591682434082,0.4754023849964142,1.150778889656067,-36.98633575439453, -15.71878433227539
263,95692291,0.0585523,0.6771647,0.0057568047,0.7334757,9.638877868652344,1.2875187397003174,0.4911012053489685,4.227252960205078,-37.03256607055664, -14.648317337036133
264,95708958,0.059899006,0.6810243,0.006740581,0.72977597,9.59080982208252,1.4866929054260254,0.45662012696266174,-0.5141903162002563,-35.86545944213867, -12.903332710266113
265,95725625,0.061362326,0.68472123,0.0072807237,0.72618085,9.623209953308105,1.273662805557251,0.3488145172595978,-3.361093759536743,-34.74636459350586, -11.349743843078613
266,95742292,0.062828794,0.68830466,0.007583093,0.72265613,9.88986587524414,1.2441447973251343,0.32390204071998596,-4.616581916809082,-33.947059631347656, -10.205976486206055
267,95758959,0.06438074,0.69177485,0.0075024893,0.71919847,9.903775215148926,1.0969953536987305,0.24461720883846283,-6.977365016937256,-33.23784637451172, -8.782415390014648
268,95775626,0.06578341,0.6951488,0.0074044517,0.7158113,9.77781867980957,1.084064245223999,0.02129611000418663,-6.400000095367432,-32.4283447265625, -7.929032802581787
269,95792293,0.06713984,0.6984216,0.0071669985,0.7124944,9.793042182922363,1.1295005083084106,-0.045123081654310226,-6.915441989898682,-31.65135955810547, -7.003576278686523
270,95808960,0.068328336,0.701661,0.00695576,0.70919305,9.731037139892578,1.0585356950759888,-0.11676084250211716,-5.9971466064453125,-31.38981056213379, -6.295470714569092
271,95825627,0.06942646,0.704964,0.006790702,0.70580447,9.565332412719727,1.1168758869171143,-0.16197478771209717,-5.3021697998046875,-32.093475341796875, -6.113365173339844
272,95842294,0.070631765,0.70835906,0.006413596,0.70228016,9.604382514953613,0.9893112778663635,-0.2793181240558624,-6.799828052520752,-33.3039436340332, -5.661505222320557
273,95858961,0.07190034,0.7119269,0.006137099,0.6985363,9.565165519714355,0.821786105632782,-0.3833889365196228,-6.528886795043945,-35.161136627197266, -6.557048320770264
274,95875628,0.07398236,0.71568584,0.0061574024,0.6944659,9.994757652282715,1.0092191696166992,-0.03361080214381218,-8.977941513061523,-37.56410217285156, -12.077531814575195
275,95892295,0.07718985,0.71963215,0.0062978924,0.69002306,9.693217277526855,1.0369511842727661,-0.11415308713912964,-13.831374168395996,-40.293949127197266, -18.22659683227539
276,95908962,0.080505066,0.7238575,0.006778859,0.6852031,9.74355411529541,1.3164745569229126,-0.08226405829191208,-12.58578109741211,-43.325435638427734, -20.61166763305664
277,95925629,0.0834489,0.7283921,0.0074546514,0.6800189,9.627314567565918,1.5460189580917358,-0.4275887906551361,-9.63102912902832,-46.492454528808594, -20.01249122619629
278,95942296,0.08620647,0.733064,0.00863203,0.67461914,9.442330360412598,2.066255807876587,-0.09351851791143417,-6.263314247131348,-47.93023681640625, -21.75770378112793
279,95958963,0.089200206,0.73774123,0.009214181,0.6691012,9.370643615722656,2.3222460746765137,-0.4802733361721039,-10.199440002441406,-48.947120666503906, -19.892677307128906
280,95975630,0.092099965,0.7424597,0.009126576,0.6634667,9.569718360900879,1.7017320394515991,-0.7686862945556641,-12.765386581420898,-50.153282165527344, -16.094533920288086
281,95992297,0.094528385,0.74749887,0.008864814,0.6574431,9.838899612426758,1.255974292755127,-1.0543713569641113,-10.922733306884766,-53.698463439941406, -13.270573616027832
282,96008964,0.09659359,0.7528371,0.008569892,0.65102434,9.975056648254395,1.354488730430603,-0.794888973236084,-8.986787796020508,-57.0908317565918, -11.705595970153809
283,96025631,0.09857668,0.75844187,0.008667756,0.64418447,10.143072128295898,1.2992244958877563,-0.6686269640922546,-6.59877872467041,-60.22490692138672, -13.643019676208496
284,96042298,0.10056628,0.76426536,0.009199263,0.6369462,10.228717803955078,1.134128212928772,-1.2714381217956543,-4.536230564117432,-63.013973236083984, -16.20264434814453
285,96058965,0.10201258,0.7702789,0.010308484,0.62941074,10.320515632629395,0.9513128995895386,-1.7620736360549927,0.9982388019561768,-64.99613952636719, -17.073518753051758
286,96075632,0.10072087,0.7768658,0.013120562,0.6214199,10.739001274108887,0.831684410572052,-1.7786260843276978,23.297815322875977,-68.51236724853516, -14.553350448608398
287,96092299,0.09474699,0.78454405,0.01714012,0.61255205,12.924235343933105,1.6426424980163574,0.40534716844558716,54.296531677246094,-76.62279510498047, -1.5494627952575684
288,96108966,0.0916589,0.79224735,0.018840803,0.60298264,13.299901962280273,0.9301304221153259,0.799697995185852,29.078161239624023,-82.48622131347656, -1.6754488945007324
289,96125633,0.08713579,0.801174,0.021019032,0.59168065,14.316654205322266,-1.3487255573272705,0.6899029612541199,39.8815803527832,-96.65967559814453, 0.6899622678756714
290,96142300,0.08017552,0.8114093,0.023655316,0.57847,15.641629219055176,-1.3805075883865356,1.8761935234069824,56.21460723876953,-112.04031372070312, 6.9998087882995605
291,96158967,0.074502446,0.8221837,0.027541434,0.5636532,17.329036712646484,-2.43601655960083,2.57295298576355,54.54636001586914,-122.90471649169922, -6.016743183135986
292,96175634,0.06701607,0.83415014,0.03318311,0.5464443,20.5969181060791,-4.501567363739014,3.1032111644744873,72.63191223144531,-140.1061248779297, -10.069711685180664
293,96192301,0.058387853,0.8463882,0.040244304,0.52782416,17.618974685668945,-3.7007336616516113,3.3391075134277344,84.89115142822266,-148.69293212890625, -14.728041648864746
294,96208968,0.04772036,0.8585,0.04860365,0.5082702,16.40693473815918,-0.9488211870193481,2.2055091857910156,101.6107177734375,-152.9620819091797, -15.442798614501953
295,96225635,0.037299607,0.869716,0.055521898,0.48899925,14.273643493652344,-0.9135380983352661,0.8603978753089905,94.6913833618164,-149.05572509765625, -8.043453216552734
296,96242302,0.027167661,0.8803344,0.059481703,0.4698246,12.203401565551758,1.072527527809143,0.6759902238845825,82.77803802490234,-147.61412048339844, 8.45699691772461
297,96258969,0.015923576,0.8897132,0.06320909,0.45184222,10.969451904296875,1.9841887950897217,-3.165640354156494,88.02513122558594,-136.22296142578125, 13.231097221374512
298,96275636,0.00709768,0.8974512,0.06746864,0.435866,9.902205467224121,5.035048007965088,-3.363703966140747,73.83342742919922,-119.9593276977539, 2.059936046600342
299,96292303,0.0023945747,0.90305,0.07199152,0.42345318,9.3314847946167,4.781516075134277,-2.780411720275879,47.50872802734375,-93.55316162109375, -12.575779914855957
300,96308970,-0.000101825746,0.90608567,0.07460456,0.416465,8.943309783935547,-1.3961631059646606,5.108083248138428,25.61496353149414,-53.63459396362305, -8.185652732849121
301,96325637,-0.007547532,0.90702355,0.07760459,0.41379815,5.870457649230957,-0.3805219233036041,4.730077266693115,55.31925964355469,-18.4721736907959, 2.477142333984375
302,96342304,-0.012105744,0.9059538,0.07785898,0.41598,5.8074188232421875,2.301311731338501,2.021444082260132,27.01384735107422,15.858450889587402, 10.076695442199707
303,96358971,-0.011743982,0.90293807,0.07437156,0.42312393,5.700826644897461,0.9306755661964417,1.4880993366241455,-16.783071517944336,49.86697769165039, 17.9102783203125
304,96375638,-0.010688573,0.8980829,0.06910152,0.43423232,5.753523826599121,1.1690373420715332,1.8667553663253784,-28.14551544189453,79.49956512451172, 25.690977096557617
305,96392305,-0.00564557,0.8909449,0.060598265,0.4500147,6.0418701171875,2.1422486305236816,1.8803352117538452,-64.46798706054688,113.40007019042969, 32.29789733886719
306,96408972,0.003022835,0.88110477,0.048413236,0.4704272,6.2056427001953125,1.6030850410461426,1.1335009336471558,-99.8785629272461,148.6438446044922, 42.29515838623047
307,96425639,0.01105795,0.8685936,0.034773357,0.49417984,6.698511123657227,1.5474814176559448,0.5799221396446228,-101.91605377197266,177.6141815185547, 52.269142150878906
308,96442306,0.017664732,0.8533664,0.020785283,0.5205977,7.562100410461426,2.000821828842163,0.19427618384361267,-95.41838073730469,203.0084686279297, 58.68561935424805
309,96458973,0.021871848,0.8355441,0.0071306257,0.5489418,8.252161026000977,2.275832176208496,-0.46689996123313904,-80.73640441894531,223.92410278320312, 65.13518524169922
310,96475640,0.02334002,0.81529623,-0.0057399636,0.578545,9.371560096740723,2.7256858348846436,-0.9446698427200317,-62.47093200683594,240.52967834472656, 71.01850891113281
311,96492307,0.021976374,0.7927356,-0.017160345,0.60892767,10.280929565429688,2.117987632751465,-1.4866418838500977,-41.17238235473633,254.19956970214844, 74.3859634399414
312,96508974,0.016344855,0.7684112,-0.024730437,0.63926953,11.47397232055664,3.009485960006714,-1.919538974761963,-2.070183277130127,261.4419250488281, 71.50117492675781
313,96525641,0.011202145,0.7418424,-0.030867737,0.66977,12.57140064239502,3.099630832672119,-2.2030348777770996,1.4064667224884033,272.4207458496094, 62.26738739013672
314,96542308,0.006266652,0.7132086,-0.035641994,0.7000172,13.693657875061035,2.135154962539673,-1.876505970954895,6.398728847503662,280.8514404296875, 54.87761306762695
315,96558975,0.00087556336,0.6826013,-0.03795503,0.7298042,15.057732582092285,1.9050548076629639,-1.8477764129638672,20.26508331298828,288.1712646484375, 45.546356201171875
316,96575642,-0.0043132296,0.6504303,-0.037406262,0.75863206,16.07652473449707,2.0423896312713623,-3.441300630569458,33.40199661254883,291.6984558105469, 31.592084884643555
317,96592309,-0.008572524,0.61797327,-0.034072638,0.7854137,15.968425750732422,2.7291150093078613,-5.01920747756958,43.245147705078125,284.4114685058594, 14.5303316116333
318,96608976,-0.010293116,0.585819,-0.030763581,0.8097926,15.981775283813477,1.5354129076004028,-5.936882972717285,31.731040954589844,273.4892272949219, 1.1187094449996948
319,96625643,-0.013308119,0.5555453,-0.025714507,0.8309821,15.34342098236084,-0.4015316665172577,-7.262454032897949,45.82491683959961,250.17138671875, 1.2275699377059937
320,96642310,-0.01580992,0.5293665,-0.02037619,0.8480012,12.986443519592285,1.467603325843811,-8.408164978027344,44.422786712646484,211.35708618164062, -3.129439115524292
321,96658977,-0.015602483,0.5091502,-0.01882371,0.8603304,11.27873420715332,1.9700533151626587,-11.012618064880371,11.17797565460205,160.76864624023438, -5.4203996658325195
322,96675644,-0.011202181,0.49688873,-0.02229334,0.86745566,9.007109642028809,2.563768148422241,-12.054076194763184,-34.736724853515625,97.06319427490234, -13.069632530212402
323,96692311,-0.0038130176,0.4932961,-0.02850951,0.86938584,7.668081283569336,0.30412930250167847,-12.99251651763916,-62.79592514038086,28.726924896240234, -22.393638610839844
324,96708978,0.0025792918,0.4980438,-0.031819545,0.86656415,8.344014167785645,-0.5817639231681824,-12.334633827209473,-43.16130065917969,-37.11052703857422, -27.801738739013672
325,96725645,0.009866951,0.5079633,-0.03528635,0.8605992,10.801957130432129,2.902315139770508,-7.563879013061523,-47.71649932861328,-78.1426773071289, -33.79975509643555
326,96742312,0.018939361,0.51693314,-0.04448513,0.8546595,14.61269760131836,-3.0328080654144287,16.05577850341797,-87.93360900878906,-72.15795135498047, -24.044158935546875
327,96758979,0.029553805,0.52480125,-0.056879852,0.848808,11.08178424835205,-5.957666397094727,1.4880785942077637,-112.28313446044922,-65.54452514648438, -21.460359573364258
328,96775646,0.03605327,0.53548855,-0.06566755,0.84121346,13.104186058044434,-5.217832088470459,-4.303605556488037,-76.42190551757812,-89.12665557861328, -12.025457382202148
329,96792313,0.038211696,0.5484919,-0.063276015,0.8328822,13.999311447143555,-6.979049205780029,-2.2283053398132324,4.519003391265869,-104.27224731445312, -29.389219284057617
330,96808980,0.03344314,0.56379014,-0.049421605,0.8237597,12.444756507873535,0.3974873721599579,-2.5218186378479004,96.59894561767578,-120.31279754638672, -34.28072738647461
331,96825647,0.036730666,0.57896876,-0.043066557,0.81338274,14.09669017791748,9.110610961914062,-2.1018834114074707,22.42240333557129,-123.41812133789062, -51.07868576049805
332,96842314,0.045218445,0.5910295,-0.048197392,0.8039382,11.087430000305176,-1.266202449798584,0.4620511829853058,-63.087364196777344,-103.5825424194336, -33.11552047729492
333,96858981,0.047664963,0.60239863,-0.047797713,0.79533607,8.70826244354248,1.498491644859314,-0.30213096737861633,-7.8954010009765625,-96.64405059814453, -21.726329803466797
334,96875648,0.04867409,0.6119086,-0.046572875,0.7880544,10.92233943939209,-1.1408742666244507,-0.4383050501346588,2.390254497528076,-81.24017333984375, -16.226179122924805
335,96892315,0.047580756,0.62058884,-0.043494944,0.7814819,11.64494514465332,-0.14777451753616333,0.2901114225387573,21.232067108154297,-73.83319091796875, -12.15776252746582
336,96908982,0.049154952,0.6277412,-0.04292691,0.7756819,10.104728698730469,0.21685877442359924,0.9593232870101929,-3.90285587310791,-62.382850646972656, -15.084242820739746
337,96925649,0.053511694,0.63357157,-0.045028917,0.77051675,10.061195373535156,0.328445702791214,1.0739805698394775,-30.412322998046875,-52.719600677490234, -17.798337936401367
338,96942316,0.058873132,0.6387592,-0.04783625,0.7656584,10.281379699707031,-0.500123143196106,1.0248310565948486,-38.6683235168457,-47.97427749633789, -19.735811233520508
339,96958983,0.06260823,0.64397347,-0.048574746,0.7609331,10.134147644042969,-0.26075080037117004,1.3012200593948364,-20.57938575744629,-47.26982498168945, -20.22620964050293
340,96975650,0.06554573,0.64921635,-0.048506673,0.75622046,9.76966381072998,0.0959918424487114,1.3942564725875854,-12.811738967895508,-47.32643127441406, -19.63844871520996
341,96992317,0.06702844,0.65477246,-0.047233023,0.7513649,9.425765037536621,0.0991603210568428,1.3579914569854736,0.04370209574699402,-49.576499938964844, -17.631174087524414
342,97008984,0.06771222,0.66057664,-0.04559088,0.7463075,9.599373817443848,0.7489950060844421,1.342202067375183,5.593339920043945,-51.895172119140625, -15.34391975402832
343,97025651,0.068249404,0.6664188,-0.04437672,0.74112,9.663089752197266,0.4424504041671753,0.6435036659240723,4.040067195892334,-52.96219253540039, -12.720870971679688
344,97042318,0.068207875,0.6724653,-0.04277049,0.7357371,9.757843017578125,0.6345130205154419,0.4695921540260315,8.72640323638916,-54.917503356933594, -11.726573944091797
345,97058985,0.06958552,0.6780324,-0.042896405,0.73047245,9.962597846984863,1.0520691871643066,0.19287681579589844,-6.7864861488342285,-52.36266326904297, -10.701874732971191
346,97075652,0.0717426,0.6830691,-0.044046838,0.7254858,9.79886531829834,0.412668377161026,0.08349508047103882,-15.737104415893555,-48.68292236328125, -9.54780101776123
347,97092319,0.07332246,0.68812597,-0.044418737,0.7205093,9.734975814819336,0.2548500895500183,0.08512120693922043,-9.129050254821777,-48.54553985595703, -10.329373359680176
348,97108986,0.07463532,0.6933212,-0.044508334,0.71536994,9.798032760620117,0.5028037428855896,0.09415073692798615,-6.446378707885742,-49.95874786376953, -10.47191333770752
349,97125653,0.07625775,0.69856876,-0.045015346,0.71004236,9.762260437011719,0.6509780287742615,-0.09060277044773102,-10.00513744354248,-51.252174377441406, -10.120368957519531
350,97142320,0.078212224,0.7036917,-0.04580558,0.7047005,9.685796737670898,0.6075118184089661,-0.3900635838508606,-13.051619529724121,-50.774749755859375, -10.351603507995605
351,97158987,0.08020303,0.70880663,-0.046482902,0.69928527,9.620647430419922,0.32421237230300903,-0.5050221085548401,-12.706883430480957,-51.03394317626953, -11.113001823425293
352,97175654,0.08205898,0.71417975,-0.04644738,0.69358224,10.274178504943848,0.6080269813537598,-0.5490174293518066,-8.571845054626465,-53.34136199951172, -14.184288024902344
353,97192321,0.08426779,0.71988875,-0.046653397,0.68737376,9.800833702087402,0.7602359056472778,-0.4657818675041199,-11.427637100219727,-57.46144485473633, -15.075855255126953
354,97208988,0.08621541,0.72595,-0.046883017,0.6807097,9.807772636413574,0.46634265780448914,-0.7362378835678101,-10.187877655029297,-61.49222183227539, -14.102872848510742
355,97225655,0.087697394,0.73242015,-0.04654899,0.673575,9.780232429504395,0.2659686207771301,-0.9081586599349976,-5.134698390960693,-65.58322143554688, -15.151576042175293
356,97242322,0.088849954,0.73921967,-0.0463695,0.6659655,9.787361145019531,0.732353687286377,-0.9549144506454468,-4.1446051597595215,-69.70838928222656, -13.244690895080566
357,97258989,0.08960699,0.74632376,-0.046540037,0.6578797,9.726805686950684,1.0268689393997192,-1.0869272947311401,-3.702157735824585,-73.87431335449219, -10.044486045837402
358,97275656,0.08990043,0.753738,-0.047041707,0.64929515,9.672927856445312,1.0748776197433472,-1.1783983707427979,-2.788681745529175,-78.19865417480469, -6.654836654663086
359,97292323,0.08967199,0.76135933,-0.046951223,0.6403801,9.864984512329102,1.1342952251434326,-1.3875105381011963,2.581467866897583,-80.64834594726562, -7.6651105880737305
360,97308990,0.0889942,0.7691689,-0.045896795,0.63115203,9.997611999511719,1.0610758066177368,-1.5966616868972778,9.193951606750488,-82.67522430419922, -10.986288070678711
361,97325657,0.0874379,0.777282,-0.04375773,0.62150836,11.011918067932129,1.6211150884628296,-0.7747209668159485,18.60223388671875,-85.81217956542969, -13.2610502243042
362,97342324,0.08427721,0.785886,-0.041706394,0.6111802,12.835305213928223,0.22259168326854706,-0.7341346740722656,26.89302635192871,-92.11888122558594, -6.493849754333496
363,97358991,0.08033246,0.79498154,-0.040276855,0.59994084,13.964917182922363,-0.036265138536691666,0.09726729989051819,28.54084014892578,-99.71208190917969, -0.5156927704811096
364,97375658,0.075567484,0.80490404,-0.03891016,0.5872864,14.51563835144043,-1.3171322345733643,0.4068065285682678,32.830135345458984,-111.14665222167969, 2.1919808387756348
365,97392325,0.068217844,0.81620234,-0.0377247,0.5724831,15.642946243286133,-1.3135465383529663,1.1917670965194702,46.541202545166016,-129.41127014160156, 12.132943153381348
366,97408992,0.06428769,0.82818604,-0.036342464,0.5555667,17.66301727294922,0.004857143387198448,3.3046793937683105,27.896320343017578,-143.0248260498047, -3.61323618888855
367,97425659,0.06310755,0.8398534,-0.034797188,0.53800833,22.102445602416992,-1.7208291292190552,3.9164905548095703,12.559842109680176,-144.76470947265625, -15.256632804870605
368,97442326,0.059264123,0.85172933,-0.03117547,0.5196856,19.746583938598633,-2.0816404819488525,4.387775421142578,35.525543212890625,-149.7523956298828, -17.791458129882812
369,97458993,0.054373197,0.8640218,-0.027596602,0.4997484,18.22406005859375,-1.4005343914031982,3.4478249549865723,41.32685089111328,-161.00099182128906, -14.557266235351562
370,97475660,0.046174835,0.87561613,-0.025352836,0.4801269,15.590271949768066,-3.832508087158203,4.014072418212891,56.183570861816406,-157.90574645996094, 4.984283447265625
371,97492327,0.028170869,0.8863624,-0.018191442,0.46177658,11.999211311340332,3.782613515853882,-1.3583197593688965,131.4013671875,-147.65455627441406, 8.290136337280273
372,97508994,0.01614355,0.8952566,-0.012379899,0.44508636,11.238493919372559,5.283844947814941,-5.311573505401611,90.54277038574219,-131.1761474609375, -1.8785394430160522
373,97525661,0.007033616,0.9027731,-0.0066522495,0.4300086,10.013897895812988,2.2161996364593506,-4.801816463470459,72.32646179199219,-116.78560638427734, -9.963749885559082
374,97542328,-0.006594468,0.9084042,0.0031308918,0.41802958,9.866724967956543,2.2738966941833496,2.11220645904541,112.42227935791016,-91.9825668334961, -21.525949478149414
375,97558995,-0.012638075,0.91073895,0.011273029,0.4126354,8.572717666625977,2.005941152572632,6.19862699508667,60.34695053100586,-41.4903450012207, -33.42802429199219
376,97575662,-0.014395871,0.9111582,0.016198592,0.41148636,5.946018218994141,-0.3760492205619812,3.1768531799316406,24.22966957092285,-9.561727523803711, -25.95148277282715
377,97592329,-0.012135752,0.909713,0.018990178,0.41462559,6.115065574645996,0.6342979669570923,2.2620887756347656,-7.27175760269165,22.326522827148438, -24.584579467773438
378,97608996,-0.0065110736,0.9058788,0.020657396,0.4229829,5.955308437347412,0.3828445374965668,2.4443016052246094,-32.000118255615234,61.418331146240234, -27.89266014099121
379,97625663,0.0023571644,0.8996039,0.01991,0.43624625,5.601711273193359,0.14715108275413513,2.871472120285034,-59.812103271484375,98.7116470336914, -22.858539581298828
380,97642330,0.014515219,0.89043343,0.016271355,0.45459086,5.730827808380127,0.6065483093261719,2.4488117694854736,-89.57976531982422,138.32472229003906, -15.167010307312012
381,97658997,0.02925855,0.8781386,0.009523069,0.47741583,5.743386745452881,0.1826181709766388,1.6137282848358154,-115.94713592529297,174.92320251464844, -4.122376918792725
382,97675664,0.043845966,0.86290604,0.00035114435,0.50345874,6.2613067626953125,-0.7996143102645874,0.7981275916099548,-123.77106475830078,203.5256805419922, 11.465780258178711
383,97692331,0.05618751,0.8449047,-0.0099086305,0.5318658,7.298025131225586,-0.8865985870361328,0.04005645215511322,-115.0589370727539,226.82339477539062, 26.38482093811035
384,97708998,0.06602168,0.8238478,-0.020664906,0.56257355,8.287934303283691,-0.5724108815193176,-0.5905411839485168,-103.33828735351562,251.01495361328125, 39.5213623046875
385,97725665,0.073250465,0.79951465,-0.03165175,0.5953224,9.353611946105957,-0.7318516969680786,-1.1966650485992432,-90.67401885986328,274.7950439453125, 52.287349700927734
386,97742332,0.07696527,0.77204,-0.041576866,0.6295254,10.2858247756958,-0.47853076457977295,-1.011033058166504,-68.27735137939453,295.4418640136719, 62.24191665649414
387,97758999,0.07706873,0.7415682,-0.04968075,0.6645817,12.084662437438965,-0.4572907090187073,-1.1624282598495483,-42.56205368041992,312.89898681640625, 69.50946044921875
388,97775666,0.072741605,0.7088895,-0.054836635,0.69941217,14.058030128479004,-0.6543236970901489,-2.379077911376953,-7.73814582824707,321.90155029296875, 75.35655975341797
389,97792333,0.06395425,0.67390954,-0.056129895,0.73389727,16.120014190673828,-0.10822947323322296,-3.775928258895874,31.30849838256836,331.569580078125, 78.67632293701172
390,97809000,0.049481105,0.63742656,-0.051453866,0.76719725,18.605445861816406,0.29978954792022705,-5.399393558502197,86.67943572998047,334.1396484375, 79.77765655517578
391,97825667,0.03207875,0.60042506,-0.041670643,0.79795015,20.099607467651367,1.772713303565979,-7.047463417053223,125.39665985107422,326.46441650390625, 72.17472076416016
392,97842334,0.015798284,0.5629843,-0.031641364,0.8257108,18.06446647644043,2.4734978675842285,-7.801340579986572,121.15357971191406,316.9561767578125, 64.48638153076172
393,97859001,0.0022660326,0.53029615,-0.01970969,0.84758043,15.534027099609375,8.27896499633789,-8.810582160949707,120.53326416015625,268.0065612792969, 39.8536376953125
394,97875668,0.0058002495,0.5014737,-0.025354598,0.86478186,12.696747779846191,4.201422691345215,-12.81191349029541,-44.753536224365234,230.54315185546875, 3.9183778762817383
395,97892335,0.009816504,0.48339263,-0.029482942,0.874852,10.021236419677734,0.9930447936058044,-16.78282356262207,-38.21763229370117,142.29727172851562, -6.314578056335449
396,97909002,0.016232537,0.4780839,-0.031343333,0.8776048,7.46427583694458,1.2529983520507812,-17.689971923828125,-33.170928955078125,41.885467529296875, -31.36357307434082
397,97925669,0.023823684,0.48330647,-0.037031367,0.87434316,8.222062110900879,0.17686744034290314,-15.676209449768066,-60.251163482666016,-41.50867462158203, -28.804834365844727
398,97942336,0.028896093,0.49599674,-0.040803578,0.8668837,11.512883186340332,2.3869411945343018,-9.932636260986328,-40.2082633972168,-100.5980224609375, -22.6136417388916
399,97959003,0.037106354,0.5055363,-0.046156254,0.86077046,14.854618072509766,5.957200050354004,19.840084075927734,-60.58201599121094,-76.60094451904297, -34.75846862792969
400,97975670,0.051404685,0.51063424,-0.06714284,0.8556296,11.170904159545898,-8.4266939163208,2.8132126331329346,-175.12586975097656,-49.0728759765625, -14.75495433807373
401,97992337,0.055927362,0.5205741,-0.07712204,0.848485,13.59878921508789,-4.481815814971924,-4.1050310134887695,-75.22535705566406,-85.2166748046875, 1.1376463174819946
402,98009004,0.060880523,0.53322643,-0.07946713,0.84002864,15.038993835449219,-4.350864887237549,-2.107914447784424,-31.86876106262207,-102.53632354736328, -30.655357360839844
403,98025671,0.06362582,0.5473508,-0.07767045,0.83085877,12.823854446411133,-4.978254318237305,-1.1874183416366577,0.38311442732810974,-113.10123443603516, -34.20779037475586
404,98042338,0.06349028,0.5635752,-0.068072505,0.8208034,11.677992820739746,7.303103923797607,-4.896957874298096,56.24565887451172,-126.54496765136719, -48.64533615112305
405,98059005,0.073925324,0.5765586,-0.073657915,0.81036395,14.14770221710205,-1.2034224271774292,1.0019567012786865,-72.0174789428711,-111.39478302001953, -48.07992172241211
406,98075672,0.07618994,0.5897318,-0.07202528,0.80076456,8.934895515441895,-0.014692679978907108,-0.25885653495788574,1.112480640411377,-109.59003448486328, -30.840187072753906
407,98092339,0.074366115,0.6019825,-0.06584348,0.7923076,9.877384185791016,-0.6464789509773254,-0.47291848063468933,42.81926727294922,-99.52375030517578, -25.724878311157227
408,98109006,0.070730306,0.6133389,-0.05829927,0.78448343,11.292802810668945,2.200594663619995,0.8315619230270386,57.57003402709961,-92.15922546386719, -20.77568817138672
409,98125673,0.07472731,0.62182987,-0.06080822,0.777204,10.491191864013672,2.4628937244415283,1.1477402448654175,-30.02088165283203,-76.24302673339844, -18.12947654724121
410,98142340,0.08202596,0.6285089,-0.06787178,0.7704815,10.143244743347168,-0.468502014875412,0.6099918484687805,-69.17633056640625,-65.15216064453125, -15.241039276123047
411,98159007,0.08716063,0.635216,-0.071716905,0.7640421,10.354113578796387,-1.0608727931976318,0.4449264407157898,-42.62593460083008,-63.28327941894531, -17.538597106933594
412,98175674,0.090188704,0.64191264,-0.07290171,0.7579575,10.113062858581543,-0.6486872434616089,0.29585835337638855,-19.280397415161133,-61.13250732421875, -17.87860870361328
413,98192341,0.09172994,0.6485184,-0.07269809,0.7521468,9.856645584106445,0.28599831461906433,0.795831561088562,-5.401188850402832,-59.34400939941406, -16.04810905456543
414,98209008,0.093316585,0.65456015,-0.072824046,0.7466858,9.893305778503418,0.7267798185348511,1.1565403938293457,-7.489175319671631,-55.064292907714844, -14.312091827392578
415,98225675,0.09577412,0.6600289,-0.0741652,0.74141,9.976322174072266,0.5917329788208008,0.6952418088912964,-17.921981811523438,-51.64722442626953, -12.907163619995117
416,98242342,0.09816521,0.66513985,-0.075664945,0.7363611,9.877616882324219,0.17469674348831177,0.47336018085479736,-18.548919677734375,-48.943153381347656, -11.516035079956055
417,98259009,0.1000961,0.66989344,-0.07665909,0.73167413,9.922710418701172,0.286895751953125,0.2321988344192505,-13.93700885772705,-45.38720703125, -11.069632530212402
418,98275676,0.102189,0.6741525,-0.07786284,0.72733295,9.933880805969238,0.1686277538537979,0.025696266442537308,-15.894410133361816,-41.37425231933594, -10.42151165008545
419,98292343,0.10384082,0.67838585,-0.07844543,0.7230879,9.796256065368652,0.051201485097408295,0.008031889796257019,-10.710776329040527,-40.60829162597656, -11.01572322845459
420,98309010,0.10486795,0.6826116,-0.07807267,0.7189915,9.80270004272461,0.08408236503601074,-0.27164173126220703,-2.972486972808838,-39.53894805908203, -12.258708953857422
421,98325677,0.10599181,0.6866944,-0.07752743,0.71498686,9.742254257202148,0.306392103433609,-0.35719913244247437,-2.6276986598968506,-38.23194885253906, -13.406826972961426
422,98342344,0.10714925,0.6906861,-0.07688776,0.71102756,9.644766807556152,0.40937402844429016,-0.41659870743751526,-2.364039897918701,-37.489646911621094, -13.93828010559082
423,98359011,0.10811005,0.6950129,-0.075986214,0.7067499,9.460847854614258,0.8122045993804932,-0.238465815782547,-0.07157514989376068,-40.557010650634766, -14.634103775024414
424,98375678,0.108817086,0.69976324,-0.07509457,0.70203376,9.33460521697998,0.846075177192688,-0.0665767565369606,1.1785454750061035,-44.85900115966797, -13.901168823242188
425,98392345,0.10951662,0.7051914,-0.07409826,0.69657797,10.119359016418457,0.905113160610199,0.4603818655014038,1.845266580581665,-51.62353515625, -15.271855354309082
426,98409012,0.11125976,0.7116245,-0.073703945,0.6897678,9.742013931274414,0.5278806090354919,0.43798813223838806,-6.030845642089844,-62.93904113769531, -18.883390426635742
427,98425679,0.11272149,0.71902823,-0.07313248,0.68186814,9.722311973571777,0.5116570591926575,0.010322637856006622,-3.622335910797119,-72.89261627197266, -19.742780685424805
428,98442346,0.1137617,0.7269396,-0.07226208,0.6733464,9.697982788085938,0.5499556660652161,-0.5480082035064697,-0.05601625517010689,-78.34031677246094, -19.984500885009766
429,98459013,0.11440721,0.735105,-0.07167822,0.66437495,9.786437034606934,0.3954474925994873,-0.9397449493408203,0.5656001567840576,-82.1926498413086, -17.205440521240234
430,98475680,0.114271894,0.74356544,-0.07023327,0.65507233,9.69161605834961,0.5702900290489197,-1.307140827178955,8.514703750610352,-84.92989349365234, -18.400466918945312
431,98492347,0.11331371,0.7523211,-0.06843405,0.64536023,9.838362693786621,1.522934913635254,-1.0608967542648315,14.35197925567627,-88.47921752929688, -16.972997665405273
432,98509014,0.11184561,0.76123214,-0.066875175,0.63525116,9.880471229553223,1.411679983139038,-1.2400181293487549,15.858832359313965,-91.65751647949219, -13.847962379455566
433,98525681,0.10962115,0.7705507,-0.06408848,0.62460196,10.378922462463379,1.050462245941162,-1.5280091762542725,25.246841430664062,-95.67747497558594, -17.573345184326172
434,98542348,0.10597111,0.7800952,-0.06016257,0.6136791,11.241101264953613,1.18367338180542,-1.5332425832748413,37.742862701416016,-97.87639617919922, -17.794992446899414
435,98559015,0.10089103,0.78938824,-0.057042193,0.6028547,13.417305946350098,1.8002675771713257,-1.0539796352386475,41.87240219116211,-97.4762191772461, -7.267034530639648
436,98575682,0.09556755,0.79877275,-0.054659676,0.59147394,14.030275344848633,-0.5211437940597534,-0.9397261142730713,39.98366165161133,-101.49987030029297, -2.6754097938537598
437,98592349,0.089261614,0.80862576,-0.0526419,0.5791248,15.377496719360352,-1.9849648475646973,-0.28938719630241394,43.839332580566406,-109.35269927978516, 2.499326229095459
438,98609016,0.08049108,0.81949854,-0.051455,0.56506276,16.1812744140625,-2.6447227001190186,0.7336984872817993,54.2379264831543,-124.36957550048828, 15.49399185180664
439,98625683,0.075240776,0.8311431,-0.049914636,0.548679,18.86275863647461,-0.42854565382003784,3.7914280891418457,35.377384185791016,-139.04595947265625, -1.752381443977356
440,98642350,0.0732283,0.8417749,-0.04891846,0.5325973,22.04808807373047,-2.7105910778045654,4.026131629943848,14.400464057922363,-132.72633361816406, -10.3618745803833
441,98659017,0.06832656,0.8531532,-0.046196885,0.5150991,19.691009521484375,-2.1474289894104004,4.976678848266602,37.3363037109375,-143.83282470703125, -10.751182556152344
442,98675684,0.06311274,0.86456025,-0.04477555,0.4965357,18.480655670166016,-4.763200759887695,3.940584897994995,34.23281478881836,-150.9629669189453, -2.541224956512451
443,98692351,0.050007086,0.87671304,-0.042803887,0.47648868,15.086294174194336,0.00976298376917839,5.096766948699951,82.88209533691406,-164.58729553222656, 20.237871170043945
444,98709018,0.035807773,0.8871869,-0.039070293,0.4583567,13.841227531433105,6.490560531616211,-0.959632933139801,95.23140716552734,-147.3158416748047, 14.359323501586914
445,98725685,0.031250823,0.8955178,-0.03828584,0.442273,11.456269264221191,5.661306381225586,-4.752967357635498,27.153493881225586,-126.22318267822266, 3.074620008468628
446,98742352,0.030871907,0.902232,-0.038032915,0.42845988,9.484917640686035,0.946554958820343,-4.598838806152344,0.07867894321680069,-106.34082794189453, -5.4187235832214355
447,98759019,0.02574438,0.90673524,-0.032864638,0.41962886,9.942575454711914,0.7349368333816528,5.9645514488220215,44.85271072387695,-69.11894226074219, -20.28050994873047
448,98775686,0.026660169,0.90771306,-0.028416933,0.41777855,6.781930446624756,1.332525610923767,6.3454179763793945,6.0569939613342285,-14.238415718078613, -31.187053680419922
449,98792353,0.030839205,0.90633583,-0.026704673,0.42058432,4.667370319366455,0.3479791581630707,2.830195426940918,-21.680246353149414,21.68204689025879, -22.17108917236328
450,98809020,0.035411667,0.90250653,-0.025253192,0.42847452,5.736355781555176,0.028847821056842804,3.350203514099121,-24.468687057495117,60.4600830078125, -20.158241271972656
451,98825687,0.03965998,0.8961647,-0.022990244,0.44134748,5.600995063781738,0.4353160262107849,2.834199905395508,-19.81106948852539,98.90460968017578, -22.593252182006836
452,98842354,0.046389226,0.88694376,-0.022620248,0.45898518,5.4219970703125,0.43420350551605225,2.2092504501342773,-40.87157440185547,136.8638916015625, -16.70660400390625
453,98859021,0.054453492,0.8747671,-0.025062652,0.48082143,5.523539066314697,-0.19569022953510284,2.0059659481048584,-58.17893600463867,171.10208129882812, -1.9743006229400635
454,98875688,0.06316856,0.85955954,-0.029659892,0.5062484,5.6948347091674805,-0.4074763059616089,1.3799991607666016,-69.73771667480469,202.0258026123047, 10.692805290222168
455,98892355,0.0696022,0.8415941,-0.034857903,0.53447163,6.491710662841797,-1.1348419189453125,0.7141879796981812,-58.97615051269531,227.428955078125, 23.95302391052246
456,98909022,0.07343232,0.8208539,-0.039971035,0.56498575,7.431838035583496,-0.6751007437705994,0.008610695600509644,-44.38130569458008,250.30685424804688, 34.78055953979492
457,98925689,0.075688936,0.7969005,-0.04488287,0.5976675,8.573442459106445,-0.5703214406967163,-0.514153778553009,-35.74891662597656,274.7084045410156, 41.72840118408203
458,98942356,0.07577706,0.76950943,-0.048907492,0.63223517,9.994139671325684,-0.17746399343013763,-0.8222932815551758,-21.428781509399414,298.983642578125, 47.816959381103516
459,98959023,0.074652046,0.7382105,-0.052513544,0.66836727,12.149144172668457,-0.2488018274307251,-1.0562491416931152,-14.702216148376465,324.0898742675781, 53.00617599487305
460,98975690,0.070652165,0.7034358,-0.05417233,0.7051609,14.367170333862305,-0.7344344854354858,-1.9173376560211182,7.300416946411133,343.4156799316406, 57.930904388427734
461,98992357,0.063381605,0.66598755,-0.051928915,0.7414492,16.572927474975586,-0.8453590869903564,-5.023853778839111,40.56300735473633,354.64764404296875, 55.66632080078125
462,99009024,0.051054176,0.6275,-0.04406573,0.7756904,19.59571075439453,0.4141404330730438,-7.091230392456055,91.2087173461914,351.26800537109375, 55.1971321105957
463,99025691,0.03710963,0.5886188,-0.03295817,0.80688596,21.058990478515625,1.3164863586425781,-8.540584564208984,114.43578338623047,340.9404296875, 48.885711669921875
464,99042358,0.02289269,0.55069023,-0.022505945,0.8340922,19.198997497558594,1.0826845169067383,-9.68793773651123,111.23169708251953,319.3474426269531, 51.832054138183594
465,99059025,0.010056519,0.51899225,-0.013566378,0.8546122,16.542211532592773,3.8465967178344727,-12.530967712402344,97.25481414794922,258.3210754394531, 47.629207611083984
466,99075692,0.011815395,0.49426225,-0.021924812,0.868956,11.993501663208008,8.256357192993164,-14.108301162719727,-56.603389739990234,195.5828857421875, 22.53043556213379
467,99092359,0.023529308,0.47931552,-0.04225881,0.8763089,7.542474746704102,3.307673692703247,-19.892587661743164,-162.27615356445312,114.00655364990234, 1.7523117065429688
468,99109026,0.033822954,0.478024,-0.051553622,0.8761801,7.2357635498046875,-4.014273643493652,-20.307931900024414,-91.03812408447266,8.565046310424805, -31.222713470458984
469,99125693,0.039124914,0.4877046,-0.052366864,0.8705581,12.20321273803711,2.2798337936401367,-11.878703117370605,-22.914352416992188,-75.25702667236328, -34.20698928833008
470,99142360,0.04315938,0.49825677,-0.0564238,0.86411464,13.716195106506348,2.0252442359924316,15.936922073364258,-38.14554214477539,-84.4598388671875, -16.258642196655273
471,99159027,0.05268504,0.5062696,-0.068558484,0.8580298,11.886761665344238,-2.9279024600982666,0.8082666993141174,-105.57695007324219,-68.47032928466797, -20.097375869750977
472,99175694,0.0566338,0.51868105,-0.07625988,0.84967476,13.800293922424316,-4.262925148010254,-2.276850461959839,-59.47581100463867,-103.32528686523438, -5.527459144592285
473,99192361,0.061700284,0.53301775,-0.078837164,0.8401608,13.621587753295898,-2.9512712955474854,-1.5376336574554443,-33.3707389831543,-116.08040618896484, -31.80533218383789
474,99209028,0.06285359,0.5495133,-0.0736392,0.82985663,12.280153274536133,-2.4594357013702393,-3.6408920288085938,26.380414962768555,-130.23374938964844, -39.213462829589844
475,99225695,0.06670636,0.567073,-0.06891375,0.8180646,14.137373924255371,5.0160627365112305,-2.2431015968322754,13.194300651550293,-140.722412109375, -54.02789306640625
476,99242362,0.073625796,0.5816926,-0.071121916,0.80694175,10.774295806884766,-0.6297930479049683,0.7402164936065674,-38.810977935791016,-123.2627182006836, -42.50632095336914
477,99259029,0.076467924,0.5949742,-0.070372075,0.7969983,8.935920715332031,1.2618818283081055,-1.1799694299697876,-6.192880630493164,-111.61080169677734, -30.462217330932617
478,99275696,0.07558868,0.6067032,-0.06577833,0.7885879,11.533345222473145,-1.644281029701233,-1.0853391885757446,30.016403198242188,-96.59518432617188, -24.231050491333008
479,99292363,0.07465829,0.61697793,-0.06143548,0.7810188,11.528233528137207,1.4773063659667969,0.3840516209602356,28.495458602905273,-85.3366470336914, -21.82845687866211
480,99309030,0.07981082,0.6243657,-0.06512693,0.7743103,10.360583305358887,1.0512301921844482,0.5355886816978455,-41.57389450073242,-67.73361206054688, -18.74018669128418
481,99325697,0.085298754,0.63046163,-0.06970589,0.7683643,10.515436172485352,-1.0533849000930786,0.38248980045318604,-48.10830307006836,-57.92069625854492, -15.705649375915527
482,99342364,0.088982604,0.63634825,-0.071244635,0.76293355,10.354506492614746,-0.5057494044303894,0.3913533091545105,-24.10200309753418,-53.66419982910156, -18.95343780517578
483,99359031,0.09193898,0.6417721,-0.07207581,0.7579454,10.143683433532715,0.48619744181632996,0.32878151535987854,-17.27461814880371,-49.22444152832031, -17.73773765563965
484,99375698,0.09378708,0.6468879,-0.07266078,0.7533,9.868316650390625,0.470849871635437,0.17643798887729645,-11.127201080322266,-46.50209426879883, -12.675745010375977
485,99392365,0.09500589,0.6517919,-0.07305009,0.7488693,9.918341636657715,0.4054538905620575,0.5068937540054321,-7.344933032989502,-44.63951110839844, -10.040331840515137
486,99409032,0.09619067,0.656469,-0.07365246,0.7445612,9.817304611206055,0.5201772451400757,0.8080399632453918,-8.376256942749023,-43.08240509033203, -8.715052604675293
487,99425699,0.09796173,0.6608469,-0.074911855,0.74031997,9.668068885803223,0.5465584397315979,0.7652496099472046,-14.549715042114258,-41.393714904785156, -8.552895545959473
488,99442366,0.10028848,0.6652049,-0.07672362,0.73590666,9.548894882202148,0.11815328896045685,1.01175856590271,-19.988000869750977,-42.167823791503906, -8.973671913146973
489,99459033,0.10191818,0.6700301,-0.07757263,0.7312013,9.564526557922363,-0.12251591682434082,0.7945335507392883,-11.760448455810547,-45.582435607910156, -10.298117637634277
490,99475700,0.103071235,0.6753005,-0.07772553,0.7261575,9.593743324279785,0.24306489527225494,0.5741972923278809,-5.9327616691589355,-49.15425109863281, -11.586137771606445
491,99492367,0.10412289,0.68074065,-0.07787024,0.72089326,9.582562446594238,0.44880518317222595,0.28103500604629517,-5.418482780456543,-51.08103942871094, -11.365886688232422
492,99509034,0.105218284,0.6862784,-0.07808007,0.7154404,9.639705657958984,0.5797332525253296,-0.04947647452354431,-5.976963996887207,-52.47756576538086, -11.464887619018555
493,99525701,0.106244065,0.69177115,-0.07827182,0.7099569,9.727953910827637,0.4247111678123474,-0.3447398543357849,-5.6082658767700195,-52.42865753173828, -11.204429626464844
494,99542368,0.10702463,0.6973266,-0.07829904,0.70438,9.744187355041504,0.22559016942977905,-0.31742849946022034,-3.6432907581329346,-53.193695068359375, -10.892603874206543
495,99559035,0.10800388,0.7029278,-0.07794806,0.69867885,10.478007316589355,0.29759150743484497,-0.7068025469779968,-2.7969882488250732,-53.62966537475586, -13.786121368408203
496,99575702,0.10939629,0.7089998,-0.077445954,0.6923541,9.707085609436035,0.6087571978569031,-0.49613165855407715,-4.052788734436035,-58.577049255371094, -17.219770431518555
497,99592369,0.110601395,0.71552646,-0.0769108,0.68547356,9.640449523925781,0.7921321988105774,-0.41216570138931274,-2.936694622039795,-63.534141540527344, -17.15007781982422
498,99609036,0.111354575,0.7226245,-0.07573427,0.677996,9.594057083129883,1.1168686151504517,-0.37242019176483154,2.4286465644836426,-68.92729949951172, -18.9321346282959
499,99625703,0.11168488,0.7300724,-0.074508354,0.67005205,9.567362785339355,1.0908876657485962,-0.9377589821815491,4.7853617668151855,-73.07291412353516, -17.74452781677246
500,99642370,0.111597404,0.7376331,-0.07370892,0.66182375,9.706429481506348,1.0208748579025269,-1.105048656463623,4.859734058380127,-75.57403564453125, -13.955307960510254
501,99659037,0.1109999,0.74515843,-0.07351399,0.65346307,9.882062911987305,0.9718624353408813,-1.403201937675476,4.6032562255859375,-76.81925964355469, -8.653162956237793
502,99675704,0.10998035,0.7526538,-0.07338082,0.64500576,9.898005485534668,0.8413721323013306,-1.5680638551712036,6.418519496917725,-77.45392608642578, -6.501486778259277
503,99692371,0.108771645,0.7601565,-0.07255426,0.6364488,9.796085357666016,0.592146635055542,-1.857940435409546,10.430096626281738,-77.58676147460938, -9.333625793457031
504,99709038,0.10687001,0.7681262,-0.07030448,0.6273903,10.405077934265137,0.7396275401115417,-1.460962176322937,20.379337310791016,-81.5461654663086, -14.354315757751465
505,99725705,0.103773214,0.7765782,-0.06779317,0.6177071,11.354045867919922,1.1881122589111328,-1.2006940841674805,27.873777389526367,-87.33074188232422, -11.279250144958496
506,99742372,0.09901014,0.7854498,-0.065721154,0.6074097,13.664345741271973,2.2086422443389893,0.0853094607591629,34.921661376953125,-93.50585174560547, -2.495327949523926
507,99759039,0.093362205,0.79504824,-0.064279705,0.59586096,14.454806327819824,-0.7936326265335083,0.18688927590847015,37.00323486328125,-104.16853332519531, 3.4263010025024414
508,99775706,0.087084055,0.80575913,-0.06321143,0.582386,15.74081039428711,-1.8511101007461548,1.068132996559143,38.78435134887695,-119.81977081298828, 6.299290657043457
509,99792373,0.079054035,0.8179474,-0.062469743,0.56640124,16.751195907592773,-2.0426430702209473,1.9047365188598633,46.97576904296875,-140.6571807861328, 12.951491355895996
510,99809040,0.07547938,0.83109826,-0.06090307,0.5476037,19.28530502319336,-0.8158053159713745,4.214315891265869,24.443134307861328,-157.93312072753906, -11.008206367492676
511,99825707,0.07397356,0.8435022,-0.059571065,0.528662,23.03069496154785,-2.097355365753174,4.102627277374268,11.288614273071289,-155.29458618164062, -17.234777450561523
512,99842374,0.07034935,0.85651994,-0.05767236,0.5080343,19.920507431030273,-1.226832628250122,4.962193012237549,25.25111961364746,-167.99557495117188, -13.954715728759766
513,99859041,0.06917989,0.86875117,-0.05843376,0.4868998,18.16893768310547,-3.0750036239624023,4.351426601409912,0.917110025882721,-168.65060424804688, -6.811984539031982
514,99875708,0.054835632,0.87999195,-0.054013506,0.46871114,13.65684986114502,-1.3808856010437012,2.0553600788116455,97.66818237304688,-150.66549682617188, 8.119848251342773
515,99892375,0.03590266,0.89104664,-0.046177447,0.45012763,11.728353500366211,5.606260299682617,-2.750257730484009,136.22215270996094,-152.94090270996094, 2.161102533340454
516,99909042,0.026335416,0.8997216,-0.041611966,0.43367743,10.711061477661133,4.198691368103027,-4.6018595695495605,68.82254791259766,-130.3515167236328, -5.462940216064453
517,99925709,0.016140545,0.906108,-0.034657996,0.42131576,8.435781478881836,1.2357888221740723,-1.656114935874939,80.60421752929688,-97.98822021484375, -16.943510055541992
518,99942376,0.0050969087,0.9090116,-0.024924168,0.41599414,8.199275970458984,1.680483341217041,7.716202259063721,95.23680114746094,-43.94916915893555, -30.172060012817383
519,99959043,0.0015317806,0.9085735,-0.01858211,0.4173091,5.711828708648682,0.4459402561187744,5.6136040687561035,39.82781219482422,8.177215576171875, -29.543357849121094
520,99975710,0.0010718772,0.9059049,-0.014802879,0.42322177,4.8666253089904785,-0.4777161777019501,2.436819553375244,13.640020370483398,43.62190246582031, -22.101001739501953
521,99992377,0.0017009657,0.90105194,-0.010816236,0.4335735,5.767511367797852,1.1682771444320679,2.4058356285095215,7.900035858154297,77.7190170288086, -26.31279945373535
522,100009044,0.007783844,0.89345604,-0.008845987,0.44899645,6.6114654541015625,1.223951816558838,2.7462503910064697,-31.54834747314453,117.67406463623047, -29.81124496459961
523,100025711,0.01921298,0.8829866,-0.010585585,0.46888596,6.921103477478027,1.0306901931762695,2.332857608795166,-75.72440338134766,154.08865356445312, -23.114551544189453
524,100042378,0.036159392,0.86904454,-0.01647751,0.49313575,6.897485256195068,1.110579490661621,1.4437586069107056,-122.75662994384766,191.59864807128906, -14.875199317932129
525,100059045,0.055040002,0.8517913,-0.025803506,0.52034277,7.109192371368408,-0.6582845449447632,0.5399314165115356,-146.456298828125,219.86012268066406, 0.18247774243354797
526,100075712,0.071199425,0.83160824,-0.035976313,0.5496038,7.919028282165527,-0.95415860414505,0.10743343830108643,-134.2992706298828,241.56919860839844, 16.148962020874023
527,100092379,0.0847383,0.8081076,-0.04642887,0.5810562,8.544276237487793,-1.1787693500518799,-0.6635110378265381,-121.46167755126953,265.8592834472656, 29.519039154052734
528,100109046,0.092855066,0.7817924,-0.05529548,0.61410207,9.639843940734863,-2.1039953231811523,-1.2671046257019043,-86.12830352783203,285.1643371582031, 44.17357635498047
529,100125713,0.09550169,0.75285906,-0.061268818,0.648328,10.849580764770508,-1.600420594215393,-1.004932165145874,-45.72687530517578,302.3504333496094, 53.4437141418457
530,100142380,0.092632025,0.7217687,-0.06333615,0.68297744,12.708503723144531,-1.292035460472107,-1.7889418601989746,-0.9880077838897705,314.420654296875, 58.98843765258789
531,100159047,0.08640482,0.6882389,-0.06252808,0.7176014,15.40734577178955,-0.028875092044472694,-3.0484671592712402,27.62108039855957,326.1540832519531, 61.527992248535156
532,100175714,0.07808526,0.652284,-0.059135873,0.75161916,17.246816635131836,-0.33960196375846863,-4.714676856994629,48.58000946044922,335.93896484375, 60.314388275146484
533,100192381,0.06620522,0.6149125,-0.050790317,0.7841686,17.78675079345703,-0.5235024690628052,-6.62692928314209,88.80751037597656,337.9570617675781, 56.29676818847656
534,100209048,0.05120663,0.57772756,-0.03835302,0.81371874,18.90338134765625,1.0817168951034546,-7.692954063415527,123.10689544677734,325.1255187988281, 54.39228439331055
535,100225715,0.04021047,0.54248047,-0.030971907,0.8385338,17.20368194580078,3.643024444580078,-9.079842567443848,78.32721710205078,294.8169860839844, 49.919368743896484
536,100242382,0.034772,0.51139385,-0.032948654,0.8580103,14.76732063293457,1.5411126613616943,-10.51816463470459,3.626197338104248,249.59637451171875, 50.443965911865234
537,100259049,0.033921942,0.48827693,-0.042012226,0.87101674,12.687321662902832,4.456634998321533,-11.469578742980957,-53.884769439697266,179.2754669189453, 44.94960403442383
538,100275716,0.043284625,0.473613,-0.061036915,0.877549,6.878866195678711,7.358068466186523,-16.1884822845459,-147.74488830566406,107.66446685791016, 13.310888290405273
539,100292383,0.055151373,0.46882796,-0.074273504,0.8784318,7.760564804077148,-1.98842453956604,-17.927793502807617,-120.42157745361328,32.55982208251953, -26.415760040283203
540,100309050,0.058145203,0.47605026,-0.071606934,0.8745675,9.762686729431152,1.060550570487976,-12.042353630065918,6.377529144287109,-53.618629455566406, -32.021339416503906
541,100325717,0.059765235,0.48851845,-0.06915991,0.8677528,12.37669563293457,5.910390853881836,-3.205796718597412,10.198420524597168,-95.4724349975586, -26.79500389099121
542,100342384,0.065730296,0.49553192,-0.07533404,0.86281663,13.784639358520508,2.5755648612976074,16.463607788085938,-57.20240020751953,-58.03366470336914, -20.348398208618164
543,100359051,0.06983957,0.50601083,-0.083038285,0.8556753,13.730918884277344,-5.024321556091309,-3.445958375930786,-59.54890441894531,-87.83431243896484, -6.889219760894775
544,100375718,0.07651297,0.5186378,-0.08976011,0.8468198,13.527201652526855,-2.4027440547943115,-2.1866533756256104,-62.61627960205078,-104.43888092041016, -27.46148681640625
545,100392385,0.08279097,0.53278255,-0.093723424,0.8369615,13.92159366607666,-6.899636745452881,-1.5148470401763916,-44.95662307739258,-115.59571075439453, -36.46177291870117
546,100409052,0.08096019,0.5514809,-0.08152503,0.8262374,11.659055709838867,3.996427536010742,-6.113422393798828,79.81105041503906,-140.9582977294922, -52.47875213623047
547,100425719,0.09025478,0.5673285,-0.08361084,0.8142494,15.774795532226562,-0.2806069552898407,0.7205113172531128,-45.8406867980957,-131.1976776123047, -60.5944938659668
548,100442386,0.095352024,0.5820002,-0.083152264,0.80328673,8.220175743103027,2.0489988327026367,-0.04555273801088333,-15.368033409118652,-121.42215728759766, -45.699302673339844
549,100459053,0.09913883,0.59394425,-0.082457095,0.7941051,9.617508888244629,-1.0981909036636353,-1.3666088581085205,-9.595697402954102,-99.81739807128906, -36.66276168823242
550,100475720,0.09571083,0.60571086,-0.07356079,0.786475,12.02531623840332,-0.6629926562309265,-0.7476781606674194,65.40384674072266,-90.99415588378906, -29.619054794311523
551,100492387,0.09661002,0.6144415,-0.07054273,0.7798411,11.54287052154541,2.4237897396087646,0.7833345532417297,14.09949779510498,-72.0873031616211, -26.361221313476562
552,100509054,0.101835534,0.62023586,-0.073459096,0.7743005,10.365686416625977,0.09797732532024384,0.4982701241970062,-37.423465728759766,-53.568206787109375, -22.318317413330078
553,100525721,0.10575769,0.6252689,-0.07469007,0.76959467,10.444223403930664,-1.0710573196411133,0.19707909226417542,-23.006738662719727,-45.43508529663086, -21.59345245361328
554,100542388,0.107763536,0.6301914,-0.07274342,0.7654766,10.596437454223633,-0.4506128132343292,0.5202204585075378,2.2662107944488525,-40.996299743652344, -24.639768600463867
555,100559055,0.109683044,0.6344297,-0.07051851,0.7619029,10.174230575561523,0.6041429042816162,0.850430965423584,3.8669333457946777,-34.875282287597656, -24.653827667236328
556,100575722,0.11130971,0.6379916,-0.068585135,0.75886303,9.829341888427734,0.8462576866149902,0.7116481065750122,3.362457036972046,-29.371585845947266, -21.118162155151367
557,100592389,0.11163006,0.64172935,-0.066012636,0.75588673,9.73967456817627,1.0518474578857422,0.6946389079093933,12.588285446166992,-30.141948699951172, -17.1402530670166
558,100609056,0.111682236,0.6455452,-0.06383695,0.7528105,9.430588722229004,1.2059268951416016,0.7129647135734558,11.721482276916504,-31.420331954956055, -14.107477188110352
559,100625723,0.11275452,0.6492459,-0.06345664,0.7494929,9.409252166748047,1.2203460931777954,0.8278952836990356,-2.2948179244995117,-32.832786560058594, -11.550312995910645
560,100642390,0.11411051,0.65331244,-0.06378512,0.7457168,9.437231063842773,0.4709679186344147,0.9528624415397644,-7.131101131439209,-37.19747543334961, -10.35815143585205
561,100659057,0.11460968,0.65813595,-0.06300705,0.7414527,9.39066219329834,0.5866900086402893,1.6890144348144531,2.770500421524048,-42.78782653808594, -11.652336120605469
562,100675724,0.11534632,0.6634193,-0.062293407,0.73667496,9.368585586547852,0.9370335340499878,1.1893973350524902,1.5080053806304932,-47.42134094238281, -13.177154541015625
563,100692391,0.11656126,0.66895896,-0.062040996,0.7314771,9.472954750061035,1.0646413564682007,0.8721198439598083,-2.986572504043579,-50.808563232421875, -13.936939239501953
564,100709058,0.118216924,0.67456603,-0.062228106,0.7260257,9.619990348815918,0.7981339693069458,0.3214637339115143,-7.278425693511963,-52.48805618286133, -14.360679626464844
565,100725725,0.11986417,0.68024075,-0.062369104,0.72042733,9.644428253173828,0.8607839941978455,0.023821882903575897,-7.0167412757873535,-53.47993469238281, -14.679683685302734
566,100742392,0.12132082,0.6859958,-0.06228833,0.7147107,9.53056812286377,0.9017404913902283,-0.3280313313007355,-5.012089729309082,-54.33602523803711, -14.903876304626465
567,100759059,0.12281016,0.6917438,-0.062362023,0.70888627,9.551441192626953,0.9558835029602051,-0.6139687299728394,-5.977509498596191,-54.92946243286133, -14.421934127807617
568,100775726,0.12452345,0.6974727,-0.06239482,0.7029458,10.249144554138184,0.8795979022979736,-0.6518788933753967,-6.909427165985107,-55.26304626464844, -15.797215461730957
569,100792393,0.12807174,0.70329607,-0.06268468,0.6964505,9.910942077636719,1.0507228374481201,0.03515702486038208,-17.109333038330078,-57.82133483886719, -23.948654174804688
570,100809060,0.13108698,0.70976436,-0.0625212,0.6893055,9.852060317993164,1.3466129302978516,0.42404019832611084,-12.073801040649414,-63.89875030517578, -24.437028884887695
571,100825727,0.13336454,0.71674037,-0.06269241,0.6815916,9.919352531433105,1.361925482749939,-0.2699195146560669,-9.845924377441406,-69.72303009033203, -20.03660011291504
572,100842394,0.13497671,0.7240227,-0.06268785,0.6735302,9.802176475524902,1.1013191938400269,-0.7295821905136108,-5.610894680023193,-73.0137939453125, -18.233930587768555
573,100859061,0.13601099,0.7316084,-0.062590554,0.66508114,9.8600435256958,1.3692193031311035,-0.8573432564735413,-2.1882429122924805,-76.52750396728516, -16.512353897094727
574,100875728,0.13651742,0.7393028,-0.06288024,0.6563846,9.95544147491455,1.5977418422698975,-1.029691457748413,-1.3050605058670044,-78.87520599365234, -12.431236267089844
575,100892395,0.13685185,0.7473217,-0.06297231,0.64716035,9.708366394042969,1.1956409215927124,-1.2281545400619507,0.5407679080963135,-82.9276351928711, -13.2949857711792
576,100909062,0.13617417,0.75627697,-0.06168607,0.6369433,10.519871711730957,1.0790294408798218,-0.726029634475708,12.327754974365234,-91.35301971435547, -17.217567443847656
577,100925729,0.13141313,0.76666486,-0.058829844,0.62569547,12.136216163635254,0.5322150588035583,-0.9603553414344788,41.344974517822266,-103.27456665039062, -9.081573486328125
578,100942396,0.12579963,0.77744013,-0.0563852,0.61366296,14.047677993774414,2.127694606781006,0.9931520223617554,44.10472106933594,-109.82047271728516, -4.127933502197266
579,100959063,0.120186,0.78887,-0.0545289,0.60022175,14.676462173461914,-1.0885361433029175,0.4579511284828186,41.6525764465332,-120.6717300415039, -2.4606122970581055
580,100975730,0.111937,0.8014518,-0.052241318,0.58516335,16.27159309387207,-3.191314220428467,0.8815205097198486,58.07569885253906,-134.8817138671875, 4.274937152862549
581,100992397,0.101735055,0.8150711,-0.04951018,0.568206,18.239131927490234,-2.983271360397339,3.193164110183716,70.73587799072266,-149.9457550048828, 7.8043904304504395
582,101009064,0.09422118,0.827893,-0.04662323,0.5509463,22.17615509033203,-3.74216890335083,4.811739921569824,55.61412048339844,-147.59121704101562, -3.5566229820251465
583,101025731,0.087244205,0.8405859,-0.042481594,0.532916,21.341232299804688,-3.4293019771575928,5.677045822143555,56.97161865234375,-150.62681579589844, -13.239949226379395
584,101042398,0.07833361,0.85434383,-0.037467245,0.5124032,19.417848587036133,-0.7543635368347168,5.289319038391113,71.25153350830078,-169.05458068847656, -13.039608001708984
585,101059065,0.07236232,0.8671886,-0.03523253,0.49143332,16.02722930908203,-1.037089228630066,4.1029372215271,43.5782470703125,-169.38150024414062, -7.090372085571289
586,101075732,0.05699921,0.87985647,-0.031067973,0.4707853,13.798506736755371,1.3096599578857422,-0.9956022500991821,106.08888244628906,-168.28616333007812, 13.334794998168945
587,101092399,0.040478952,0.89067966,-0.026787683,0.4520333,12.593918800354004,5.177249908447266,-2.606388568878174,113.14575958251953,-151.09519958496094, 17.534452438354492
588,101109066,0.030551001,0.8987777,-0.022690142,0.4367503,10.36899471282959,5.270809650421143,-4.122645378112793,72.10054016113281,-120.24452209472656, -0.3252141773700714
589,101125733,0.02183924,0.90456134,-0.016734911,0.4254549,9.587360382080078,2.1069459915161133,1.1269466876983643,70.32361602783203,-88.08453369140625, -14.216577529907227
590,101142400,0.017079983,0.90661776,-0.011495014,0.4214508,8.475208282470703,0.7254348397254944,7.716296195983887,43.94009780883789,-31.534467697143555, -19.786273956298828
591,101159067,0.012139119,0.90620893,-0.006981368,0.4225984,4.964846611022949,0.750773012638092,4.90811014175415,43.09333801269531,7.534397125244141, -13.923089981079102
592,101175734,0.012090665,0.9033172,-0.0050909114,0.4287729,4.990631580352783,1.5679594278335571,2.6733903884887695,5.029419898986816,46.03981399536133, -11.247227668762207
593,101192401,0.015060887,0.8978316,-0.0053262264,0.44004935,5.354731559753418,0.4834231734275818,2.728060483932495,-20.013208389282227,85.27508544921875, -6.420560836791992
594,101209068,0.019753097,0.88965553,-0.0070411456,0.45615065,5.401029109954834,0.8333110809326172,2.744102954864502,-35.220157623291016,123.08329010009766, -1.900904893875122
595,101225735,0.027904712,0.87839144,-0.011594387,0.4769861,5.718353748321533,1.3982536792755127,1.8763307332992554,-65.4732666015625,161.48887634277344, 5.3997673988342285
596,101242402,0.039091587,0.8637597,-0.01916677,0.50202006,6.095989227294922,1.2720692157745361,1.1996877193450928,-94.02143096923828,197.54544067382812, 14.749388694763184
597,101259069,0.052178606,0.8456281,-0.02942559,0.53040075,7.226873874664307,0.7462114095687866,0.5825505256652832,-115.08808898925781,229.0328369140625, 25.49798583984375
598,101275736,0.06532919,0.82399625,-0.041353267,0.5612953,8.004365921020508,-0.005012333858758211,-0.08565208315849304,-122.30084991455078,255.83340454101562, 36.564876556396484
599,101292403,0.0760879,0.7991772,-0.053702805,0.59383726,8.455175399780273,-0.5953266024589539,-0.8939216136932373,-111.34762573242188,276.60699462890625, 49.812767028808594
600,101309070,0.08109161,0.7722671,-0.063592866,0.62688434,9.599417686462402,-0.1985507607460022,-0.8904596567153931,-70.58708190917969,287.0904235839844, 60.81252670288086
601,101325737,0.082730815,0.742721,-0.07201978,0.6605561,11.746968269348145,1.5256034135818481,-1.0405151844024658,-47.61266326904297,301.1324768066406, 69.03645324707031
602,101342404,0.082932904,0.7105171,-0.079925835,0.69419,12.935450553894043,0.4651755094528198,-2.5661869049072266,-39.441349029541016,312.62091064453125, 74.20612335205078
603,101359071,0.07827543,0.6758662,-0.083803535,0.72804904,14.639812469482422,-0.3183565139770508,-4.402897357940674,2.2619881629943848,325.0730895996094, 79.20000457763672
604,101375738,0.06860353,0.6393343,-0.08220394,0.7614381,17.489818572998047,0.7064179182052612,-5.255337238311768,51.71363830566406,332.4336853027344, 79.68655395507812
605,101392405,0.05509851,0.6023006,-0.07629199,0.7927031,19.385663986206055,1.5237433910369873,-7.238925457000732,89.71449279785156,325.6703796386719, 80.10262298583984
606,101409072,0.04354975,0.56574273,-0.06677863,0.82071894,17.175020217895508,9.545435905456543,-5.470542907714844,99.71416473388672,312.1090087890625, 53.06471633911133
607,101425739,0.043936845,0.5292626,-0.06606455,0.84474057,17.177108764648438,4.961822032928467,-9.227603912353516,1.7562614679336548,299.0599670410156, 18.779701232910156
608,101442406,0.04362417,0.498133,-0.0608583,0.8638617,14.773908615112305,0.8230041265487671,-12.21090316772461,29.77202606201172,251.2993621826172, 2.6251964569091797
609,101459073,0.043662064,0.4749796,-0.052686483,0.87733257,11.507763862609863,2.679769992828369,-14.724839210510254,46.20869827270508,185.74252319335938, -14.64067268371582
610,101475740,0.048255626,0.46297547,-0.05014407,0.8836351,8.552816390991211,3.7045798301696777,-17.847747802734375,-1.8901170492172241,95.19012451171875, -29.907127380371094
611,101492407,0.055766836,0.46285737,-0.054895956,0.88297224,7.501658916473389,1.668554425239563,-17.49894905090332,-53.96527099609375,-0.43780383467674255, -30.792428970336914
612,101509074,0.06295803,0.47276732,-0.06085938,0.87682587,9.025367736816406,-0.21290826797485352,-16.16025733947754,-58.53059005737305,-79.1943359375, -30.860334396362305
613,101525741,0.06904622,0.486201,-0.0638783,0.8687699,13.304348945617676,2.8822855949401855,4.301882266998291,-36.460784912109375,-105.67866516113281, -36.0721549987793
614,101542408,0.081468,0.49058813,-0.07902802,0.8639684,14.779556274414062,-4.233881950378418,23.118560791015625,-132.97860717773438,-43.7296257019043, -27.792556762695312
615,101559075,0.089018226,0.4982845,-0.09466061,0.8572211,12.264425277709961,-9.132638931274414,-5.760049819946289,-118.60454559326172,-73.00909423828125, -0.12137406319379807
616,101575742,0.093065985,0.5099639,-0.09967598,0.8493178,13.261723518371582,-5.059225082397461,-3.7048215866088867,-42.29292678833008,-96.13905334472656, -19.202856063842773
617,101592409,0.09416146,0.5248777,-0.09534464,0.84056324,15.281188011169434,-6.3387227058410645,-1.2858242988586426,24.148664474487305,-113.98114776611328, -37.52809143066406
618,101609076,0.08961855,0.5426685,-0.08118322,0.83119726,11.19951057434082,3.7042977809906006,-3.6986403465270996,102.79534912109375,-130.09336853027344, -42.759910583496094
619,101625743,0.09772846,0.55777854,-0.08197124,0.82013005,15.038900375366211,5.889866352081299,-0.5756033062934875,-32.48103332519531,-123.20272064208984, -58.817047119140625
620,101642410,0.10457091,0.5713233,-0.0857458,0.8095077,10.516162872314453,-2.766216278076172,-0.03454527258872986,-45.288211822509766,-115.34870147705078, -38.971275329589844
621,101659077,0.103529066,0.5854353,-0.08058708,0.8000334,8.728129386901855,0.318640798330307,-0.04390634596347809,36.49559020996094,-112.20454406738281, -29.71118927001953
622,101675744,0.09801879,0.5987088,-0.070287034,0.7918334,10.728283882141113,0.4917398691177368,0.3140556812286377,82.87075805664062,-101.26901245117188, -24.469236373901367
623,101692411,0.09668181,0.609226,-0.065483175,0.7843524,11.410999298095703,2.875514507293701,0.8944827318191528,34.252113342285156,-84.9756851196289, -22.761016845703125
624,101709078,0.10271549,0.6162384,-0.070209846,0.77767,10.012206077575684,1.5190223455429077,0.8173329830169678,-49.997314453125,-65.7430419921875, -20.454309463500977
625,101725745,0.10780327,0.6222757,-0.074272804,0.77177405,10.5615873336792,-0.32740068435668945,0.2806221544742584,-42.75346374511719,-57.188453674316406, -17.16004180908203
626,101742412,0.11150704,0.62773484,-0.07624039,0.7666178,10.444931030273438,-0.43155428767204285,0.14232237637043,-25.764196395874023,-50.10707473754883, -17.935091018676758
627,101759079,0.11306923,0.6329285,-0.075306006,0.76219845,10.208173751831055,-0.3250853419303894,0.38495612144470215,-1.0439180135726929,-44.42209243774414, -18.472810745239258
628,101775746,0.11394715,0.63755226,-0.073502764,0.7583804,10.014961242675781,0.47876715660095215,0.6379628777503967,6.354186058044434,-38.499305725097656, -17.91446876525879
629,101792413,0.11494498,0.6417617,-0.072343946,0.75478226,9.904279708862305,0.9177649617195129,0.4958629012107849,2.252795934677124,-35.82350540161133, -15.335199356079102
630,101809080,0.115791775,0.64569086,-0.07168031,0.7513574,9.745548248291016,0.867469847202301,0.48909300565719604,0.21177317202091217,-34.07296371459961, -12.087329864501953
631,101825747,0.11624387,0.6497761,-0.07110446,0.7478121,9.553245544433594,0.8482252955436707,0.8554048538208008,1.573952555656433,-35.682037353515625, -9.82947063446045
632,101842414,0.11718316,0.6540523,-0.071526445,0.7438869,9.696470260620117,1.0524530410766602,0.8432400226593018,-5.765976428985596,-38.93016815185547, -8.271361351013184
633,101859081,0.11815173,0.6584018,-0.07243315,0.73979807,9.705595970153809,0.6914567947387695,0.6497697830200195,-8.398815155029297,-40.42610549926758, -6.404046535491943
634,101875748,0.11892236,0.6631175,-0.0729841,0.73539543,9.27761173248291,0.7883012294769287,0.8340315818786621,-5.550835609436035,-43.5278434753418, -7.443179130554199
635,101892415,0.11970784,0.66814697,-0.07332116,0.7306669,9.293266296386719,1.1580201387405396,0.8064327836036682,-4.443236827850342,-46.42793655395508, -8.915032386779785
636,101909082,0.12109416,0.6732976,-0.074367255,0.72558695,9.471373558044434,1.2052345275878906,0.7795755863189697,-10.841787338256836,-48.942501068115234, -9.019991874694824
637,101925749,0.12294747,0.6785124,-0.07613028,0.72021496,9.702115058898926,0.4130343198776245,0.40353500843048096,-16.675113677978516,-50.98643112182617, -8.29879093170166
638,101942416,0.124305695,0.68400705,-0.07726019,0.7146423,9.975260734558105,-0.20412442088127136,-0.15103329718112946,-11.096805572509766,-53.046749114990234, -9.11811351776123
639,101959083,0.12481089,0.6898757,-0.07699682,0.70891863,9.721110343933105,0.32668250799179077,-0.22525599598884583,0.001210213522426784,-54.865718841552734, -11.816755294799805
640,101975750,0.12521234,0.6959158,-0.07657439,0.70296496,10.049560546875,0.9948984384536743,-0.2830047607421875,1.294628381729126,-56.72154235839844, -12.360015869140625
641,101992417,0.12711567,0.7020174,-0.07743025,0.6964323,9.947062492370605,1.0709537267684937,-0.20676207542419434,-12.319750785827637,-60.113101959228516, -14.032315254211426
642,102009084,0.12857956,0.7087697,-0.07864664,0.68915015,9.910404205322266,0.7593050003051758,-0.0566113106906414,-11.754263877868652,-67.41293334960938, -11.186624526977539
643,102025751,0.12902893,0.716452,-0.07909991,0.68102235,9.881132125854492,0.556894838809967,-0.40718910098075867,-2.826932191848755,-75.83528137207031, -11.350566864013672
644,102042418,0.1289243,0.7247475,-0.07908736,0.6722091,9.81013298034668,0.7746008038520813,-0.7035008072853088,2.256962299346924,-81.9911880493164, -11.99884033203125
645,102059085,0.1284963,0.7332667,-0.07975766,0.6629085,9.969874382019043,1.2421817779541016,-1.0186728239059448,0.6493439674377441,-86.25450897216797, -7.659782409667969
646,102075752,0.12785226,0.74188834,-0.08015238,0.6533233,9.589653968811035,1.1828546524047852,-1.3546979427337646,2.932523727416992,-88.04985046386719, -8.37218952178955
647,102092419,0.12649071,0.7511023,-0.07908226,0.643111,9.9216947555542,1.2821322679519653,-1.5488770008087158,13.351318359375,-93.03407287597656, -13.500728607177734
648,102109086,0.123344086,0.76093054,-0.07704231,0.6323258,10.542335510253906,1.3349332809448242,-1.4028611183166504,27.085041046142578,-98.853759765625, -11.452174186706543
649,102125753,0.11810613,0.7707968,-0.07460386,0.6215771,12.924079895019531,1.588271975517273,-0.4618297815322876,39.81606674194336,-99.6196060180664, -4.4406538009643555
650,102142420,0.112192445,0.78065246,-0.073631525,0.6103879,13.936716079711914,0.48424574732780457,0.1816631555557251,36.90499496459961,-103.48790740966797, 5.857751846313477
651,102159087,0.106098644,0.7908303,-0.07311672,0.5983183,14.418479919433594,-1.7912826538085938,0.259676992893219,35.76105499267578,-110.06366729736328, 8.209342956542969
652,102175754,0.09794833,0.8024634,-0.07259236,0.5841142,15.667582511901855,-1.4756758213043213,1.7336633205413818,46.97357940673828,-128.7449493408203, 14.289058685302734
653,102192421,0.09406269,0.81507045,-0.07317408,0.56697285,17.817930221557617,-0.4434221088886261,3.7760183811187744,18.190780639648438,-147.5636749267578, 0.7662315964698792
654,102209088,0.09216102,0.82781506,-0.07345318,0.5484831,21.917659759521484,-2.35518479347229,4.381743907928467,7.664885520935059,-154.58013916015625, -9.626351356506348
655,102225755,0.088556536,0.8402407,-0.071771905,0.53009653,21.128185272216797,-1.787133812904358,6.481321811676025,24.595291137695312,-152.5492706298828, -14.177127838134766
656,102242422,0.08583976,0.85177463,-0.06985121,0.5120867,18.156536102294922,-0.910846471786499,4.359344959259033,19.978696823120117,-146.70172119140625, -18.158994674682617
657,102259089,0.07870226,0.8645318,-0.0674425,0.491775,15.922904968261719,-3.8619961738586426,1.6720829010009766,47.20314025878906,-166.4614715576172, -7.417184352874756
658,102275756,0.05853544,0.8778598,-0.05924848,0.47162053,13.017468452453613,2.9224143028259277,-2.998399496078491,144.59091186523438,-170.47900390625, 2.035050630569458
659,102292423,0.044137962,0.8888762,-0.052179385,0.45302156,12.058856964111328,4.929564952850342,-4.443822383880615,105.82432556152344,-151.7268524169922, -8.283199310302734
660,102309090,0.030681023,0.89809614,-0.0433466,0.43658137,10.34472942352295,3.2673566341400146,-3.6318845748901367,105.82538604736328,-132.08560180664062, -20.64381217956543
661,102325757,0.018336432,0.90408814,-0.032923773,0.42568153,9.723455429077148,2.185300350189209,5.075128555297852,104.71839904785156,-87.53607177734375, -31.634807586669922
662,102342424,0.012234102,0.9066768,-0.025067518,0.42090297,6.7362470626831055,0.18205106258392334,5.905360221862793,59.37520980834961,-38.5289306640625, -32.382144927978516
663,102359091,0.00891264,0.9069344,-0.019547822,0.4207242,5.126806735992432,0.5579732060432434,3.708869457244873,35.878536224365234,-2.9058310985565186, -25.067401885986328
664,102375758,0.01139247,0.90438014,-0.016599031,0.42625317,5.041858196258545,0.7129347324371338,3.410017728805542,-7.131006717681885,41.39064407348633, -25.08486557006836
665,102392425,0.016774366,0.89894587,-0.015426743,0.43746707,4.876556396484375,-0.426022469997406,3.2836389541625977,-29.953466415405273,85.32919311523438, -21.76850128173828
666,102409092,0.024169516,0.89066005,-0.01581728,0.45375165,5.577784061431885,0.5926645994186401,3.251925230026245,-46.89203643798828,125.2428207397461, -17.28950309753418
667,102425759,0.036364432,0.8789709,-0.01939804,0.4750914,6.0651960372924805,1.0592132806777954,2.019317150115967,-86.2562255859375,166.776123046875, -11.526832580566406
668,102442426,0.051784076,0.8638289,-0.026436383,0.50041926,6.640560150146484,0.2771877348423004,0.7535943984985352,-117.37626647949219,201.7047576904297, 0.28049370646476746
669,102459093,0.06768923,0.84539557,-0.036285937,0.52859074,7.695150375366211,-0.5883157253265381,0.0887051373720169,-130.59866333007812,229.0006103515625, 16.895174026489258
670,102475760,0.0813302,0.8238474,-0.046940703,0.5589791,8.307226181030273,-0.5575873255729675,-0.5104274749755859,-121.27074432373047,252.26454162597656, 31.582115173339844
671,102492427,0.09276814,0.7991273,-0.058350936,0.5910881,9.102567672729492,-0.946353554725647,-1.2362284660339355,-112.9236831665039,273.07696533203125, 46.285274505615234
672,102509094,0.09905337,0.77198553,-0.06798602,0.62418354,10.160211563110352,-1.1886818408966064,-1.4639606475830078,-78.54744720458984,287.4167785644531, 59.04499816894531
673,102525761,0.10082859,0.7427132,-0.07485595,0.6577292,11.666064262390137,-0.3957097828388214,-1.1928799152374268,-43.97994613647461,298.74462890625, 65.00089263916016
674,102542428,0.09906697,0.7116026,-0.079015255,0.69106025,12.982645034790039,0.09418323636054993,-1.6538505554199219,-15.04148006439209,306.0417175292969, 67.9412612915039
675,102559095,0.09569542,0.6779389,-0.081700645,0.7242697,15.361284255981445,0.7519245743751526,-3.677980422973633,-1.963638424873352,317.7487487792969, 69.68607330322266
676,102575762,0.08862101,0.64252007,-0.08097607,0.75680745,17.899003982543945,-0.7943674921989441,-5.765938758850098,30.75397300720215,323.5929260253906, 72.79082489013672
677,102592429,0.075339496,0.60760754,-0.072494924,0.7873258,18.308059692382812,-0.21494176983833313,-6.5758891105651855,97.74684143066406,313.40771484375, 69.31907653808594
678,102609096,0.060638245,0.571916,-0.0606218,0.81581885,17.364168167114258,2.892827272415161,-6.701601982116699,120.63817596435547,310.3397216796875, 62.19184494018555
679,102625763,0.049469687,0.5376391,-0.052432504,0.8400881,16.541635513305664,2.2967426776885986,-9.307229995727539,84.8843765258789,285.838134765625, 54.55060958862305
680,102642430,0.042981453,0.5080279,-0.046235435,0.85902435,13.87829303741455,5.993242263793945,-8.473454475402832,55.72023391723633,240.31954956054688, 31.408235549926758
681,102659097,0.044887435,0.48261115,-0.050636265,0.8732169,12.522138595581055,0.7433152198791504,-12.092395782470703,-36.5072021484375,198.65097045898438, 16.168563842773438
682,102675764,0.047843043,0.4671333,-0.051995385,0.88135934,9.32548713684082,3.1897196769714355,-14.748431205749512,-20.762939453125,120.37543487548828, -5.5424065589904785
683,102692431,0.055040788,0.46186927,-0.055575166,0.8834926,7.611318588256836,1.165126085281372,-16.123870849609375,-46.64734649658203,40.15604019165039, -29.70853042602539
684,102709098,0.061254364,0.46666092,-0.060178913,0.8802581,8.170721054077148,0.15639042854309082,-14.37658977508545,-47.99110794067383,-38.546688079833984, -26.33083724975586
685,102725765,0.06611008,0.47891346,-0.06494973,0.87295675,8.638910293579102,1.677391529083252,-13.662412643432617,-43.18413162231445,-97.21279907226562, -22.362445831298828
686,102742432,0.070528984,0.4897852,-0.06630237,0.8664527,15.091628074645996,4.81366491317749,16.11186981201172,-21.506160736083984,-84.77381896972656, -29.988588333129883
687,102759099,0.08439468,0.492443,-0.08285225,0.8622722,12.66287612915039,-3.065886974334717,14.786432266235352,-146.82302856445312,-31.176071166992188, -30.149982452392578
688,102775766,0.08955857,0.50071615,-0.09414251,0.8558038,12.641979217529297,-5.124550819396973,-4.786701202392578,-84.2057113647461,-74.21939849853516, -0.8935515284538269
689,102792433,0.09559004,0.5117504,-0.09957096,0.8479742,14.099573135375977,-4.7623162269592285,-2.6832265853881836,-51.84980010986328,-90.88113403320312, -28.830543518066406
