PacketCounter,SampleTimeFine,Quat_W,Quat_X,Quat_Y,Quat_Z,Acc_X,Acc_Y,Acc_Z,Gyr_X,Gyr_Y,Gyr_Z 
2,63142542,0.66722107,0.120280296,-0.7133083,0.17759535,9.747453689575195,-0.901042640209198,-0.46379387378692627,-1.943286418914795,0.10802794992923737, -0.3490242063999176
3,63159209,0.6671915,0.12023321,-0.7134523,0.17715934,9.738900184631348,-0.8843175768852234,-0.47391319274902344,-1.9840492010116577,0.09765482693910599, -0.2757975459098816
4,63175876,0.6671709,0.12024105,-0.7135553,0.17681672,9.768184661865234,-0.8849512338638306,-0.4884011745452881,-1.7670072317123413,0.17852690815925598, -0.20801354944705963
5,63192543,0.667149,0.12022663,-0.7136536,0.17651169,9.765687942504883,-0.9006192684173584,-0.4887010157108307,-1.7640618085861206,0.29999515414237976, -0.1673917919397354
6,63209210,0.66712207,0.12013693,-0.713754,0.17626877,9.755963325500488,-0.8767258524894714,-0.4830227196216583,-1.6559380292892456,0.257785439491272, -0.03558884933590889
7,63225877,0.66708696,0.12015075,-0.71381164,0.17615825,9.758007049560547,-0.8880607485771179,-0.4841102361679077,-1.2856422662734985,0.25052422285079956, 0.09687363356351852
8,63242544,0.66706824,0.12012907,-0.71386045,0.17604667,9.808061599731445,-0.888552725315094,-0.41193893551826477,-1.8655394315719604,0.301250159740448, 0.10874512046575546
9,63259211,0.6670953,0.12013732,-0.71385217,0.17597194,9.808146476745605,-0.9639165997505188,-0.4129124581813812,-1.6933581829071045,0.11003857105970383, -0.03382157161831856
10,63275878,0.66712147,0.120136596,-0.71383154,0.17595692,9.798344612121582,-0.9386447072029114,-0.39673522114753723,-1.0391968488693237,-0.1567625105381012, -0.26737096905708313
11,63292545,0.66717106,0.12007385,-0.713812,0.17589065,9.787394523620605,-0.8859435319900513,-0.43262988328933716,-1.6784260272979736,-0.2540908455848694, -0.3798876404762268
12,63309212,0.6672364,0.11983634,-0.7138517,0.17564373,9.764914512634277,-0.8464529514312744,-0.4812813401222229,-2.6390302181243896,-0.423505961894989, -0.2220492959022522
13,63325879,0.6672556,0.119644985,-0.71391875,0.17542861,9.7452392578125,-0.8693897128105164,-0.4910936951637268,-2.2281641960144043,-0.5896555781364441, -0.004892026074230671
14,63342546,0.6672048,0.11953912,-0.71401244,0.17531265,9.72217082977295,-0.8290882110595703,-0.4442426562309265,-1.7360286712646484,-0.862571656703949, 0.21902059018611908
15,63359213,0.66720897,0.11927422,-0.71412027,0.17503786,9.767765998840332,-0.8447298407554626,-0.39699476957321167,-3.1872572898864746,-0.6120795011520386, 0.34904345870018005
16,63375880,0.66727704,0.11908073,-0.71414024,0.17482871,9.798985481262207,-0.9393110871315002,-0.5008562207221985,-3.6679818630218506,0.06392289698123932, 0.27091193199157715
17,63392547,0.66740626,0.11881206,-0.71411514,0.17462063,9.773621559143066,-0.9064794778823853,-0.5183801054954529,-3.257935047149658,0.7232832908630371, 0.35421720147132874
18,63409214,0.66749895,0.118537426,-0.7141238,0.17441753,9.814291954040527,-0.8862584829330444,-0.4594242572784424,-2.8783552646636963,0.4946388900279999, 0.4101809561252594
19,63425881,0.6675454,0.11829014,-0.71416205,0.17425106,9.811123847961426,-0.8591322898864746,-0.4304075539112091,-3.0690033435821533,0.17431363463401794, 0.5499367117881775
20,63442548,0.66755354,0.118044555,-0.71423143,0.17410137,9.772889137268066,-0.8932566046714783,-0.4402945339679718,-2.7632901668548584,-0.20301906764507294, 0.7185578346252441
21,63459215,0.6674886,0.11789275,-0.7143375,0.17401859,9.781648635864258,-0.9482911229133606,-0.4679521322250366,-1.888321876525879,-0.8102450370788574, 0.6599048376083374
22,63475882,0.66737485,0.1177774,-0.71446615,0.17400435,9.762646675109863,-0.9754123091697693,-0.5037391781806946,-1.083353042602539,-1.1462068557739258, 0.783562958240509
23,63492549,0.66724557,0.11765953,-0.71460766,0.17399918,9.751943588256836,-0.9409953951835632,-0.5183376669883728,-1.0309110879898071,-1.2197151184082031, 0.7803484797477722
24,63509216,0.66711205,0.11756926,-0.71474487,0.17400831,9.794827461242676,-0.9016809463500977,-0.42636457085609436,-1.4322108030319214,-1.1325678825378418, 0.7100928425788879
25,63525883,0.66699636,0.117415,-0.71488655,0.17397419,9.816022872924805,-0.8995106220245361,-0.4462206959724426,-1.6557841300964355,-1.0955065488815308, 0.8088170289993286
26,63542550,0.6668278,0.1173655,-0.7150316,0.17405729,9.812776565551758,-0.8928228616714478,-0.4470444619655609,-1.1456817388534546,-1.3681023120880127, 0.9443337321281433
27,63559217,0.66667736,0.117212296,-0.71519864,0.17405032,9.797118186950684,-0.8985162973403931,-0.4730313718318939,-1.292096734046936,-1.4218761920928955, 1.0174837112426758
28,63575884,0.6665198,0.117114164,-0.7153531,0.17408513,9.82578182220459,-0.9546178579330444,-0.464440256357193,-1.0440762042999268,-1.4076226949691772, 0.9624035358428955
29,63592551,0.66642815,0.116991624,-0.71544963,0.1741219,9.851699829101562,-1.021870732307434,-0.503226101398468,-1.3670775890350342,-0.7728886604309082, 0.9580877423286438
30,63609218,0.6664335,0.11682209,-0.71546835,0.17413852,9.787186622619629,-0.9960051774978638,-0.49039986729621887,-1.738256812095642,0.12352362275123596, 0.8685585260391235
31,63625885,0.666547,0.11656872,-0.7154163,0.17408766,9.771505355834961,-0.928011417388916,-0.5459521412849426,-2.235783576965332,1.012412428855896, 0.7428643107414246
32,63642552,0.6667407,0.11627993,-0.7152842,0.17408164,9.748580932617188,-0.9721048474311829,-0.5664317011833191,-2.2793638706207275,1.9010834693908691, 0.9786677360534668
33,63659219,0.6669104,0.11603421,-0.71514386,0.174172,9.731560707092285,-0.987819492816925,-0.5853633284568787,-1.7492704391479492,1.9051687717437744, 1.2270210981369019
34,63675886,0.66708297,0.11588204,-0.7149682,0.17433353,9.722515106201172,-0.9773005247116089,-0.5568875074386597,-1.3501478433609009,2.1144371032714844, 1.065699577331543
35,63692553,0.6672106,0.11572631,-0.71483815,0.17448233,9.709198951721191,-0.9648504257202148,-0.5333490371704102,-1.0064895153045654,1.6666760444641113, 1.0845890045166016
36,63709220,0.66727316,0.11554014,-0.7147865,0.17457756,9.695855140686035,-0.9423885941505432,-0.5370624661445618,-1.0459587574005127,0.9624548554420471, 1.107986330986023
37,63725887,0.66725624,0.11557182,-0.71472955,0.17485428,9.722441673278809,-0.9355527758598328,-0.4080529808998108,-0.44251060485839844,0.6278889179229736, 1.0363218784332275
38,63742554,0.6672344,0.11553131,-0.7147119,0.17503655,9.745272636413574,-0.9352054595947266,-0.4291417598724365,-0.5603162050247192,0.33600661158561707, 0.9721107482910156
39,63759221,0.6671776,0.11555805,-0.71470076,0.17528065,9.769786834716797,-0.9493337869644165,-0.3900787830352783,-0.12507963180541992,0.10275174677371979, 0.9951366186141968
40,63775888,0.6671386,0.11549958,-0.7147166,0.17540322,9.773261070251465,-0.9616590142250061,-0.4339994788169861,-0.46887892484664917,-0.024575388059020042, 0.8318685293197632
41,63792555,0.66707796,0.11545381,-0.71474826,0.17553489,9.758625030517578,-1.0156081914901733,-0.4432380497455597,-0.5250987410545349,-0.20723234117031097, 0.8624371886253357
42,63809222,0.66699135,0.11546069,-0.71479136,0.17568402,9.775165557861328,-0.9803325533866882,-0.4472522437572479,-0.3654932379722595,-0.4281163215637207, 0.7223613858222961
43,63825889,0.66689086,0.115445375,-0.71486396,0.17578,9.768548011779785,-0.9774921536445618,-0.42992937564849854,-0.5130735635757446,-0.6768667101860046, 0.6181176900863647
44,63842556,0.6667855,0.115480654,-0.7149232,0.17591558,9.753801345825195,-0.9754064083099365,-0.46653276681900024,-0.5583824515342712,-0.6318012475967407, 0.5733466148376465
45,63859223,0.666717,0.11545477,-0.7149742,0.17598428,9.771703720092773,-0.9473194479942322,-0.4417259693145752,-0.3536473214626312,-0.47397586703300476, 0.4786180853843689
46,63875890,0.6666751,0.11538944,-0.71501637,0.17601508,9.79671573638916,-0.992298424243927,-0.4626121520996094,-0.7448172569274902,-0.29014068841934204, 0.471075177192688
47,63892557,0.66664296,0.11542413,-0.7150057,0.17615715,9.788043022155762,-1.0373107194900513,-0.4466795027256012,-0.7008658647537231,0.06627926230430603, 0.48578962683677673
48,63909224,0.6666483,0.11537661,-0.71499896,0.17619504,9.76802921295166,-0.9930179119110107,-0.4462372064590454,-0.910493016242981,0.1745697557926178, 0.3252492845058441
49,63925891,0.66662383,0.11547314,-0.71496385,0.17636737,9.762231826782227,-1.0649755001068115,-0.4396989345550537,-1.2583776712417603,0.25631269812583923, 0.33251044154167175
50,63942558,0.66667265,0.11535528,-0.71495,0.17631625,9.749689102172852,-0.9786739349365234,-0.43261659145355225,-1.6767479181289673,0.4235379695892334, 0.18971964716911316
51,63959225,0.66671443,0.115261436,-0.7149437,0.17624523,9.740983963012695,-0.9448431730270386,-0.4425605535507202,-1.8632982969284058,0.32303377985954285, 0.00897084828466177
52,63975892,0.66677505,0.11503803,-0.7149657,0.17607196,9.742238998413086,-0.9734352827072144,-0.48503774404525757,-2.05804443359375,0.26477769017219543, 0.1404024213552475
53,63992559,0.6667822,0.11499561,-0.71496665,0.17606881,9.74094295501709,-1.0250892639160156,-0.5010117292404175,-1.2803916931152344,0.11432869732379913, 0.12997804582118988
54,64009226,0.6667778,0.11501324,-0.71495634,0.1761159,9.759770393371582,-0.9951547384262085,-0.4569784998893738,-0.7214072942733765,0.08302997052669525, 0.06406375765800476
55,64025893,0.6667848,0.1149606,-0.714966,0.17608434,9.753569602966309,-1.0173193216323853,-0.45535698533058167,-1.2430610656738281,0.047658830881118774, 0.040730591863393784
56,64042560,0.66679084,0.11492098,-0.7149755,0.17604914,9.775686264038086,-1.011145830154419,-0.45502200722694397,-1.5431779623031616,0.05760937184095383, -0.025036413222551346
57,64059227,0.66682273,0.11485617,-0.71497643,0.17596692,9.764938354492188,-1.0130027532577515,-0.42169153690338135,-1.6500214338302612,0.19153818488121033, -0.1685059517621994
58,64075894,0.66687256,0.1148541,-0.7149411,0.17592305,9.768893241882324,-0.9783225059509277,-0.4849015176296234,-1.7257965803146362,0.45167359709739685, -0.32494837045669556
59,64092561,0.6669388,0.11480194,-0.7149033,0.17585981,9.716375350952148,-0.9860289692878723,-0.4721716046333313,-1.323779582977295,0.5197393298149109, -0.22169071435928345
60,64109228,0.6669467,0.11483319,-0.7148898,0.17586388,9.741585731506348,-0.9780527353286743,-0.4110966622829437,-1.1230272054672241,0.12873582541942596, -0.2061309963464737
61,64125895,0.66690826,0.114814445,-0.71494687,0.17579003,9.77087688446045,-0.9550213813781738,-0.43186795711517334,-1.4315834045410156,-0.4644095003604889, -0.22049975395202637
62,64142562,0.6668674,0.11483652,-0.7149962,0.1757302,9.794814109802246,-1.0520912408828735,-0.40612170100212097,-1.7151161432266235,-0.4296530485153198, -0.3267028033733368
63,64159229,0.6668183,0.114898376,-0.7150416,0.17569132,9.784632682800293,-1.0397963523864746,-0.450125515460968,-1.925255298614502,-0.4392833709716797, -0.4020809531211853
64,64175896,0.6667666,0.11493875,-0.7150969,0.17563602,9.732868194580078,-0.9858474135398865,-0.4633435904979706,-1.7508199214935303,-0.5223838090896606, -0.38398557901382446
65,64192563,0.66673166,0.114900164,-0.7151697,0.1754974,9.766682624816895,-0.9637903571128845,-0.45752057433128357,-1.954146385192871,-0.5497893691062927, -0.41317126154899597
66,64209230,0.66664165,0.11493515,-0.71526164,0.1754417,9.75023365020752,-0.9748101234436035,-0.4789562225341797,-1.659818172454834,-0.8845729827880859, -0.28542789816856384
67,64225897,0.6665088,0.1150357,-0.71536505,0.17545837,9.763020515441895,-1.0049625635147095,-0.4114881753921509,-1.0414377450942993,-1.1628164052963257, -0.21004971861839294
68,64242564,0.6664137,0.11503945,-0.7154776,0.17535855,9.794382095336914,-0.9807529449462891,-0.44838133454322815,-1.5466355085372925,-1.0550638437271118, -0.33538544178009033
69,64259231,0.6663278,0.11502646,-0.7155908,0.17523146,9.76207160949707,-0.9609361886978149,-0.4169921576976776,-2.6031723022460938,-0.9354141354560852, -0.34401699900627136
70,64275898,0.6662887,0.114913546,-0.71569604,0.17502394,9.739346504211426,-0.9973387718200684,-0.4918896555900574,-2.7046244144439697,-0.6952951550483704, -0.3198001980781555
71,64292565,0.6662651,0.11484681,-0.71575606,0.17491269,9.780885696411133,-0.9898428916931152,-0.44775205850601196,-2.254570722579956,-0.3603578805923462, -0.14764441549777985
72,64309232,0.6661995,0.1147849,-0.7158549,0.17479922,9.792317390441895,-1.0115379095077515,-0.4788000285625458,-1.9695783853530884,-0.7843121290206909, -0.1153596043586731
73,64325899,0.6661055,0.11475419,-0.7159703,0.1747042,9.77847671508789,-0.9998725056648254,-0.4765181839466095,-1.6787201166152954,-1.028785228729248, -0.14275234937667847
74,64342566,0.66600287,0.11473185,-0.71609664,0.17459208,9.743009567260742,-0.9827702045440674,-0.489179402589798,-1.8057210445404053,-1.1376521587371826, -0.24029836058616638
75,64359233,0.6658607,0.114778556,-0.7162269,0.17456906,9.74476432800293,-0.9944093823432922,-0.46979108452796936,-1.5876158475875854,-1.30697762966156, -0.09206484258174896
76,64375900,0.6657007,0.11480077,-0.7163871,0.1745081,9.765793800354004,-1.0084493160247803,-0.4639659821987152,-1.5681887865066528,-1.5670362710952759, -0.11865083128213882
77,64392567,0.6655364,0.114813216,-0.7165602,0.17441529,9.774714469909668,-1.0024601221084595,-0.4304635226726532,-1.7509994506835938,-1.666707992553711, -0.20497845113277435
78,64409234,0.6653698,0.11486086,-0.71673137,0.17431585,9.781266212463379,-0.9999113082885742,-0.4620431959629059,-1.6805262565612793,-1.7176774740219116, -0.4055514931678772
79,64425901,0.6651994,0.11485476,-0.71692497,0.17417496,9.761836051940918,-0.9735525250434875,-0.44545862078666687,-2.1747360229492188,-1.809678316116333, -0.30778783559799194
80,64442568,0.6650878,0.11472347,-0.71710944,0.17392789,9.774979591369629,-0.9387688040733337,-0.4787955582141876,-3.5555427074432373,-1.3930622339248657, -0.23912020027637482
81,64459235,0.66508067,0.11435147,-0.7172756,0.17351449,9.74465560913086,-0.9685501456260681,-0.5119065642356873,-4.952485084533691,-0.6982278823852539, 0.019817829132080078
82,64475902,0.66509545,0.113971956,-0.7174098,0.1731521,9.776456832885742,-0.9889695048332214,-0.5060266256332397,-5.296834468841553,-0.33685824275016785, 0.27243590354919434
83,64492569,0.6650999,0.11357417,-0.71753985,0.17285816,9.768525123596191,-0.9574408531188965,-0.541510283946991,-4.9929914474487305,-0.2981702983379364, 0.6816884279251099
84,64509236,0.66523385,0.11305183,-0.7175923,0.17246701,9.806498527526855,-0.9162688255310059,-0.4836612343788147,-5.613766670227051,0.7270485758781433, 0.6143782734870911
85,64525903,0.6656456,0.11212729,-0.71751994,0.17178091,9.863306999206543,-0.9610174298286438,-0.2272687703371048,-9.316276550292969,2.946722984313965, 0.8480432629585266
86,64542570,0.6663211,0.11086683,-0.71734166,0.17072104,9.759833335876465,-0.9968335628509521,-0.5430379509925842,-12.556288719177246,4.792453289031982, 0.3908436596393585
87,64559237,0.66689926,0.1098673,-0.71715754,0.16988115,9.711381912231445,-1.0680229663848877,-0.6479691863059998,-9.981400489807129,4.183586120605469, 0.20668815076351166
88,64575904,0.6673422,0.109241456,-0.7169638,0.1693623,9.718132019042969,-1.068271279335022,-0.6854262351989746,-7.188230991363525,3.442674160003662, 0.010072195902466774
89,64592571,0.66765285,0.10874444,-0.7168439,0.168965,9.716323852539062,-1.0183953046798706,-0.6436135768890381,-5.522303104400635,2.364724636077881, 0.10892441868782043
90,64609238,0.6678445,0.108356,-0.71677923,0.16873176,9.717300415039062,-1.0566667318344116,-0.6652441024780273,-4.523203372955322,1.5682530403137207, 0.5194384455680847
91,64625905,0.6679415,0.10802349,-0.71678007,0.16855724,9.730443954467773,-0.9615553021430969,-0.6367993950843811,-3.79183292388916,0.7776721119880676, 0.6547567844390869
92,64642572,0.66797453,0.10777229,-0.716805,0.16848059,9.715947151184082,-1.031198263168335,-0.5729181170463562,-3.034323215484619,0.3558180034160614, 0.8029388785362244
93,64659239,0.66793,0.1077374,-0.71682584,0.16859107,9.767969131469727,-0.9753319621086121,-0.3842788636684418,-0.9488095641136169,-0.12368372082710266, 0.6733386516571045
94,64675906,0.6678997,0.10771087,-0.7168564,0.16859819,9.785524368286133,-1.0351437330245972,-0.39501020312309265,-1.404280424118042,-0.19597558677196503, 0.14710015058517456
95,64692573,0.6678047,0.107647605,-0.71696115,0.16856968,9.775522232055664,-1.1143038272857666,-0.4533992409706116,-1.7525360584259033,-0.8511484265327454, 0.28905850648880005
96,64709240,0.6676395,0.10772386,-0.7170884,0.16863367,9.788934707641602,-1.0685722827911377,-0.47800013422966003,-0.564337432384491,-1.403947353363037, 0.11060205101966858
97,64725907,0.66743124,0.107844375,-0.71724683,0.16870761,9.773602485656738,-1.0353655815124512,-0.4571974277496338,-0.3717171251773834,-1.7987030744552612, 0.008228079415857792
98,64742574,0.66719466,0.10802478,-0.71741354,0.16881916,9.731579780578613,-1.0443823337554932,-0.5243696570396423,0.13579212129116058,-2.0245683193206787, -0.08062876760959625
99,64759241,0.66688436,0.10841932,-0.71756417,0.16915205,9.688345909118652,-1.00477933883667,-0.4994768500328064,2.029812812805176,-2.3716208934783936, -0.0382525697350502
100,64775908,0.6665511,0.10877209,-0.71775115,0.16944563,9.672735214233398,-0.9282461404800415,-0.48219478130340576,1.8328511714935303,-2.6534883975982666, 0.028820687904953957
101,64792575,0.66618425,0.10904343,-0.7180092,0.16962007,9.65312671661377,-0.978146493434906,-0.3971955478191376,0.756708025932312,-3.1358394622802734, -0.014740108512341976
102,64809242,0.66584057,0.109123535,-0.7183378,0.16952693,9.6314058303833,-1.0529632568359375,-0.45463165640830994,-1.4130014181137085,-3.3444292545318604, -0.27627137303352356
103,64825909,0.6654837,0.10916669,-0.71870995,0.169323,9.721768379211426,-0.9984498620033264,-0.4007212817668915,-2.280977487564087,-3.6437015533447266, -0.5517104268074036
104,64842576,0.66513354,0.10915962,-0.7191101,0.16900398,9.841097831726074,-1.0217658281326294,-0.38701730966567993,-3.0729222297668457,-3.781484365463257, -0.8194270133972168
105,64859243,0.66468835,0.10932821,-0.71953326,0.16884592,9.82532024383545,-1.0753002166748047,-0.4067780375480652,-1.4182394742965698,-4.454023838043213, -0.8257919549942017
106,64875910,0.6641809,0.10958023,-0.719966,0.1688342,9.793998718261719,-0.9946545958518982,-0.39521458745002747,-0.5056458711624146,-4.782172203063965, -0.4814291000366211
107,64892577,0.6637223,0.109745815,-0.7203807,0.16876179,9.807709693908691,-0.8723359704017639,-0.42598897218704224,-1.0135458707809448,-4.436132431030273, -0.41308164596557617
108,64909244,0.66329837,0.10975309,-0.7208114,0.16858493,9.812055587768555,-0.9309335947036743,-0.4924754500389099,-2.2582848072052,-4.248660087585449, -0.126885324716568
109,64925911,0.6627277,0.109711654,-0.7213878,0.16839035,9.775678634643555,-0.9288259744644165,-0.4760300815105438,-2.7455408573150635,-5.593596935272217, 0.32733672857284546
110,64942578,0.66201454,0.10958953,-0.72211176,0.16817108,9.775114059448242,-0.9229725003242493,-0.46349385380744934,-3.3641774654388428,-6.900600433349609, 0.9011765718460083
111,64959245,0.66130686,0.10942293,-0.7228303,0.16797726,9.829740524291992,-1.0588010549545288,-0.6693844795227051,-3.37157940864563,-6.796074867248535, 1.2287886142730713
112,64975912,0.6607543,0.109261684,-0.7233654,0.1679535,9.862517356872559,-0.9971805214881897,-0.5266030430793762,-2.424882173538208,-5.065615653991699, 1.656187653541565
113,64992579,0.6608089,0.108177744,-0.7236723,0.16711557,9.821609497070312,-0.9063822031021118,-0.41938498616218567,-10.992987632751465,-0.5513007044792175, 1.6841187477111816
114,65009246,0.6611736,0.10700418,-0.72374696,0.16610305,9.70574951171875,-0.980832040309906,-0.9431923031806946,-12.198298454284668,1.9977983236312866, 0.811622142791748
115,65025913,0.6613981,0.1060155,-0.72386116,0.16534294,9.739581108093262,-1.0441018342971802,-0.9333352446556091,-9.895880699157715,1.1021597385406494, 1.2170966863632202
116,65042580,0.6614325,0.10531026,-0.7240374,0.1648844,9.699051856994629,-1.1184537410736084,-0.826276957988739,-7.258897304534912,-0.18675503134727478, 1.45151686668396
117,65059247,0.66124874,0.10489792,-0.724303,0.16471732,9.743122100830078,-1.0995521545410156,-0.6505305767059326,-4.319197177886963,-1.7978321313858032, 1.6148228645324707
118,65075914,0.6608295,0.10473179,-0.7247179,0.16468124,9.77519702911377,-1.0889323949813843,-0.4849679172039032,-2.568019151687622,-3.8331844806671143, 1.3534072637557983
119,65092581,0.66017896,0.104689926,-0.7253314,0.16461538,9.822977066040039,-1.0294991731643677,-0.4465181231498718,-2.1309385299682617,-6.072362422943115, 0.9933695197105408
120,65109248,0.65933496,0.104736395,-0.7261133,0.16452202,9.80393123626709,-1.0095173120498657,-0.41252925992012024,-2.0946714878082275,-7.920410633087158, 0.7825899720191956
121,65125915,0.65833116,0.10470744,-0.7270858,0.16426498,9.800714492797852,-0.9113805890083313,-0.2981276512145996,-3.2108473777770996,-9.651290893554688, 0.7262674570083618
122,65142582,0.6572346,0.10440394,-0.72827077,0.16359806,9.821877479553223,-0.8502404093742371,-0.25228798389434814,-6.642081260681152,-11.09605598449707, 0.5086492896080017
123,65159249,0.6561233,0.10379831,-0.729587,0.16257615,9.851434707641602,-0.9349200129508972,-0.28449153900146484,-9.984889030456543,-11.70744514465332, 0.5477216243743896
124,65175916,0.65484315,0.10317,-0.73109776,0.16134594,9.886364936828613,-1.2146315574645996,-0.5537786483764648,-11.292486190795898,-13.584593772888184, 0.06378209590911865
125,65192583,0.65327376,0.102613896,-0.73282963,0.16020162,9.829339981079102,-1.195217251777649,-0.7270224690437317,-10.496109008789062,-16.081090927124023, 0.5479394197463989
126,65209250,0.6516945,0.10218103,-0.7344947,0.15928304,9.852794647216797,-1.4081192016601562,-1.2046865224838257,-8.810137748718262,-15.808688163757324, 0.9041741490364075
127,65225917,0.6501555,0.102163956,-0.7359174,0.15901591,9.675826072692871,-1.1958460807800293,-1.4476135969161987,-3.4225640296936035,-14.497183799743652, 1.4864791631698608
128,65242584,0.6489622,0.10212978,-0.73698425,0.15897231,9.599818229675293,-0.9602040648460388,-1.6637402772903442,-2.220109701156616,-10.947307586669922, 1.9351234436035156
129,65259251,0.648125,0.1020102,-0.7377289,0.15901023,9.398594856262207,-0.8838682174682617,-1.6946223974227905,-2.077958822250366,-7.508927345275879, 2.121647357940674
130,65275918,0.64762485,0.101909384,-0.7381373,0.15921628,9.427022933959961,-0.7649028301239014,-1.6088532209396362,-1.0371222496032715,-4.152036666870117, 2.183924674987793
131,65292585,0.64742845,0.10178337,-0.73826635,0.15949726,9.486383438110352,-0.805996835231781,-1.4912015199661255,-0.6397924423217773,-1.2496562004089355, 2.1300861835479736
132,65309252,0.647305,0.10156096,-0.738352,0.15974353,9.650480270385742,-0.9879547357559204,-1.1178914308547974,-1.2427667379379272,-0.575133204460144, 2.36869478225708
133,65325919,0.64732337,0.1012159,-0.7383794,0.15976128,9.650057792663574,-1.1412590742111206,-1.0617977380752563,-3.009786605834961,0.38506773114204407, 1.7839947938919067
134,65342586,0.64747304,0.10092878,-0.73828197,0.15978687,9.685100555419922,-1.1909900903701782,-1.0587081909179688,-2.632768154144287,1.5459505319595337, 1.2824854850769043
135,65359253,0.64763385,0.100662984,-0.7381869,0.1597419,9.719179153442383,-1.2594648599624634,-0.9152019023895264,-2.95124888420105,1.5235908031463623, 0.8447645306587219
136,65375920,0.64761007,0.10051445,-0.7382332,0.15971802,9.72165298461914,-1.4667829275131226,-0.8032771944999695,-2.3257997035980225,-0.17028604447841644, 0.6276199817657471
137,65392587,0.64734715,0.1005708,-0.7384261,0.15985653,9.8616943359375,-1.3638097047805786,-0.6576969027519226,-0.6118234395980835,-2.1647725105285645, 0.6507482528686523
138,65409254,0.6468239,0.10068368,-0.7388587,0.15990432,9.964866638183594,-1.2642076015472412,-0.6158751845359802,-0.8695256114006042,-4.710842132568359, 0.38988298177719116
139,65425921,0.64600056,0.10098386,-0.739512,0.16002475,9.997379302978516,-1.2577208280563354,-0.5823681354522705,0.2955642342567444,-7.404556751251221, 0.23461878299713135
140,65442588,0.64486617,0.10147721,-0.7403777,0.16028383,10.014951705932617,-1.1260992288589478,-0.6022258996963501,1.7731741666793823,-10.073811531066895, 0.35768789052963257
141,65459255,0.64346886,0.102073215,-0.7414564,0.16053475,10.022409439086914,-1.1075382232666016,-0.6659057140350342,2.115539789199829,-12.508711814880371, 0.24161113798618317
142,65475922,0.6416549,0.10287938,-0.74283326,0.16091558,10.0535306930542,-1.1634634733200073,-0.7103441953659058,3.611874580383301,-16.119354248046875, 0.4257795512676239
143,65492589,0.6392418,0.103669755,-0.7447402,0.16119805,10.12111759185791,-1.061005711555481,-0.45513206720352173,2.9573943614959717,-21.61150550842285, 1.10227632522583
144,65509256,0.6365892,0.10426227,-0.74694604,0.16110677,10.243021965026855,-0.8863421678543091,-0.14026768505573273,-0.03234890475869179,-24.24551773071289, 0.9680019617080688
145,65525923,0.63380903,0.10479909,-0.7493141,0.1607224,10.08764362335205,-1.1058579683303833,-0.6614197492599487,-1.8803097009658813,-25.835285186767578, 0.2538544833660126
146,65542590,0.63084865,0.105702564,-0.7517086,0.16059595,10.008125305175781,-1.3191859722137451,-0.9958182573318481,1.1923192739486694,-27.14995574951172, -0.29126840829849243
147,65559257,0.62789077,0.10676662,-0.7540408,0.16055113,9.893896102905273,-1.280662178993225,-1.274986982345581,2.3266828060150146,-27.007814407348633, -0.8124240636825562
148,65575924,0.6251158,0.10752893,-0.75630826,0.16020566,9.77783203125,-1.2359168529510498,-1.3051533699035645,-0.5272513628005981,-25.690990447998047, -0.8104004263877869
149,65592591,0.6226942,0.1077603,-0.75846606,0.15927628,9.43563175201416,-1.13572359085083,-2.010967254638672,-6.0471954345703125,-23.238061904907227, -1.021602988243103
150,65609258,0.6204659,0.10807703,-0.76041603,0.15845783,9.112540245056152,-1.110153079032898,-2.471966028213501,-5.009403705596924,-21.32368278503418, -1.357693076133728
151,65625925,0.618461,0.108684145,-0.7620159,0.15819496,8.868795394897461,-1.2732704877853394,-2.772263288497925,-0.6302011013031006,-18.511430740356445, -1.0126887559890747
152,65642592,0.6168085,0.10927144,-0.7632382,0.15834975,8.82991886138916,-0.9470790028572083,-2.9990124702453613,1.5801830291748047,-14.64845085144043, 0.19772377610206604
153,65659259,0.61577344,0.10926076,-0.7640904,0.15827571,8.836073875427246,-0.589478075504303,-3.0581650733947754,-2.151134490966797,-9.281302452087402, 1.4093968868255615
154,65675926,0.61541045,0.10873321,-0.7645415,0.15787219,8.83044719696045,-0.5406031608581543,-2.9869589805603027,-6.086756229400635,-3.656648635864258, 1.7159805297851562
155,65692593,0.6155982,0.107981384,-0.76462185,0.157265,8.90737533569336,-0.6273089051246643,-2.727320909500122,-8.11892032623291,0.97906494140625, 1.189332365989685
156,65709260,0.6161301,0.10741445,-0.7643422,0.15692966,9.001497268676758,-1.0494047403335571,-2.7154324054718018,-5.805643558502197,4.378907203674316, 0.7596790790557861
157,65725927,0.61685306,0.107162185,-0.76376134,0.15709084,9.201539039611816,-1.0685980319976807,-2.4614098072052,-1.6756473779678345,6.744638919830322, 0.7769038081169128
158,65742594,0.6177502,0.1069078,-0.76302314,0.15732569,9.461129188537598,-1.121700406074524,-2.0616540908813477,-1.2131712436676025,8.419055938720703, 0.7842673659324646
159,65759261,0.6187309,0.10662198,-0.76223356,0.15749368,9.679998397827148,-1.2502306699752808,-1.7078211307525635,-1.757889747619629,9.080183982849121, 0.5420864820480347
160,65775928,0.6196489,0.106421135,-0.76149344,0.15760042,9.753927230834961,-1.3544797897338867,-1.5328081846237183,-1.7609888315200806,8.398873329162598, -0.06496662646532059
161,65792595,0.62033975,0.1063764,-0.7609058,0.15775044,9.75632381439209,-1.476839303970337,-1.3352971076965332,-0.8619698286056519,6.401888370513916, -0.35971757769584656
162,65809262,0.6207004,0.10650698,-0.76054513,0.15798247,9.790029525756836,-1.546898603439331,-1.2372156381607056,0.2905825078487396,3.5480315685272217, -0.42430001497268677
163,65825929,0.6206461,0.10691708,-0.7604395,0.15842648,9.980026245117188,-1.3517416715621948,-1.1378397941589355,2.635745048522949,0.10377625375986099, -0.37540534138679504
164,65842596,0.62024814,0.10741964,-0.7605997,0.1588761,9.862371444702148,-1.2941021919250488,-1.2144756317138672,2.9581193923950195,-2.958881139755249, -0.2665385603904724
165,65859263,0.6195193,0.107990816,-0.76100963,0.15936857,9.886566162109375,-1.129875898361206,-1.253937005996704,3.458041191101074,-5.834880828857422, 0.09094429761171341
166,65875930,0.6184953,0.10858244,-0.76167774,0.15975223,10.07226848602295,-0.9629842042922974,-0.9170811772346497,2.8793225288391113,-8.612258911132812, 0.04343274235725403
167,65892597,0.6172373,0.10897997,-0.76264066,0.1597526,10.12938117980957,-1.1145288944244385,-1.127695083618164,-0.17028610408306122,-11.212629318237305, -0.06618324667215347
168,65909264,0.6157396,0.109561294,-0.76375073,0.15983194,10.083352088928223,-1.2467085123062134,-1.2488819360733032,1.0432634353637695,-13.282868385314941, -0.3159584403038025
169,65925931,0.6139951,0.110429026,-0.76494724,0.16022204,9.90170669555664,-1.343944787979126,-1.4425952434539795,4.035969257354736,-15.072060585021973, -0.18144050240516663
170,65942598,0.6121406,0.111477986,-0.766154,0.16082513,9.747462272644043,-1.247710943222046,-1.6469690799713135,5.984201431274414,-15.758420944213867, -0.11279845237731934
171,65959265,0.61030614,0.112333,-0.76741,0.1612131,9.735742568969727,-1.0166035890579224,-1.730939507484436,3.985666036605835,-15.828893661499023, 0.011455290019512177
172,65975932,0.6090372,0.11213903,-0.7685999,0.16047658,9.689239501953125,-0.9943126440048218,-1.319844365119934,-6.780441761016846,-12.278902053833008, 0.1748260110616684
173,65992599,0.6080409,0.11133999,-0.76978433,0.15912834,9.638002395629883,-0.9904620051383972,-1.8478074073791504,-12.67326545715332,-10.667084693908691, 0.4989166557788849
174,66009266,0.6072158,0.110464506,-0.7708685,0.15763433,9.728777885437012,-0.84519362449646,-1.828142523765564,-13.856266975402832,-9.369659423828125, 0.054612740874290466
175,66025933,0.606062,0.11017024,-0.7720114,0.15668452,9.706063270568848,-0.8367160558700562,-1.9314498901367188,-8.34869384765625,-11.588408470153809, -0.3369992673397064
176,66042600,0.60435694,0.11059605,-0.77332175,0.15650801,9.798640251159668,-0.6637165546417236,-1.6772091388702393,-0.9806469678878784,-15.412749290466309, -0.20239169895648956
177,66059267,0.6023552,0.11089705,-0.77492285,0.15609229,9.736327171325684,-0.7302053570747375,-1.6414419412612915,-2.8245718479156494,-18.275449752807617, 0.03047274611890316
178,66075934,0.5998414,0.11194611,-0.7766001,0.15668656,9.859220504760742,-0.46650177240371704,-1.9999585151672363,5.950474739074707,-21.37938117980957, 0.8653073906898499
179,66092601,0.5970326,0.11290264,-0.77850324,0.1572831,9.79204273223877,-0.27030065655708313,-1.7863596677780151,5.591846466064453,-23.799663543701172, 1.898602843284607
180,66109268,0.5939404,0.11398771,-0.7805543,0.15804057,9.775334358215332,-0.3933001458644867,-2.26157546043396,7.067976474761963,-25.96733283996582, 2.3421783447265625
181,66125935,0.5906807,0.11515049,-0.7826847,0.15887626,9.69225788116455,-0.6856167316436768,-2.453310012817383,7.89679479598999,-27.22125244140625, 2.5265653133392334
182,66142602,0.58734804,0.1164483,-0.784809,0.15980272,10.048019409179688,-0.5176852345466614,-2.453477144241333,8.998160362243652,-27.661123275756836, 2.2763166427612305
183,66159269,0.58408535,0.11741909,-0.7870051,0.16024968,10.474745750427246,-0.4346137046813965,-2.138231039047241,4.9563469886779785,-27.602577209472656, 2.13016939163208
184,66175936,0.5808649,0.117863834,-0.7893889,0.15990415,10.711935043334961,-0.1639784723520279,-0.8602919578552246,-1.6772905588150024,-28.2213134765625, 1.949176549911499
185,66192603,0.5782789,0.11728227,-0.7918179,0.15768053,10.66032600402832,0.3583124876022339,0.063002809882164,-16.538990020751953,-25.46431541442871, -0.5743409395217896
186,66209270,0.57741606,0.114992514,-0.7938551,0.15218991,10.465475082397461,0.6679590940475464,1.6782019138336182,-41.333526611328125,-15.563446998596191, -6.584072113037109
187,66225937,0.57835877,0.11172344,-0.7949948,0.14492263,9.959335327148438,-0.21674127876758575,1.8624486923217773,-55.40566635131836,-2.780405282974243, -10.804442405700684
188,66242604,0.5810935,0.10857636,-0.7947345,0.13761774,9.694015502929688,-0.32059246301651,2.129026174545288,-55.11933517456055,12.176238059997559, -14.456851959228516
189,66259271,0.585651,0.10591843,-0.7927938,0.13142394,9.461004257202148,-1.0175353288650513,2.471289873123169,-46.87806701660156,28.95435333251953, -15.658939361572266
190,66275938,0.5919638,0.10427954,-0.78900313,0.12719661,9.220264434814453,-1.1848810911178589,2.5411245822906494,-31.68576431274414,46.21397018432617, -16.258716583251953
191,66292605,0.5999679,0.10369965,-0.7833671,0.1249839,9.284209251403809,-1.2556523084640503,2.4074642658233643,-16.069766998291016,63.15953826904297, -16.644819259643555
192,66309272,0.60955346,0.103848115,-0.7760477,0.1241377,9.420035362243652,-1.1425138711929321,2.343045473098755,-5.407220840454102,78.73065185546875, -17.52860450744629
193,66325939,0.62049377,0.104184136,-0.767328,0.123859145,9.698354721069336,-1.1462287902832031,2.34029221534729,-1.3801831007003784,91.84969329833984, -18.337160110473633
194,66342606,0.6323466,0.10399152,-0.7577103,0.12328313,9.893290519714355,-0.9887456297874451,2.111523389816284,-5.10551643371582,100.52017974853516, -18.270647048950195
195,66359273,0.64500207,0.10302042,-0.747292,0.12212329,10.307509422302246,-0.5072333812713623,1.8261604309082031,-11.433178901672363,108.24181365966797, -18.037288665771484
196,66375940,0.65855575,0.100504935,-0.73614734,0.11954304,10.70998764038086,-0.2386680692434311,1.8378692865371704,-25.60629653930664,116.21550750732422, -17.686227798461914
197,66392607,0.6731999,0.09646805,-0.7239807,0.11553307,11.12712287902832,-0.3053606152534485,1.9014064073562622,-39.641780853271484,126.49002075195312, -18.079072952270508
198,66409274,0.6886551,0.09158368,-0.7106589,0.111042865,11.209525108337402,-0.7990883588790894,0.7021779417991638,-45.57019805908203,136.11062622070312, -17.526792526245117
199,66425941,0.7030501,0.087419435,-0.69752866,0.10738853,10.970718383789062,0.8181231617927551,-2.0595102310180664,-37.54369354248047,129.9684600830078, -16.218843460083008
200,66442608,0.7167457,0.08071267,-0.6848185,0.10385123,11.936009407043457,-3.380056381225586,0.45141303539276123,-49.15526580810547,126.67544555664062, -2.667544364929199
201,66459275,0.729235,0.07795215,-0.67174494,0.104398325,10.47620677947998,-0.053257960826158524,1.2227725982666016,-9.531350135803223,122.26319885253906, -0.6481637954711914
202,66475942,0.74231553,0.07098901,-0.6585371,0.10127696,11.169994354248047,-0.761358380317688,0.9869599342346191,-47.76618576049805,126.72838592529297, -0.1362171322107315
203,66492609,0.7541804,0.06506127,-0.64569396,0.10029166,11.00863265991211,-1.3697630167007446,0.8682334423065186,-32.46318435668945,119.7292251586914, 7.049260139465332
204,66509276,0.76535094,0.059415434,-0.6330803,0.09958603,11.009346008300781,-0.4277069568634033,1.1024236679077148,-29.594966888427734,115.45999145507812, 7.755358695983887
205,66525943,0.77561843,0.053819068,-0.62111896,0.09864659,10.57145881652832,-0.314505010843277,0.7775586247444153,-30.425434112548828,108.04582214355469, 7.174428939819336
206,66542610,0.7849779,0.048473388,-0.6098991,0.0973809,10.424511909484863,-0.42157793045043945,0.6297904253005981,-30.64302635192871,100.0325698852539, 5.242513656616211
207,66559277,0.7933444,0.04380136,-0.59955156,0.09604303,9.976400375366211,-0.7312600612640381,0.8329061269760132,-27.553293228149414,90.81646728515625, 2.9706618785858154
208,66575944,0.8009024,0.039369754,-0.5899851,0.09446394,9.530434608459473,-0.8531603217124939,0.9449904561042786,-27.493505477905273,83.11876678466797, 1.4082692861557007
209,66592611,0.8077143,0.035278067,-0.58112276,0.09300284,9.188916206359863,-1.5305708646774292,0.6163622140884399,-25.380813598632812,76.15020751953125, 1.3268767595291138
210,66609278,0.81366295,0.03207588,-0.5730592,0.09234229,8.925187110900879,-1.7042094469070435,0.7053585052490234,-17.513412475585938,68.0353775024414, 2.9092376232147217
211,66625945,0.8189436,0.029593237,-0.5656536,0.092150226,8.867609024047852,-1.4577109813690186,0.36926114559173584,-11.87925910949707,61.51217269897461, 3.207324743270874
212,66642612,0.8235728,0.02735289,-0.559006,0.09215377,8.984463691711426,-1.2987051010131836,0.6800462007522583,-10.071511268615723,54.76022720336914, 3.8930256366729736
213,66659279,0.8275167,0.024910256,-0.5532905,0.092006825,8.623442649841309,-1.682003378868103,1.0107994079589844,-12.230948448181152,47.1029167175293, 4.397436618804932
214,66675946,0.8308277,0.022586778,-0.5484386,0.09181741,8.647717475891113,-1.4907243251800537,1.61807119846344,-12.120926856994629,39.83650588989258, 4.203460216522217
215,66692613,0.833805,0.019957699,-0.5441037,0.09122516,8.540538787841797,-1.499232530593872,1.0110077857971191,-15.63472843170166,35.86931228637695, 3.309159278869629
216,66709280,0.8360669,0.017722448,-0.54076856,0.09081553,8.477622985839844,-1.3692959547042847,0.49572235345840454,-13.195590019226074,27.3811092376709, 3.4331436157226562
217,66725947,0.83765,0.015359213,-0.53846383,0.09035124,8.138440132141113,-1.283820390701294,0.18446646630764008,-14.669805526733398,19.173776626586914, 4.115860462188721
218,66742614,0.8384507,0.013425671,-0.53730834,0.0901119,8.15410327911377,-0.6132498979568481,-0.6060658693313599,-11.971335411071777,9.587438583374023, 4.403652667999268
219,66759281,0.83828825,0.012126675,-0.53762627,0.08990929,7.933744430541992,0.6831805109977722,-1.7442214488983154,-8.991558074951172,-2.645395278930664, 3.0103189945220947
220,66775948,0.8371545,0.011006368,-0.53952354,0.0892501,8.139469146728516,1.5548022985458374,-2.269448757171631,-10.55759334564209,-15.23546314239502, 0.5128501057624817
221,66792615,0.83484566,0.011032365,-0.5432659,0.08816739,8.614843368530273,2.0639841556549072,-2.486828088760376,-6.6024909019470215,-30.673341751098633, -5.216390609741211
222,66809282,0.83131796,0.013446348,-0.54881275,0.08679929,8.509111404418945,2.4830777645111084,-2.838031053543091,4.999417304992676,-46.764549255371094, -14.777130126953125
223,66825949,0.82894284,0.017553525,-0.5522845,0.08676201,13.1427001953125,-1.3871828317642212,17.002328872680664,20.788597106933594,-31.149856567382812, -14.305171012878418
224,66842616,0.8283489,0.017869812,-0.5535174,0.08448386,10.530533790588379,-2.833164930343628,11.281829833984375,-8.245595932006836,-10.150274276733398, -14.016246795654297
225,66859283,0.8253838,0.017058784,-0.55843,0.08128117,9.441998481750488,0.21656958758831024,-1.150555968284607,-20.022741317749023,-39.89569854736328, -13.244696617126465
226,66875950,0.8211284,0.01848267,-0.56514376,0.07758372,12.20419979095459,-2.6971445083618164,0.6535472869873047,-10.100068092346191,-56.14761734008789, -23.666257858276367
227,66892617,0.815967,0.022263192,-0.5728236,0.07467026,11.119706153869629,-3.468911647796631,1.592990756034851,5.883005142211914,-66.09622955322266, -27.87993049621582
228,66909284,0.81034696,0.02618094,-0.5809334,0.07189654,10.173200607299805,0.1840941160917282,1.0951685905456543,7.085493564605713,-70.2547378540039, -27.4644775390625
229,66925951,0.8042693,0.032497846,-0.58928096,0.06959057,10.010396003723145,5.768764019012451,-0.5649420022964478,22.26422882080078,-74.40103149414062, -34.14502716064453
230,66942618,0.7986815,0.0308001,-0.59782845,0.061323684,12.217961311340332,0.9708130359649658,1.1041420698165894,-46.49814224243164,-70.84001922607422, -34.55093765258789
231,66959285,0.7924323,0.03472424,-0.60604084,0.059665177,9.472036361694336,-0.8248733282089233,0.7756021022796631,11.795744895935059,-72.57359313964844, -21.103342056274414
232,66975952,0.7868033,0.0386145,-0.6132582,0.058002066,10.31467056274414,0.17917995154857635,1.1506246328353882,11.851278305053711,-64.4791030883789, -21.51276206970215
233,66992619,0.78210616,0.039572507,-0.6195227,0.05418351,10.5528564453125,0.43286675214767456,1.0286470651626587,-12.978081703186035,-54.736045837402344, -21.42128562927246
234,67009286,0.77822495,0.038446214,-0.6249081,0.04876501,10.435441017150879,-0.8954306840896606,1.0320680141448975,-30.90803337097168,-46.13230895996094, -21.6633243560791
235,67025953,0.77460814,0.038866743,-0.62966853,0.04460133,10.006749153137207,-0.8200435042381287,1.8229548931121826,-17.101470947265625,-41.78847885131836, -21.883466720581055
236,67042620,0.77101433,0.040109035,-0.63421667,0.04120202,9.665791511535645,0.3177177906036377,1.487939476966858,-9.358978271484375,-40.60353088378906, -21.467947006225586
237,67059287,0.7675424,0.040568646,-0.6386067,0.03760933,9.916165351867676,0.48605209589004517,1.3996546268463135,-14.349903106689453,-39.05507278442383, -19.14409828186035
238,67075954,0.76387686,0.040639967,-0.6431816,0.034030776,9.671838760375977,0.4904635548591614,1.6788902282714844,-16.340452194213867,-40.76524353027344, -17.242935180664062
239,67092621,0.75999296,0.039869983,-0.64802665,0.02971634,9.484128952026367,0.32773396372795105,1.6823992729187012,-24.02353286743164,-43.1667366027832, -17.240570068359375
240,67109288,0.7557374,0.039470166,-0.6531834,0.025583884,9.572179794311523,-0.014151438139379025,1.6025844812393188,-21.24708366394043,-46.494022369384766, -17.765357971191406
241,67125955,0.75120217,0.039671127,-0.6585084,0.02209153,9.812301635742188,0.45029470324516296,1.2910741567611694,-15.209014892578125,-48.574092864990234, -17.048381805419922
242,67142622,0.74648213,0.040025063,-0.6639308,0.018930547,9.617664337158203,0.5090773701667786,0.9451066255569458,-12.889222145080566,-49.8541259765625, -15.963738441467285
243,67159289,0.7416543,0.040461328,-0.66937125,0.015937006,9.684266090393066,0.5399699211120605,0.8907034397125244,-11.681035041809082,-50.40331268310547, -15.44986629486084
244,67175956,0.7367698,0.040689394,-0.6747934,0.012990603,9.833467483520508,0.4499868154525757,0.7223271727561951,-12.513199806213379,-50.53838348388672, -14.239258766174316
245,67192623,0.7318903,0.041318823,-0.68008566,0.010626752,9.788555145263672,0.40419355034828186,0.47093355655670166,-7.771618843078613,-49.73173904418945, -13.182839393615723
246,67209290,0.72721994,0.041852403,-0.6850757,0.008428391,9.773246765136719,0.6464241147041321,0.2759917378425598,-7.521374702453613,-47.17753601074219, -12.00289249420166
247,67225957,0.7227725,0.042402174,-0.68975353,0.006502606,9.802868843078613,0.48622259497642517,0.016970627009868622,-6.206387996673584,-44.48420333862305, -10.81024169921875
248,67242624,0.71844447,0.043100283,-0.69423145,0.004787979,9.799903869628906,0.43946653604507446,0.03825415298342705,-4.497570037841797,-42.85853958129883, -10.528249740600586
249,67259291,0.71410173,0.043715764,-0.6986695,0.0029583727,9.675171852111816,0.5910592079162598,0.10931874066591263,-5.4520978927612305,-42.75927734375, -10.716222763061523
250,67275958,0.7098928,0.044222593,-0.70291936,0.0010234005,9.698737144470215,0.6482709646224976,-0.12016662210226059,-6.530755996704102,-41.227481842041016, -10.767868041992188
251,67292625,0.7057113,0.04479423,-0.70708174,-0.00077568786,9.561720848083496,0.6665691137313843,-0.42949187755584717,-5.568363666534424,-40.62731170654297, -10.440853118896484
252,67309292,0.7014137,0.045481246,-0.71129787,-0.002401345,9.572699546813965,0.7453727722167969,-0.4463532567024231,-4.132443428039551,-41.38964080810547, -10.141234397888184
253,67325959,0.69683033,0.046237346,-0.71573395,-0.0038424958,9.710551261901855,0.6995510458946228,-0.5399227738380432,-2.80659556388855,-43.784950256347656, -9.520243644714355
254,67342626,0.6920124,0.04708007,-0.7203316,-0.004989188,10.148778915405273,0.6866968870162964,-0.23617015779018402,-0.8661129474639893,-45.614559173583984, -8.489431381225586
255,67359293,0.68690866,0.047393568,-0.7251628,-0.0070270486,10.295605659484863,0.8889350891113281,-0.4208284914493561,-7.698285102844238,-48.46525192260742, -10.042801856994629
256,67375960,0.6816227,0.04753736,-0.7301023,-0.009038264,9.7853364944458,0.8834866881370544,-0.823062539100647,-8.303009986877441,-49.89888000488281, -9.036948204040527
257,67392627,0.67620385,0.047649458,-0.73509383,-0.010732537,9.68372917175293,0.8716326951980591,-1.0600382089614868,-6.815026760101318,-50.7094841003418, -7.377000331878662
258,67409294,0.6706516,0.048049707,-0.74011314,-0.012263238,9.560347557067871,0.6171887516975403,-1.084328293800354,-4.604605674743652,-51.43624496459961, -8.068551063537598
259,67425961,0.6648416,0.04860572,-0.74527466,-0.013739019,9.6264009475708,0.6528122425079346,-1.0104628801345825,-3.51202392578125,-53.375755310058594, -8.588744163513184
260,67442628,0.6587054,0.0492853,-0.7506332,-0.015103719,9.58791446685791,0.6129941344261169,-1.0067119598388672,-2.252354860305786,-55.91038131713867, -8.6845703125
261,67459295,0.6523329,0.050324623,-0.7560861,-0.016223507,9.654840469360352,0.4747404158115387,-1.2007509469985962,0.729042112827301,-57.456390380859375, -9.4323091506958
262,67475962,0.64564437,0.051645223,-0.76170236,-0.016904898,9.65439510345459,0.34099921584129333,-1.2269421815872192,4.393959999084473,-59.666805267333984, -8.921913146972656
263,67492629,0.6385591,0.0531266,-0.7675428,-0.01725913,9.991578102111816,0.9437161087989807,-1.3086967468261719,6.983856201171875,-62.62897491455078, -8.299210548400879
264,67509296,0.631187,0.054962985,-0.77348644,-0.017352916,9.736393928527832,1.2154818773269653,-1.7970012426376343,10.034435272216797,-64.48649597167969, -9.025042533874512
265,67525963,0.6235737,0.057704996,-0.7794494,-0.016877037,9.87163257598877,2.0355730056762695,-1.885454773902893,17.08872413635254,-65.54340362548828, -11.38111400604248
266,67542630,0.6158913,0.060355265,-0.785358,-0.015749691,10.05078125,1.2076356410980225,-2.474449634552002,20.21756362915039,-65.450927734375, -8.087691307067871
267,67559297,0.60806084,0.062873796,-0.79127717,-0.013767276,10.80285358428955,1.2487729787826538,-2.2505125999450684,24.34075927734375,-65.95941925048828, -3.7635324001312256
268,67575964,0.60006857,0.06554992,-0.79718745,-0.010655495,11.242560386657715,1.3048402070999146,-2.0873348712921143,31.21759605407715,-66.32913208007812, 0.08401763439178467
269,67592631,0.5918766,0.068896465,-0.80305225,-0.006517176,12.921439170837402,-0.05862950533628464,-1.2730567455291748,39.704288482666016,-66.77179718017578, 0.6131490468978882
270,67609298,0.5827992,0.071954556,-0.8094217,-0.0020464335,13.795064926147461,-0.3959859013557434,-0.559449315071106,40.803955078125,-73.6799545288086, 3.7108418941497803
271,67625965,0.5723506,0.074370466,-0.81662464,0.0028403047,14.327223777770996,-1.5052425861358643,-0.1324704885482788,41.23075866699219,-84.61124420166016, 9.290165901184082
272,67642632,0.5598816,0.077419125,-0.82489794,0.009078202,15.04737663269043,-1.126822829246521,0.34788990020751953,52.298973083496094,-99.68194580078125, 11.554737091064453
273,67659299,0.5467484,0.08052118,-0.8333467,0.010766167,17.155563354492188,-0.2992478907108307,1.7686963081359863,27.024085998535156,-106.78106689453125, -6.191712856292725
274,67675966,0.534896,0.08164993,-0.84090567,0.009869963,17.904741287231445,-1.5137474536895752,3.1162726879119873,4.156550407409668,-97.7007064819336, -5.217470169067383
275,67692633,0.5223769,0.08326127,-0.8485898,0.00922307,15.715903282165527,-0.8948122262954712,2.3797502517700195,7.723970890045166,-102.30142211914062, -7.043883323669434
276,67709300,0.5083841,0.08773557,-0.8565696,0.011698186,14.55043888092041,-0.6524917483329773,1.1955387592315674,37.0401496887207,-110.6976089477539, -12.309048652648926
277,67725967,0.4919191,0.09309816,-0.8654818,0.017019024,13.985197067260742,-1.7451972961425781,0.20632915198802948,58.31302261352539,-127.16648864746094, -6.845250606536865
278,67742634,0.47313643,0.09971629,-0.8749241,0.026578771,12.774795532226562,2.2135396003723145,-1.5052745342254639,89.17047119140625,-140.45594787597656, 0.6046211123466492
279,67759301,0.45478868,0.105687335,-0.8836921,0.032956842,12.139690399169922,4.390048503875732,-3.927410364151001,67.78376007080078,-137.89767456054688, -6.286764144897461
280,67775968,0.43836004,0.11279555,-0.8908885,0.03789001,10.814269065856934,2.2829418182373047,-3.242912530899048,61.610389709472656,-122.73606872558594, -19.126991271972656
281,67792635,0.42457545,0.122669384,-0.89588034,0.045680825,10.435992240905762,1.9265743494033813,2.1129534244537354,86.03582763671875,-98.51451873779297, -29.745849609375
282,67809302,0.4160354,0.1317031,-0.8983076,0.051112972,8.34599494934082,0.5072077512741089,3.475099802017212,65.51057434082031,-60.71603012084961, -35.155826568603516
283,67825969,0.41053453,0.14020967,-0.8991698,0.057416625,7.050637722015381,-0.07777354121208191,2.327672243118286,67.23111724853516,-36.75435256958008, -31.823135375976562
284,67842636,0.4093205,0.14825432,-0.89805585,0.063034065,6.926755905151367,1.0987775325775146,3.170938491821289,58.36390686035156,-5.349977970123291, -34.44910430908203
285,67859303,0.41348064,0.15488318,-0.8948162,0.06594525,6.4322123527526855,0.9639358520507812,3.5145468711853027,33.173702239990234,31.460742950439453, -37.7432746887207
286,67875970,0.4233551,0.15954547,-0.88937235,0.06582301,6.270737648010254,1.1132136583328247,3.8919012546539307,3.8933286666870117,70.34066009521484, -39.15660858154297
287,67892637,0.43932208,0.16172405,-0.88143456,0.06256912,6.151549339294434,1.0757464170455933,3.7721636295318604,-27.98301887512207,112.33888244628906, -38.54935073852539
288,67909304,0.46124068,0.1607624,-0.870777,0.056214195,6.252040863037109,0.13677659630775452,2.9156341552734375,-61.6621208190918,154.33615112304688, -34.47464370727539
289,67925971,0.4869159,0.15752822,-0.85759985,0.051188,7.01923131942749,-1.0566134452819824,2.051889181137085,-64.07279968261719,187.0015869140625, -20.941862106323242
290,67942638,0.5157219,0.15244871,-0.84176224,0.04718726,7.858704090118408,-0.623426616191864,1.4006273746490479,-66.67173767089844,215.98760986328125, -10.702610969543457
291,67959305,0.5467746,0.1455373,-0.82329726,0.04514693,8.608155250549316,-1.528670310974121,0.34628191590309143,-63.3376350402832,240.8349609375, 3.2873728275299072
292,67975972,0.57992756,0.13819504,-0.8015438,0.045977425,9.750868797302246,-0.9116647839546204,-0.42460739612579346,-49.81881332397461,268.0140075683594, 12.471503257751465
293,67992639,0.61443305,0.13099715,-0.77641225,0.049959254,10.678855895996094,-2.168696880340576,-1.090437889099121,-32.11670684814453,291.84295654296875, 20.532405853271484
294,68009306,0.6488232,0.1261957,-0.74814415,0.058166232,11.850996971130371,-1.5449410676956177,-0.8727795481681824,1.7202962636947632,307.45068359375, 22.716360092163086
295,68025973,0.6833114,0.122433215,-0.71658885,0.0677946,13.752469062805176,-1.9094597101211548,-1.743524193763733,14.883705139160156,323.4487609863281, 20.77996063232422
296,68042640,0.71680313,0.12021742,-0.6821364,0.080195695,15.759099960327148,-2.5778539180755615,-3.570131778717041,38.00108337402344,333.8290100097656, 24.176513671875
297,68059307,0.7474426,0.11891184,-0.6467067,0.09465772,17.728588104248047,-1.0897411108016968,-4.673619747161865,55.04915237426758,326.61859130859375, 30.78795623779297
298,68075974,0.77513266,0.11614717,-0.611473,0.10853573,20.463821411132812,0.9675294160842896,-5.1939592361450195,47.22115707397461,313.22802734375, 36.3593635559082
299,68092641,0.80101,0.109181106,-0.5764655,0.118955,17.577285766601562,0.2258736938238144,-7.443828582763672,11.524213790893555,305.16815185546875, 37.16371536254883
300,68109308,0.8219892,0.10219744,-0.5450755,0.12954716,17.45653533935547,0.45407870411872864,-9.220624923706055,12.801437377929688,266.46563720703125, 44.9097900390625
301,68125975,0.83873993,0.08757958,-0.5203569,0.13443927,14.455549240112305,2.3830788135528564,-10.537199974060059,-54.71932601928711,216.28952026367188, 49.74673080444336
302,68142642,0.8509537,0.065150306,-0.5038837,0.13317128,11.298087120056152,0.7359603643417358,-12.493452072143555,-126.75241088867188,156.61724853515625, 51.350074768066406
303,68159309,0.8563987,0.045049105,-0.49773422,0.12966433,7.7315449714660645,1.4771015644073486,-15.286711692810059,-127.31244659423828,70.20647430419922, 40.99486541748047
304,68175976,0.857084,0.030708998,-0.49985304,0.12087616,6.1606669425964355,5.424662113189697,-12.73681926727295,-117.36198425292969,-0.9851123094558716, -2.979977607727051
305,68192643,0.85342336,0.026143588,-0.5079839,0.11374387,9.700668334960938,-1.20012366771698,-12.74574089050293,-58.203880310058594,-58.70962142944336, -21.79476547241211
306,68209310,0.846349,0.030643567,-0.52003634,0.11098159,10.469291687011719,4.09661865234375,-6.3557281494140625,7.830549716949463,-99.55177307128906, -24.457429885864258
307,68225977,0.84070146,0.030637631,-0.52987367,0.107315145,13.623844146728516,0.8287049531936646,12.109880447387695,-20.279821395874023,-78.09701538085938, -15.061813354492188
308,68242644,0.83606046,0.027573328,-0.53838944,0.10188115,11.58249568939209,-2.2744712829589844,3.379054307937622,-43.66740798950195,-65.09139251708984, -15.112627029418945
309,68259311,0.8295901,0.029153652,-0.54864436,0.09959835,12.480633735656738,-1.21985924243927,-1.8693983554840088,-6.161704063415527,-84.53248596191406, -12.61310863494873
310,68275978,0.8228193,0.02964607,-0.5596287,0.094368175,14.417349815368652,-1.5826584100723267,-2.049532890319824,-23.91743278503418,-89.58519744873047, -24.98222541809082
311,68292645,0.8155918,0.03293442,-0.5704785,0.0909928,12.871162414550781,-4.002752780914307,-1.3974213600158691,-0.7779979109764099,-91.93289947509766, -24.99596405029297
312,68309312,0.8084796,0.039357983,-0.5803711,0.08933813,10.911564826965332,0.8066151142120361,-0.8584706783294678,24.14037322998047,-87.64906311035156, -27.998273849487305
313,68325979,0.8016764,0.04204498,-0.5905258,0.08262474,12.4827241897583,5.697740077972412,-1.2026302814483643,-17.08072280883789,-86.94316864013672, -41.302608489990234
314,68342646,0.7959411,0.039743513,-0.59935874,0.0752827,10.87840461730957,-1.624305248260498,-0.18656416237354279,-46.726402282714844,-72.65553283691406, -25.39503288269043
315,68359313,0.790038,0.042457424,-0.6072521,0.07268035,10.008795738220215,-0.41894426941871643,0.21279768645763397,0.7873169779777527,-69.53135681152344, -20.31827735900879
316,68375980,0.7845724,0.04615739,-0.6142122,0.07112712,10.553276062011719,0.039134446531534195,0.8341547250747681,10.859844207763672,-62.8592414855957, -19.236499786376953
317,68392647,0.7799622,0.045573574,-0.6205838,0.06676752,10.184747695922852,0.6609586477279663,1.2025730609893799,-24.086793899536133,-54.91139602661133, -16.888914108276367
318,68409314,0.7757038,0.04327987,-0.62666786,0.060813043,10.01621150970459,-0.6102525591850281,1.4079605340957642,-40.04398727416992,-51.6327018737793, -18.384246826171875
319,68425981,0.77145076,0.04137404,-0.632555,0.055009753,9.870050430297852,-0.7419527173042297,1.1300048828125,-37.2435417175293,-50.726200103759766, -19.314756393432617
320,68442648,0.7671037,0.040825125,-0.6382349,0.05041375,9.836003303527832,-0.1070026308298111,1.244171380996704,-24.690052032470703,-50.249000549316406, -18.843549728393555
321,68459315,0.7625135,0.041713055,-0.6438998,0.047184795,9.844736099243164,0.07588563114404678,1.2202407121658325,-11.041062355041504,-51.39156723022461, -17.859966278076172
322,68475982,0.75773835,0.042956818,-0.64963347,0.044315476,9.471346855163574,0.2508690655231476,1.0571640729904175,-7.553345680236816,-52.6219596862793, -17.47071647644043
323,68492649,0.7528556,0.043764975,-0.65544665,0.04102559,9.556456565856934,0.10513980686664581,0.9327793121337891,-11.694357872009277,-53.542747497558594, -17.65888214111328
324,68509316,0.74765414,0.044801753,-0.6614877,0.03795022,9.436681747436523,0.19478832185268402,1.1708980798721313,-9.512826919555664,-56.18877410888672, -17.421667098999023
325,68525983,0.74199986,0.045854602,-0.6679028,0.035210375,9.574922561645508,0.3298194408416748,1.0140942335128784,-7.862310886383057,-60.103614807128906, -15.537299156188965
326,68542650,0.7360383,0.047091123,-0.6744999,0.03286314,9.57023811340332,0.45943474769592285,0.732769250869751,-5.069082736968994,-62.39167404174805, -14.245938301086426
327,68559317,0.73015845,0.04771106,-0.6809468,0.030063055,9.68183708190918,0.5097076892852783,0.3178711235523224,-10.281608581542969,-61.28396224975586, -13.744315147399902
328,68575984,0.72442514,0.048044633,-0.6871447,0.027059754,9.799661636352539,0.18080087006092072,-0.07077217102050781,-12.666536331176758,-59.373817443847656, -13.534563064575195
329,68592651,0.7187342,0.048706055,-0.6931478,0.024395924,9.647915840148926,0.2036711424589157,-0.3691733777523041,-9.407127380371094,-58.167518615722656, -13.467521667480469
330,68609318,0.71312714,0.04945789,-0.69894457,0.02191329,9.743485450744629,0.7206515073776245,-0.434175044298172,-8.09017562866211,-56.71762466430664, -13.088850021362305
331,68625985,0.70756495,0.050027974,-0.70461047,0.019321093,9.779218673706055,0.46977096796035767,-0.333149254322052,-9.50278377532959,-55.88275909423828, -12.802226066589355
332,68642652,0.7018665,0.050745934,-0.71030533,0.016579868,10.77649974822998,0.22277292609214783,-0.44601061940193176,-9.461602210998535,-56.77018737792969, -14.216416358947754
333,68659319,0.6959172,0.051777847,-0.716124,0.0135944905,9.907941818237305,0.09047441929578781,-0.6836916208267212,-9.065007209777832,-58.72831726074219, -16.859607696533203
334,68675986,0.68972284,0.05350563,-0.72200876,0.01108946,9.754653930664062,0.5533199310302734,-0.7324663400650024,-3.288832187652588,-60.156761169433594, -17.945419311523438
335,68692653,0.6831938,0.055161547,-0.72809374,0.00911317,9.696481704711914,0.8897125720977783,-0.6911697387695312,-0.8965086340904236,-62.57932662963867, -14.9830961227417
336,68709320,0.67627704,0.05647748,-0.7344382,0.0077733854,9.919271469116211,0.47021955251693726,-0.7230206727981567,0.8245047926902771,-65.48794555664062, -10.167323112487793
337,68725987,0.6688822,0.05848532,-0.74103105,0.007012032,9.866755485534668,0.6850758194923401,-0.7717849016189575,7.136070728302002,-68.88236999511719, -10.85187816619873
338,68742654,0.66106653,0.06065393,-0.7478449,0.0063394504,9.803043365478516,1.11165452003479,-1.097739338874817,8.4874849319458,-72.02643585205078, -11.154528617858887
339,68759321,0.6529647,0.062062435,-0.7548171,0.0060509793,10.002309799194336,1.1764538288116455,-1.5133953094482422,7.121450901031494,-74.03397369384766, -5.420023441314697
340,68775988,0.6449313,0.063209966,-0.7616005,0.005753944,9.708860397338867,1.08164644241333,-2.137416124343872,5.885493755340576,-72.83084869384766, -4.185694217681885
341,68792655,0.6369279,0.06545606,-0.76811534,0.0061082845,10.070172309875488,0.7988103032112122,-2.152785062789917,14.165721893310547,-71.24755096435547, -7.166555404663086
342,68809322,0.62885,0.067995176,-0.7745153,0.0071207597,10.755406379699707,1.2630972862243652,-1.7712478637695312,18.963598251342773,-70.85877990722656, -5.881837368011475
343,68825989,0.62063205,0.070434704,-0.78088045,0.008994945,12.379843711853027,-0.26564088463783264,-1.3297487497329712,23.190725326538086,-71.0556640625, -1.6338660717010498
344,68842656,0.6116795,0.072720826,-0.78766483,0.012012784,13.215020179748535,-0.7924391031265259,-0.9467037320137024,29.007137298583984,-76.24124908447266, 4.3096113204956055
345,68859323,0.6016257,0.07528429,-0.79506564,0.015801063,13.445960998535156,-1.1892627477645874,-0.3716273903846741,34.84610366821289,-84.4544448852539, 6.435847759246826
346,68875990,0.58966005,0.07758955,-0.8036476,0.020772573,14.44487476348877,-0.6409708261489868,0.8245313763618469,41.1080207824707,-99.17484283447266, 13.548796653747559
347,68892657,0.57626384,0.07980261,-0.813009,0.023829192,15.306046485900879,0.4335016906261444,2.2080893516540527,30.80719566345215,-111.28069305419922, 6.907218933105469
348,68909324,0.56213725,0.08308576,-0.82251287,0.023902103,17.373037338256836,-0.7171403169631958,3.4262211322784424,18.750333786010742,-117.78215789794922, -10.700054168701172
349,68925991,0.5465665,0.08668549,-0.83257854,0.023747502,19.18448257446289,-1.854872226715088,3.629272937774658,19.42445945739746,-128.35479736328125, -12.819925308227539
350,68942658,0.5284847,0.090593934,-0.8437546,0.023985937,17.211048126220703,-1.478205919265747,3.547140598297119,24.152080535888672,-146.77865600585938, -12.05275821685791
351,68959325,0.5089363,0.094823614,-0.8551505,0.026644873,17.02897834777832,-2.240272283554077,0.7534879446029663,40.241092681884766,-154.68519592285156, -4.75216007232666
352,68975992,0.4876857,0.101587154,-0.8663409,0.03600353,14.32862377166748,1.499632477760315,0.10900455713272095,89.64867401123047,-160.1126708984375, 3.961890459060669
353,68992659,0.46644783,0.10754227,-0.8770009,0.041599613,12.556455612182617,5.137668132781982,-4.536570072174072,64.6506118774414,-160.71273803710938, -4.201657295227051
354,69009326,0.44711456,0.114050545,-0.8860201,0.045271188,12.337570190429688,2.1181724071502686,-2.7627012729644775,53.89319610595703,-145.54397583007812, -15.439610481262207
355,69025993,0.4311541,0.123434186,-0.89229065,0.051841926,10.395340919494629,1.4279098510742188,2.479477882385254,78.61331176757812,-115.17768859863281, -27.23667335510254
356,69042660,0.42007235,0.13304502,-0.89587533,0.056972343,7.751122951507568,0.5095056295394897,3.3159854412078857,67.27494049072266,-78.61573791503906, -36.9089469909668
357,69059327,0.41357687,0.14198934,-0.8972523,0.061086707,7.195825576782227,0.5129297971725464,3.8122434616088867,55.76692581176758,-44.68177795410156, -39.5488395690918
358,69075994,0.41282293,0.15006956,-0.89615047,0.063013606,6.519972324371338,0.6311811208724976,4.1119513511657715,35.25778579711914,-4.009957790374756, -45.265018463134766
359,69092661,0.41801572,0.15724263,-0.8925125,0.06292295,6.084333419799805,0.614642322063446,4.0887017250061035,15.224039077758789,38.11754608154297, -50.5933837890625
360,69109328,0.42922363,0.16174677,-0.8865575,0.06017466,5.913865566253662,-0.32028985023498535,3.969008684158325,-14.247594833374023,79.95104217529297, -46.96147155761719
361,69125995,0.44571075,0.16408028,-0.8782067,0.05632829,6.280872344970703,0.3570486605167389,3.431222438812256,-32.22219467163086,118.86334991455078, -41.82660675048828
362,69142662,0.46748286,0.16309611,-0.867353,0.050579958,6.740911960601807,-0.6507165431976318,2.1771397590637207,-58.86325454711914,157.5757598876953, -32.49897766113281
363,69159329,0.49243277,0.16063322,-0.8541236,0.046692394,6.995126247406006,-1.3007817268371582,1.4935088157653809,-55.25589370727539,186.76089477539062, -21.478912353515625
364,69175996,0.5198321,0.15689015,-0.8385491,0.04467386,7.601731300354004,-1.0859802961349487,0.3391910195350647,-50.568138122558594,211.56166076660156, -11.020234107971191
365,69192663,0.54967684,0.1513938,-0.82037485,0.043823447,8.374637603759766,-1.2306360006332397,-0.6772325038909912,-51.94206619262695,236.76211547851562, -0.3008834719657898
366,69209330,0.5810156,0.14560573,-0.79944986,0.045827013,9.218523025512695,-1.877074122428894,-1.1981943845748901,-37.6731071472168,258.6600036621094, 8.809300422668457
367,69225997,0.6129416,0.14095633,-0.7757385,0.05161277,10.129945755004883,-1.0916873216629028,-1.5724693536758423,-12.04265022277832,276.46405029296875, 14.676508903503418
368,69242664,0.64493585,0.13642523,-0.7496428,0.05900564,11.47712230682373,-0.7806421518325806,-2.3196825981140137,-2.1917731761932373,288.41168212890625, 18.481348037719727
369,69259331,0.675779,0.13342805,-0.7216707,0.06863994,12.65004825592041,-0.27267026901245117,-2.911101818084717,18.008848190307617,292.2989807128906, 19.221054077148438
370,69275998,0.705287,0.13116078,-0.69216245,0.07923743,14.535002708435059,0.9174385070800781,-3.3381669521331787,28.12912368774414,293.375244140625, 19.2993221282959
371,69292665,0.73385376,0.1274148,-0.661331,0.08868861,16.578582763671875,0.18410569429397583,-3.310549259185791,17.065919876098633,295.1155090332031, 20.106613159179688
372,69309332,0.7610487,0.12406394,-0.62898296,0.09896425,16.706539154052734,-1.1417630910873413,-3.546143054962158,24.932832717895508,297.05059814453125, 21.981447219848633
373,69325999,0.785657,0.1223528,-0.59610844,0.11148072,17.8866024017334,-0.32803812623023987,-4.196182727813721,45.769493103027344,289.4552917480469, 27.924461364746094
374,69342666,0.8077123,0.11702086,-0.56481993,0.122006156,16.278528213500977,0.6441168785095215,-6.963395118713379,18.965858459472656,271.56768798828125, 35.299137115478516
375,69359333,0.8261234,0.10890856,-0.53700507,0.13147178,14.168457984924316,-0.18941465020179749,-8.339470863342285,-0.5879861116409302,239.6612548828125, 46.06407165527344
376,69376000,0.84049386,0.0987231,-0.5142634,0.13913046,12.96061897277832,-0.03853778541088104,-8.95071029663086,-20.60738754272461,196.51058959960938, 50.89978790283203
377,69392667,0.85061496,0.08589748,-0.4983646,0.14390521,11.204400062561035,1.0924772024154663,-9.923828125,-49.73318862915039,142.58018493652344, 52.27240753173828
378,69409334,0.8560775,0.07055576,-0.4915059,0.14344165,7.433719635009766,6.859743118286133,-12.099961280822754,-88.60040283203125,73.21844482421875, 40.20937728881836
379,69426001,0.86039007,0.046584252,-0.4910018,0.12835987,5.6573357582092285,3.529834508895874,-14.089512825012207,-194.55059814453125,33.430938720703125, -12.416468620300293
380,69442668,0.85916096,0.040579252,-0.49560732,0.120704316,11.143787384033203,-2.6384146213531494,-9.593331336975098,-65.92684173583984,-28.90525245666504, -22.5863094329834
381,69459335,0.85348946,0.038460396,-0.50706184,0.113864064,11.70501708984375,1.994921326637268,-9.152996063232422,-44.63763427734375,-87.43146514892578, -25.424728393554688
382,69476002,0.8485376,0.03498019,-0.51685095,0.10782241,14.079030990600586,1.1736645698547363,11.090293884277344,-48.739933013916016,-73.80873107910156, -16.980972290039062
383,69492669,0.8417583,0.029446993,-0.52955526,0.10073511,15.524771690368652,-4.481909275054932,-3.4759180545806885,-66.1594467163086,-96.08323669433594, -13.713678359985352
384,69509336,0.83282876,0.032754358,-0.54402673,0.09673935,13.393589973449707,-1.7271889448165894,-2.4583592414855957,-4.519715309143066,-119.59719848632812, -26.18021583557129
385,69526003,0.8233898,0.037392803,-0.55873185,0.09192203,13.244546890258789,-3.2777252197265625,-1.4708309173583984,-0.013344995677471161,-123.88721466064453, -35.47878646850586
386,69542670,0.8132351,0.04895331,-0.5725489,0.09186917,10.404881477355957,0.7169699668884277,-1.8195490837097168,58.22587585449219,-124.74568939208984, -34.89174270629883
387,69559337,0.8039712,0.053625412,-0.5861494,0.08475741,12.529888153076172,7.711445331573486,-1.5493096113204956,-8.253077507019043,-118.04267883300781, -47.87712860107422
388,69576004,0.79653656,0.05000752,-0.59780407,0.07522899,10.94662094116211,-1.6865005493164062,-0.35256093740463257,-63.37699890136719,-95.96453857421875, -29.561649322509766
389,69592671,0.78903526,0.05303161,-0.60775685,0.0724058,10.699986457824707,-1.018546223640442,-1.3667471408843994,1.4639040231704712,-88.04965209960938, -20.69541358947754
390,69609338,0.7821499,0.058601797,-0.6162239,0.07124405,11.177556991577148,-0.5099945664405823,-0.3202877342700958,22.734094619750977,-78.07501220703125, -23.177352905273438
391,69626005,0.7764145,0.060522176,-0.6236362,0.067791,10.647510528564453,0.904304563999176,0.8694047331809998,-6.54934549331665,-66.67221069335938, -21.028276443481445
392,69642672,0.77150506,0.06005303,-0.63025975,0.06282223,10.092496871948242,-0.25503209233283997,0.5876118540763855,-25.78087043762207,-58.44972610473633, -19.58064079284668
393,69659339,0.7669345,0.059418593,-0.6363748,0.057516422,10.218034744262695,-0.271101176738739,0.6751754879951477,-28.03775978088379,-54.364627838134766, -21.008150100708008
394,69676006,0.7624995,0.059400745,-0.64208186,0.052886736,10.04622745513916,0.2592480480670929,0.7815396785736084,-21.721824645996094,-51.600311279296875, -20.36140251159668
395,69692673,0.7580155,0.06003461,-0.6476005,0.0492143,9.918535232543945,0.042260389775037766,0.7116483449935913,-13.990283012390137,-50.6891975402832, -18.277639389038086
396,69709340,0.75315607,0.06231318,-0.65317416,0.04729417,9.607144355773926,0.4523712694644928,0.7897718548774719,2.5211429595947266,-52.49394989013672, -16.31999969482422
397,69726007,0.74808955,0.06394434,-0.6589621,0.04519399,9.54246997833252,1.018430471420288,1.1690716743469238,-1.6196883916854858,-54.41297912597656, -14.185636520385742
398,69742674,0.7427233,0.06462623,-0.66511613,0.04249976,9.446751594543457,0.7184523940086365,1.2072713375091553,-9.17410945892334,-57.63629913330078, -12.682580947875977
399,69759341,0.73703474,0.064774215,-0.67159146,0.039358597,9.442322731018066,0.5438691973686218,1.09815514087677,-13.893152236938477,-60.80974197387695, -12.284037590026855
400,69776008,0.7311406,0.06513472,-0.67811906,0.036679167,9.603325843811035,0.5161164999008179,0.623356282711029,-10.604462623596191,-61.89128875732422, -10.845417976379395
401,69792675,0.7252305,0.06558084,-0.684517,0.034300853,9.617311477661133,0.5835866928100586,-0.09016601741313934,-8.728364944458008,-61.2119255065918, -9.784505844116211
402,69809342,0.7194357,0.06603454,-0.69067407,0.03195722,9.666071891784668,0.3151382803916931,-0.8277580738067627,-8.521225929260254,-59.46366882324219, -9.782604217529297
403,69826009,0.7139487,0.066467255,-0.69640493,0.029659059,9.825389862060547,0.3998658061027527,-1.1502504348754883,-8.454416275024414,-55.87207794189453, -9.720351219177246
404,69842676,0.70883393,0.06677733,-0.70167166,0.027427798,10.011944770812988,0.5416415929794312,-1.1519337892532349,-8.810704231262207,-51.760902404785156, -9.093765258789062
405,69859343,0.7041758,0.06706999,-0.70640105,0.025217585,10.648714065551758,0.2452511340379715,-1.0989296436309814,-8.900691986083984,-46.93082046508789, -9.240384101867676
406,69876010,0.699607,0.067560636,-0.7109628,0.022754546,9.970083236694336,0.39927780628204346,-1.014754295349121,-9.181804656982422,-45.84185028076172, -11.521543502807617
407,69892677,0.69498837,0.0684557,-0.7154596,0.020559754,9.783616065979004,0.4903021454811096,-0.9954560995101929,-5.891467571258545,-45.71965026855469, -12.232147216796875
408,69909344,0.69013745,0.069617406,-0.7200834,0.01854599,9.785443305969238,0.8718247413635254,-0.6547074913978577,-3.634216547012329,-47.430294036865234, -12.587735176086426
409,69926011,0.6850774,0.07064084,-0.7248438,0.016741956,9.915521621704102,0.7983065247535706,-0.685822606086731,-3.1681652069091797,-49.005462646484375, -10.815608024597168
410,69942678,0.67971504,0.07171717,-0.7298022,0.0152628645,9.877623558044434,0.5790205001831055,-0.8951431512832642,-1.17339289188385,-51.30451583862305, -9.418020248413086
411,69959345,0.6737937,0.07283016,-0.7351854,0.014155776,10.005125045776367,0.3817683756351471,-0.763782799243927,1.0976125001907349,-55.924842834472656, -7.59737491607666
412,69976012,0.6670124,0.07437261,-0.74120355,0.013442435,9.866634368896484,0.0994134172797203,-0.7593833208084106,5.448354244232178,-63.06869888305664, -7.545686721801758
413,69992679,0.6589831,0.076739945,-0.7481166,0.013192593,9.969613075256348,0.74193274974823,-0.2228134274482727,12.150975227355957,-73.38391876220703, -9.055919647216797
414,70009346,0.64985746,0.07934837,-0.7557977,0.01260864,9.695446014404297,0.745895266532898,-0.9911128878593445,12.036380767822266,-82.7167739868164, -11.306726455688477
415,70026013,0.6399659,0.08347345,-0.76374507,0.013017655,10.61761474609375,1.1602215766906738,-1.2347475290298462,24.36998748779297,-87.4873046875, -14.54121208190918
416,70042680,0.62933195,0.0883455,-0.77196276,0.0144943455,11.954678535461426,0.9722205996513367,-0.39597779512405396,33.66767501831055,-92.04107666015625, -13.544486045837402
417,70059347,0.6177593,0.09274515,-0.7807007,0.016678577,13.090799331665039,0.22383299469947815,-0.6780298352241516,35.901824951171875,-98.81672668457031, -7.5685038566589355
418,70076014,0.60503155,0.09624955,-0.7901281,0.01925765,13.922842979431152,-0.3562255799770355,-0.07846207916736603,34.87975311279297,-107.61139678955078, -0.5210883021354675
419,70092681,0.5905973,0.09962072,-0.80046993,0.022767242,14.517945289611816,-1.5390695333480835,0.1521778702735901,40.392818450927734,-120.07962799072266, 4.894294261932373
420,70109348,0.5743608,0.1032167,-0.81166536,0.025598696,16.204151153564453,-0.7114920020103455,1.7734237909317017,38.67702102661133,-133.99676513671875, 1.7533924579620361
421,70126015,0.558059,0.10589998,-0.82267433,0.023713147,19.287261962890625,-1.0656321048736572,3.84659743309021,8.831085205078125,-136.85653686523438, -11.914053916931152
422,70142682,0.54397225,0.109450035,-0.83162975,0.022511348,21.675792694091797,-2.5561764240264893,4.795268535614014,14.755389213562012,-116.15267181396484, -16.06657600402832
423,70159349,0.5263483,0.11236433,-0.8425687,0.020239964,17.7773494720459,-2.0277674198150635,4.057360649108887,8.621795654296875,-144.5850372314453, -14.41773509979248
424,70176016,0.5044221,0.11685532,-0.8551284,0.025666023,16.58214569091797,-5.35377311706543,0.43159008026123047,62.025726318359375,-169.71826171875, 6.137887477874756
425,70192683,0.48137054,0.12538831,-0.86653095,0.041042186,14.100360870361328,3.227280378341675,-1.0953975915908813,135.65325927734375,-165.0932159423828, 16.124286651611328
426,70209350,0.46026692,0.1299774,-0.8769006,0.048018217,12.557732582092285,6.047235488891602,-4.265829086303711,71.16127014160156,-156.22021484375, 10.399680137634277
427,70226017,0.44221884,0.13478498,-0.8852466,0.05113126,11.049690246582031,3.6535403728485107,-2.1745009422302246,46.51381301879883,-134.9218292236328, -5.92769193649292
428,70242684,0.42876723,0.1420813,-0.89046,0.055251688,9.949845314025879,2.010218620300293,3.8606162071228027,57.06669998168945,-97.37715911865234, -22.511821746826172
429,70259351,0.42151558,0.14887187,-0.8925977,0.058578186,7.953297138214111,-1.3174257278442383,5.001143455505371,45.840484619140625,-50.97830581665039, -27.10654067993164
430,70276018,0.41742522,0.15638456,-0.89277947,0.06515517,6.720797538757324,-0.44134724140167236,3.663721799850464,65.43663787841797,-22.916080474853516, -25.398061752319336
431,70292685,0.41886738,0.1630693,-0.89057964,0.0694722,6.830264568328857,0.9214218854904175,4.152182579040527,44.31151580810547,15.790079116821289, -31.83949089050293
432,70309352,0.42640877,0.16805354,-0.8859998,0.07027012,6.475955486297607,0.5702826380729675,3.8562557697296143,12.177319526672363,56.82515335083008, -37.138832092285156
433,70326019,0.43963405,0.17065051,-0.879191,0.06799789,6.209665298461914,1.0681012868881226,3.877429723739624,-19.002851486206055,95.56432342529297, -36.91965866088867
434,70342686,0.45894718,0.16925643,-0.8700111,0.061649933,5.872971057891846,-0.1721590906381607,3.184711456298828,-61.729373931884766,136.59671020507812, -30.74427032470703
435,70359353,0.48249638,0.16612999,-0.858121,0.05680467,6.132990837097168,-0.44975265860557556,2.457556962966919,-61.981727600097656,172.95968627929688, -20.599626541137695
436,70376020,0.5097099,0.16110198,-0.8434911,0.05258234,6.387747287750244,-0.7038145065307617,1.4660112857818604,-67.72850799560547,205.1195068359375, -11.883666038513184
437,70392687,0.5393022,0.1548076,-0.82620907,0.050660197,7.267806529998779,-1.0471138954162598,0.5042264461517334,-60.49913024902344,231.2182159423828, -0.28499865531921387
438,70409354,0.57106096,0.14722253,-0.8059733,0.051203586,8.501897811889648,-1.0151406526565552,-0.28649649024009705,-52.55580139160156,257.5618591308594, 12.283488273620605
439,70426021,0.6048426,0.13869078,-0.78230757,0.054085426,9.835174560546875,-1.3586822748184204,-1.2946257591247559,-44.154911041259766,284.9598388671875, 22.522350311279297
440,70442688,0.6391228,0.13118635,-0.7553615,0.06116763,10.95284652709961,-1.2120529413223267,-1.3971704244613647,-16.5388240814209,304.9290466308594, 31.1474552154541
441,70459355,0.67333215,0.12484095,-0.72523767,0.07119505,12.89677619934082,-1.228621482849121,-1.9744532108306885,5.256638050079346,320.7202453613281, 35.2346305847168
442,70476022,0.70614237,0.12111992,-0.69245774,0.08482592,14.24886417388916,-1.0015413761138916,-3.9309773445129395,37.88551330566406,327.8747863769531, 37.239768981933594
443,70492689,0.737052,0.12009685,-0.6573105,0.10136167,16.73187255859375,0.755065381526947,-5.753820419311523,67.7845687866211,331.20989990234375, 37.64356994628906
444,70509356,0.76585007,0.120668955,-0.6203907,0.11844047,18.164339065551758,-0.25203371047973633,-7.475790977478027,81.298095703125,330.045166015625, 33.21187210083008
445,70526023,0.7911274,0.124413155,-0.582589,0.13866974,19.172449111938477,-0.884330153465271,-9.025617599487305,115.0785140991211,319.7801208496094, 38.41749954223633
446,70542690,0.8110114,0.12911649,-0.54852635,0.15719013,16.81146812438965,5.420806407928467,-10.950516700744629,114.47212982177734,275.5196533203125, 33.61545944213867
447,70559357,0.8305112,0.11372773,-0.52208877,0.15729173,13.644524574279785,4.56947135925293,-13.429167747497559,-75.0061264038086,237.00082397460938, 13.891029357910156
448,70576024,0.8449067,0.09279044,-0.5040743,0.15307587,12.028959274291992,0.1317501962184906,-15.192476272583008,-127.34246063232422,173.31350708007812, 21.279159545898438
449,70592691,0.8538,0.07155183,-0.49545637,0.14293057,9.042481422424316,4.646121978759766,-16.288558959960938,-156.03778076171875,96.31429290771484, -0.3429306447505951
450,70609358,0.8577411,0.051278863,-0.49537188,0.1275044,7.252416610717773,0.20978645980358124,-17.891498565673828,-174.34246826171875,25.929100036621094, -25.53891944885254
451,70626025,0.8553782,0.046028186,-0.50221294,0.118286826,10.75078010559082,1.0102803707122803,-12.251972198486328,-68.45462799072266,-47.2340087890625, -32.111385345458984
452,70642692,0.8497114,0.046064265,-0.5126735,0.11416886,13.6649751663208,-0.8304221034049988,7.403385162353516,-21.66872787475586,-82.50698852539062, -16.53380584716797
453,70659359,0.8458922,0.039833967,-0.52112526,0.106339976,12.78338623046875,-3.624925136566162,3.7959506511688232,-70.36663818359375,-60.52962112426758, -18.205543518066406
454,70676026,0.8384943,0.039012466,-0.533452,0.10408853,14.779275894165039,-4.838372230529785,-3.8614211082458496,-20.76842498779297,-98.30999755859375, -1.4817728996276855
455,70692693,0.83033174,0.043271404,-0.5465159,0.09998635,13.721095085144043,-3.3569979667663574,-2.2940409183502197,1.4152873754501343,-109.43463134765625, -30.068439483642578
456,70709360,0.8206309,0.05513652,-0.5599022,0.10017272,13.060132026672363,-2.3383939266204834,-2.5393025875091553,61.18907165527344,-120.96643829345703, -33.038204193115234
457,70726027,0.8105154,0.0664422,-0.573781,0.09708702,12.768080711364746,8.905961036682129,-1.5527299642562866,45.24562072753906,-126.15630340576172, -48.89723587036133
458,70742694,0.8033127,0.061761733,-0.58614963,0.08545679,10.324972152709961,1.0949413776397705,0.5096712708473206,-77.91288757324219,-99.44808959960938, -36.01338577270508
459,70759361,0.7960876,0.06127253,-0.5967911,0.07956566,9.000560760498047,0.9089815020561218,0.023194968700408936,-30.615671157836914,-90.01678466796875, -21.90479278564453
460,70776028,0.78928953,0.0634509,-0.6058821,0.07683206,11.248716354370117,-1.3162230253219604,-0.4673997163772583,-2.394932985305786,-79.90147399902344, -16.4433536529541
461,70792695,0.7829116,0.067040004,-0.61389303,0.07543561,11.242609024047852,-0.0227329321205616,0.4367063343524933,11.217719078063965,-72.43965148925781, -15.766745567321777
462,70809362,0.7779861,0.06576253,-0.62092525,0.06974924,10.094868659973145,0.40776458382606506,1.1346932649612427,-33.25108337402344,-60.49043655395508, -19.520442962646484
463,70826029,0.7737221,0.062969685,-0.62724483,0.062871754,10.117180824279785,-1.2449126243591309,0.6297564506530762,-46.40139389038086,-53.672645568847656, -20.05088996887207
464,70842696,0.76904666,0.06374055,-0.6333234,0.058359984,10.27196979522705,-0.7327531576156616,0.782422661781311,-16.959186553955078,-54.683509826660156, -22.76503562927246
465,70859363,0.7643644,0.06508705,-0.6391641,0.05458987,10.052955627441406,0.30063918232917786,0.91277676820755,-10.58920955657959,-53.366485595703125, -21.455514907836914
466,70876030,0.7595976,0.06694805,-0.6448566,0.05186389,9.803720474243164,0.14658430218696594,0.8341789245605469,-3.2050416469573975,-52.69111251831055, -18.26129722595215
467,70892697,0.75445616,0.07057957,-0.6505555,0.050912503,9.894756317138672,0.2551429271697998,0.7246531844139099,14.079183578491211,-54.20708084106445, -16.70861053466797
468,70909364,0.74938744,0.07355453,-0.6561627,0.049587354,9.916428565979004,0.9342971444129944,0.5018386840820312,8.997207641601562,-53.363006591796875, -15.78332233428955
469,70926031,0.7446476,0.074567735,-0.6616182,0.04691726,9.703840255737305,0.5937097072601318,0.3882317841053009,-7.294506549835205,-51.11423873901367, -14.046528816223145
470,70942698,0.7395357,0.07625935,-0.66726816,0.04499899,9.402946472167969,0.5931396484375,0.17318326234817505,-0.27453261613845825,-53.64130783081055, -13.061065673828125
471,70959365,0.7341964,0.07791506,-0.6730672,0.04319396,9.367931365966797,0.8222004175186157,0.2394481599330902,0.13599856197834015,-55.376495361328125, -12.170138359069824
472,70976032,0.7286842,0.07890307,-0.6790619,0.0408508,9.43947982788086,0.5723105669021606,0.33325672149658203,-5.690519332885742,-57.260009765625, -11.636592864990234
473,70992699,0.72298753,0.07982283,-0.6851633,0.038323805,9.57245922088623,0.4241482615470886,0.12637120485305786,-6.818892478942871,-58.74485397338867, -12.126448631286621
474,71009366,0.71714675,0.08066263,-0.6913203,0.035645336,9.771522521972656,0.775881290435791,0.07565391808748245,-7.872669219970703,-59.768856048583984, -12.433672904968262
475,71026033,0.7111536,0.08127458,-0.69755065,0.032835998,9.896627426147461,0.660771369934082,-0.6545839309692383,-9.528888702392578,-60.87911605834961, -11.913809776306152
476,71042700,0.70514697,0.08201777,-0.703647,0.030362383,10.181251525878906,0.5156368017196655,-0.9894096851348877,-7.292340278625488,-60.13500213623047, -10.970897674560547
477,71059367,0.6993155,0.08268521,-0.70948434,0.02744671,10.472793579101562,0.4805636703968048,-1.0839359760284424,-9.79366683959961,-58.268310546875, -12.93066120147705
478,71076034,0.6933886,0.08345227,-0.7152956,0.02450318,9.812779426574707,0.4739191234111786,-1.067410945892334,-9.411996841430664,-58.649967193603516, -13.547309875488281
479,71092701,0.6871794,0.08440731,-0.72123796,0.02181259,9.724274635314941,0.8466343879699707,-1.0277690887451172,-7.119287967681885,-60.55937576293945, -13.144655227661133
480,71109368,0.68080276,0.08556837,-0.7271893,0.019536773,9.745077133178711,0.9375228881835938,-0.9759777784347534,-3.993689775466919,-61.234989166259766, -12.174908638000488
481,71126035,0.6738843,0.08687872,-0.7334991,0.017640786,10.009354591369629,0.7874029278755188,-0.8279284834861755,-1.1222120523452759,-65.4346694946289, -10.858735084533691
482,71142702,0.666313,0.08861577,-0.7402171,0.015903268,10.018957138061523,0.6210916042327881,-0.9380031228065491,1.9990754127502441,-70.59516906738281, -11.954854011535645
483,71159369,0.6580746,0.09091728,-0.7473051,0.014390193,10.014102935791016,0.9533370733261108,-0.94022536277771,6.0961103439331055,-75.63105010986328, -13.504552841186523
484,71176036,0.64926517,0.093546614,-0.75467306,0.013139153,9.989815711975098,1.43314528465271,-1.1204887628555298,9.260662078857422,-79.72305297851562, -13.7735013961792
485,71192703,0.6397746,0.09632095,-0.76239187,0.013013737,11.068540573120117,0.3724231421947479,-1.576785922050476,16.16057014465332,-84.13508605957031, -9.212258338928223
486,71209370,0.62938136,0.099417344,-0.7705872,0.013808142,11.809432983398438,0.23172959685325623,-1.0219148397445679,22.959156036376953,-90.40425109863281, -6.4676361083984375
487,71226037,0.6178352,0.10249212,-0.77944344,0.015594364,13.592616081237793,0.33860060572624207,0.010885357856750488,28.85284996032715,-98.72283172607422, -1.5120763778686523
488,71242704,0.6045502,0.10495721,-0.7894124,0.018202238,14.90461254119873,-0.12262281030416489,1.1768900156021118,31.78364372253418,-112.17003631591797, 6.2031755447387695
489,71259371,0.58872104,0.107876256,-0.8008049,0.021950645,15.87753963470459,-0.9288207292556763,2.225950241088867,41.53291702270508,-131.19261169433594, 9.80774211883545
490,71276038,0.5709968,0.11061896,-0.8131881,0.021247597,17.93891143798828,-0.35769468545913696,4.217894554138184,17.578514099121094,-148.98724365234375, -6.244180679321289
491,71292705,0.5521843,0.11352221,-0.82577103,0.017539397,22.546327590942383,-1.8847401142120361,4.880985260009766,2.219148635864258,-158.26693725585938, -18.649572372436523
492,71309372,0.53301626,0.11767713,-0.8377438,0.015201276,20.916563034057617,-1.9598437547683716,5.142362594604492,15.1189603805542,-157.1722869873047, -21.02653694152832
493,71326039,0.51163,0.122208,-0.85034037,0.0148802735,18.228431701660156,-3.5143673419952393,2.6142005920410156,29.859363555908203,-170.766357421875, -15.100296974182129
494,71342706,0.48875415,0.13172011,-0.8619751,0.027716339,14.505901336669922,-1.0715835094451904,0.1910020112991333,125.66706848144531,-165.648193359375, 1.3655762672424316
495,71359373,0.46703458,0.14134121,-0.87191623,0.04078874,11.686674118041992,5.50663948059082,-4.427810192108154,126.70738983154297,-152.9698486328125, -0.24874666333198547
496,71376040,0.44873014,0.14877152,-0.8798686,0.048367176,10.522583961486816,2.310251235961914,-3.0577268600463867,83.98725128173828,-130.84149169921875, -7.603023529052734
497,71392707,0.43327132,0.16073754,-0.8846475,0.061954547,8.00969409942627,2.1594276428222656,1.1748828887939453,132.49447631835938,-99.21923065185547, -20.675535202026367
498,71409374,0.42452535,0.17271121,-0.8857862,0.07302076,7.456840515136719,2.418513298034668,5.874796390533447,111.3263168334961,-50.37057113647461, -35.09221649169922
499,71426041,0.42271218,0.17970382,-0.8848784,0.077532366,5.8580322265625,0.4122380316257477,4.887866020202637,49.68613052368164,-7.524563312530518, -29.7806396484375
500,71442708,0.42709047,0.1835207,-0.88195586,0.07789628,6.019527435302734,-0.46632978320121765,4.370256423950195,8.658540725708008,32.51740264892578, -28.301637649536133
501,71459375,0.4368991,0.185791,-0.87672514,0.077163115,5.786443710327148,-0.476595401763916,4.143876552581787,-8.141436576843262,71.62447357177734, -27.973974227905273
502,71476042,0.45225626,0.18608728,-0.86915964,0.073467724,5.864392280578613,0.6499887108802795,3.4088001251220703,-37.767906188964844,109.31039428710938, -30.90892791748047
503,71492709,0.4736558,0.18220657,-0.8591916,0.06512291,6.324798107147217,0.4576888680458069,2.6238608360290527,-85.0488052368164,149.0288543701172, -26.5390625
504,71509376,0.49996996,0.17457198,-0.8464959,0.0547679,6.806796550750732,-0.35052457451820374,1.8364853858947754,-114.0802001953125,186.09573364257812, -16.54105567932129
505,71526043,0.52900785,0.16424474,-0.8313223,0.045582358,7.423299312591553,-1.730512261390686,0.6339751482009888,-118.86255645751953,212.87796020507812, -0.867811918258667
506,71542710,0.55951995,0.15374134,-0.81342447,0.040523075,8.09359359741211,-1.2828657627105713,-0.15657547116279602,-96.72430419921875,235.92831420898438, 11.5824613571167
507,71559377,0.59137386,0.14234854,-0.7927966,0.038569637,9.006475448608398,-1.7008477449417114,-0.9864358901977539,-83.43113708496094,257.4770202636719, 25.228734970092773
508,71576044,0.6232608,0.13208818,-0.76962173,0.042204376,10.362897872924805,-2.0893537998199463,-1.4066815376281738,-47.714290618896484,273.1960144042969, 39.261207580566406
509,71592711,0.65523887,0.12362685,-0.7435418,0.0502425,11.770563125610352,-1.2698109149932861,-1.2409865856170654,-15.936840057373047,289.6265869140625, 45.93484115600586
510,71609378,0.6868241,0.117520705,-0.71459985,0.061715126,13.268754959106445,-0.5042693018913269,-1.4535083770751953,13.565937995910645,302.64056396484375, 47.0699348449707
511,71626045,0.7178632,0.11184368,-0.6831635,0.0738316,15.073822021484375,0.3467991352081299,-2.5541422367095947,20.260297775268555,312.1033935546875, 46.22700881958008
512,71642712,0.7474182,0.10693604,-0.64993185,0.08671458,17.371047973632812,0.12943892180919647,-3.9723362922668457,29.71329689025879,314.23291015625, 45.78560256958008
513,71659379,0.7737785,0.10579583,-0.6161402,0.102203846,18.687742233276367,0.20873211324214935,-5.093578815460205,63.406593322753906,302.55828857421875, 43.85106658935547
514,71676046,0.7979659,0.105511524,-0.5816079,0.1176869,17.45270347595215,-0.03312709927558899,-6.4706830978393555,70.02325439453125,296.76776123046875, 41.193450927734375
515,71692713,0.81857294,0.105852485,-0.5483205,0.13445565,16.857765197753906,0.14943605661392212,-7.078127384185791,80.17249298095703,276.13482666015625, 49.55742645263672
516,71709380,0.8348496,0.10316845,-0.5200973,0.14792342,14.789057731628418,1.5346636772155762,-11.067482948303223,49.14030456542969,231.78257751464844, 50.069984436035156
517,71726047,0.8472376,0.09373288,-0.49921456,0.15552424,11.481856346130371,2.1969704627990723,-12.93083667755127,-15.334964752197266,178.57113647460938, 49.70036315917969
518,71742714,0.8555687,0.078111015,-0.48798072,0.15419377,8.800084114074707,7.5374298095703125,-12.944853782653809,-89.76168823242188,109.4398193359375, 29.469432830810547
519,71759381,0.8614073,0.056491204,-0.48454562,0.14142801,6.520715236663818,2.342700242996216,-16.407657623291016,-170.40048217773438,55.55706024169922, -10.790152549743652
520,71776048,0.86099976,0.05054846,-0.48811945,0.13365588,8.71054744720459,-2.219804525375366,-14.288249969482422,-65.31954956054688,-19.920480728149414, -24.6251220703125
521,71792715,0.85713464,0.050798886,-0.49641648,0.12771282,11.22492504119873,5.052724361419678,-7.9022979736328125,-25.669231414794922,-64.39844512939453, -29.78012466430664
522,71809382,0.85167396,0.050523374,-0.5071636,0.12200091,13.307184219360352,3.1375272274017334,5.746712684631348,-29.612634658813477,-83.64228057861328, -24.325590133666992
523,71826049,0.84823644,0.04597121,-0.51498765,0.11475915,12.2149658203125,-1.7761461734771729,4.78745698928833,-58.25898742675781,-56.419063568115234, -21.046628952026367
524,71842716,0.84133625,0.046376195,-0.52666897,0.112351045,15.280086517333984,-4.361629009246826,-3.5284531116485596,-14.178499221801758,-93.56387329101562, -6.459573268890381
525,71859383,0.8336556,0.05000074,-0.53923976,0.10834626,13.581305503845215,-4.643796920776367,-2.4063172340393066,-1.771241545677185,-104.45547485351562, -26.498300552368164
526,71876050,0.82376236,0.06523781,-0.5524778,0.10921597,12.215128898620605,1.031030297279358,-5.41848611831665,83.13104248046875,-123.40855407714844, -39.77922058105469
527,71892717,0.8144119,0.07164877,-0.5668142,0.10159568,15.543527603149414,2.5115513801574707,0.4058822989463806,-0.20930783450603485,-124.67561340332031, -54.25265121459961
528,71909384,0.80635893,0.07180578,-0.57982486,0.091828145,9.336518287658691,-0.07134503126144409,0.4865280091762543,-43.33666229248047,-108.85537719726562, -43.4322395324707
529,71926051,0.7988742,0.07352307,-0.59097606,0.08450974,8.787480354309082,1.3933104276657104,-0.03891003131866455,-24.038183212280273,-96.05239868164062, -37.338523864746094
530,71942718,0.7912331,0.0798888,-0.6006544,0.08235668,10.796610832214355,-0.17132709920406342,-0.2036985456943512,23.4056396484375,-88.68421173095703, -28.494083404541016
531,71959385,0.78383744,0.08664738,-0.60942835,0.08178356,10.828425407409668,1.2061741352081299,0.8453410863876343,32.43736267089844,-82.09516906738281, -22.164968490600586
532,71976052,0.77776617,0.08840177,-0.61743164,0.07773847,10.18155574798584,1.3697330951690674,1.0312776565551758,-9.441964149475098,-71.64842224121094, -21.104145050048828
533,71992719,0.77257943,0.087430984,-0.6247338,0.072006404,10.119985580444336,0.20894776284694672,0.7223343849182129,-31.344087600708008,-63.720829010009766, -19.438888549804688
534,72009386,0.76760393,0.087288,-0.63140494,0.06702881,10.494905471801758,-0.03991592675447464,0.7133468389511108,-23.52252197265625,-59.42341995239258, -19.46367835998535
535,72026053,0.76266897,0.08899628,-0.637469,0.0636317,10.04299545288086,0.2447894811630249,0.19561603665351868,-6.6380109786987305,-55.95448684692383, -19.54102897644043
536,72042720,0.75812244,0.090311535,-0.6430089,0.06028214,10.073802947998047,0.8688847422599792,0.27858468890190125,-8.502124786376953,-51.30537796020508, -18.05872344970703
537,72059387,0.7540137,0.08976313,-0.6482716,0.056123536,10.254890441894531,0.8250511884689331,0.16535961627960205,-21.951475143432617,-47.659385681152344, -14.381937026977539
538,72076054,0.7502897,0.088230886,-0.65313846,0.05187675,10.094757080078125,0.5265134572982788,0.2102506160736084,-27.531755447387695,-43.571414947509766, -10.837810516357422
539,72092721,0.7467847,0.08813558,-0.65734977,0.04935852,9.855705261230469,0.34302666783332825,0.28476834297180176,-12.256481170654297,-38.6750602722168, -8.844733238220215
540,72109388,0.7433562,0.088583626,-0.6613058,0.047425468,9.928841590881348,0.6462879180908203,0.26048532128334045,-6.7807536125183105,-36.85517501831055, -8.476540565490723
541,72126055,0.7400707,0.0877226,-0.66529346,0.04455413,9.947530746459961,0.6236887574195862,0.27790528535842896,-17.83467674255371,-36.51824188232422, -7.343960285186768
542,72142722,0.73660415,0.087079674,-0.6693908,0.041802328,9.664443969726562,0.22926512360572815,0.3761068880558014,-16.101661682128906,-37.90632629394531, -7.607940196990967
543,72159389,0.73256963,0.087906055,-0.67381823,0.039792195,9.25964641571045,0.44275519251823425,0.5112311840057373,-4.999927520751953,-42.17926788330078, -10.254497528076172
544,72176056,0.7280797,0.08920303,-0.6786038,0.03794666,9.429146766662598,0.2761380076408386,0.25430795550346375,-1.6883256435394287,-46.13545227050781, -11.264938354492188
545,72192723,0.7228927,0.09123317,-0.68393815,0.036488313,9.412278175354004,0.30147382616996765,0.43623530864715576,4.073939800262451,-52.09709548950195, -12.232390403747559
546,72209390,0.71708965,0.09369168,-0.6897604,0.035143845,9.5183744430542,0.6557056307792664,0.19146691262722015,7.004744052886963,-57.469547271728516, -13.224230766296387
547,72226057,0.7109275,0.096200086,-0.6958404,0.033677522,9.643075942993164,0.6318924427032471,-0.5097269415855408,6.843301296234131,-60.54803466796875, -13.809967994689941
548,72242724,0.70452166,0.0985699,-0.70209575,0.031539727,10.339312553405762,1.2772566080093384,-0.4939102232456207,3.0749332904815674,-62.992923736572266, -16.258119583129883
549,72259391,0.69789577,0.09987226,-0.70864207,0.028168725,9.735490798950195,1.2614407539367676,-0.668681263923645,-7.961058616638184,-66.0832748413086, -16.828346252441406
550,72276058,0.6907147,0.101255536,-0.71555734,0.025265278,9.768351554870605,1.1438848972320557,-0.760595440864563,-4.983618259429932,-70.2685546875, -14.61217212677002
551,72292725,0.68298584,0.102459066,-0.72285306,0.022717344,9.837059020996094,0.86683189868927,-0.9524316787719727,-3.7693943977355957,-74.50768280029297, -11.675592422485352
552,72309392,0.67468923,0.104029685,-0.7304524,0.020288188,9.786676406860352,0.559721052646637,-1.2039945125579834,-1.0986173152923584,-78.7465591430664, -12.639470100402832
553,72326059,0.66600996,0.10574175,-0.7381882,0.018102972,10.076943397521973,0.8421108722686768,-1.470778226852417,1.0411745309829712,-81.16361236572266, -12.070566177368164
554,72342726,0.65707785,0.108049236,-0.74585706,0.016476512,9.732601165771484,0.6756238341331482,-1.889248013496399,6.799279689788818,-81.82506561279297, -12.553382873535156
555,72359393,0.6475772,0.111387394,-0.7536355,0.01643837,10.925395011901855,1.8722504377365112,-1.0529030561447144,20.01365089416504,-84.1884536743164, -10.522336959838867
556,72376060,0.6376063,0.114822395,-0.7615688,0.016944429,11.77193832397461,-0.1801043301820755,-1.3399288654327393,23.61631202697754,-86.93539428710938, -8.426807403564453
557,72392727,0.62667,0.11852403,-0.7699972,0.018467791,12.937495231628418,0.054023366421461105,-0.8008278608322144,30.823152542114258,-93.41814422607422, -4.878015518188477
558,72409394,0.61446404,0.121607885,-0.7792342,0.020973574,14.01347827911377,0.06935255229473114,0.2769547700881958,34.30339813232422,-102.78267669677734, 3.427165985107422
559,72426061,0.60083437,0.12488264,-0.789174,0.024634983,15.008124351501465,-0.4508672058582306,1.8786088228225708,42.405216217041016,-112.4984130859375, 8.060402870178223
560,72442728,0.58699405,0.12772058,-0.7990157,0.026446616,16.566303253173828,-0.6236060857772827,2.969388961791992,30.77824592590332,-114.82408905029297, 2.715036630630493
561,72459395,0.5720958,0.13165794,-0.80914485,0.025641669,19.026182174682617,-2.021735429763794,4.344803810119629,21.735679626464844,-124.38835906982422, -13.467347145080566
562,72476062,0.5545178,0.13655485,-0.8205133,0.024915447,22.01162338256836,-3.211310386657715,4.683164596557617,28.173439025878906,-144.38955688476562, -16.9442138671875
563,72492729,0.5335571,0.142155,-0.83333147,0.025838183,19.674684524536133,-2.0831289291381836,4.026176452636719,43.10089874267578,-167.71299743652344, -12.740250587463379
564,72509396,0.5107252,0.14521162,-0.84698313,0.026325043,17.570016860961914,-4.9073357582092285,4.5830583572387695,32.96403884887695,-181.5909423828125, 1.3424136638641357
565,72526063,0.4851027,0.15371479,-0.85986173,0.041046314,14.342473983764648,1.429258942604065,-1.8407256603240967,137.92152404785156,-182.03846740722656, 19.29026222229004
566,72542730,0.4621249,0.15987691,-0.87083185,0.05031819,12.814623832702637,6.040637493133545,-4.176803112030029,95.63284301757812,-165.18011474609375, 12.202919006347656
567,72559397,0.44342718,0.165734,-0.8791706,0.054441705,10.418136596679688,4.6522722244262695,-2.1228079795837402,60.06546401977539,-136.7661895751953, -6.652679443359375
568,72576064,0.43101853,0.17288974,-0.8837324,0.05787405,9.085190773010254,2.2930943965911865,4.5581955909729,54.11954116821289,-88.53804016113281, -23.23041343688965
569,72592731,0.42603144,0.17840707,-0.8849324,0.0596899,6.70744514465332,-1.0906442403793335,6.460351943969727,31.986995697021484,-34.83148956298828, -25.002578735351562
570,72609398,0.42547682,0.18348306,-0.88384515,0.064197235,5.19854211807251,0.056954123079776764,4.433225631713867,42.58385467529297,2.2402637004852295, -19.071117401123047
571,72626065,0.4310733,0.18655384,-0.880351,0.06599871,5.546202659606934,0.7419113516807556,3.8337936401367188,13.591533660888672,44.08062744140625, -20.551788330078125
572,72642732,0.4424152,0.18818153,-0.8743154,0.06655389,5.5592360496521,0.09187346696853638,3.4702582359313965,-4.423664569854736,85.4004898071289, -21.37725257873535
573,72659399,0.45854464,0.18693632,-0.86627674,0.06600198,5.53238582611084,0.1732916235923767,2.83843994140625,-25.08232307434082,120.11841583251953, -12.260174751281738
574,72676066,0.47971627,0.1824207,-0.85595167,0.06278245,5.900547027587891,1.8357278108596802,1.795518398284912,-56.71193313598633,155.38986206054688, -6.4259114265441895
575,72692733,0.50590944,0.17293087,-0.8432793,0.055051427,6.13746976852417,0.9583176970481873,0.4369860887527466,-104.94427490234375,189.1660919189453, 2.858304738998413
576,72709400,0.5349484,0.15986204,-0.82832634,0.04636703,6.933164596557617,0.34148120880126953,-0.22461237013339996,-125.43637084960938,213.8274688720703, 16.495433807373047
577,72726067,0.56568635,0.14405121,-0.8110471,0.038091857,7.735153675079346,-0.1149195060133934,-0.898503303527832,-134.31834411621094,233.39491271972656, 30.505674362182617
578,72742734,0.59736544,0.12707354,-0.79115045,0.032985244,9.344775199890137,-0.5415960550308228,-1.9366756677627563,-121.43034362792969,252.28236389160156, 46.482967376708984
579,72759401,0.6292193,0.11048809,-0.7686463,0.032533117,10.608463287353516,-0.6148310899734497,-2.181063175201416,-94.05899047851562,267.94219970703125, 61.13557434082031
580,72776068,0.6604683,0.09665126,-0.7436621,0.03750913,11.808544158935547,-0.23870564997196198,-2.3320369720458984,-52.455322265625,279.00445556640625, 68.33483123779297
581,72792735,0.690436,0.086593114,-0.7165885,0.047964547,12.896900177001953,0.6774899959564209,-2.996568202972412,-5.879827976226807,284.6326904296875, 72.84249114990234
582,72809402,0.7197433,0.07854827,-0.687073,0.06107767,15.00037670135498,1.4883737564086914,-3.091135263442993,17.97258186340332,293.9325866699219, 74.32360076904297
583,72826069,0.7482011,0.07317257,-0.6549864,0.07638064,16.495468139648438,0.4860873818397522,-3.9214935302734375,43.068634033203125,302.7580261230469, 71.55097961425781
584,72842736,0.7750626,0.07237727,-0.6205932,0.094359,17.262088775634766,0.6204309463500977,-5.348722457885742,80.6937484741211,306.4489440917969, 64.38776397705078
585,72859403,0.7995651,0.07291023,-0.5855622,0.111789435,17.34979820251465,2.0680339336395264,-6.890772819519043,87.00421905517578,298.73284912109375, 57.034629821777344
586,72876070,0.821262,0.07088192,-0.5520146,0.12563665,16.223163604736328,2.0923070907592773,-8.078376770019531,58.729949951171875,279.5550231933594, 50.573970794677734
587,72892737,0.83873016,0.06929216,-0.5223931,0.13724504,14.30994987487793,2.5295751094818115,-9.320734977722168,51.342185974121094,239.97523498535156, 41.84831237792969
588,72909404,0.8532305,0.060382,-0.49921906,0.13831888,12.129193305969238,5.937503814697266,-11.023579597473145,-33.42402648925781,194.14930725097656, 13.273626327514648
589,72926071,0.8633261,0.04572842,-0.4846498,0.13301013,9.482290267944336,2.924934148788452,-15.039084434509277,-95.43245697021484,131.5093231201172, 3.3457720279693604
590,72942738,0.86813396,0.03342553,-0.47947684,0.123806976,7.9399919509887695,1.4659385681152344,-16.22924041748047,-101.41893005371094,54.91106414794922, -19.794178009033203
591,72959405,0.8671971,0.028576035,-0.48332092,0.11641965,7.878295421600342,0.3717063367366791,-14.744449615478516,-57.3279914855957,-23.60214614868164, -26.553813934326172
592,72976072,0.86196655,0.028615402,-0.49373946,0.111427955,10.39515209197998,3.097193717956543,-10.26036548614502,-24.658824920654297,-80.35478973388672, -23.785871505737305
593,72992739,0.85692054,0.02735593,-0.50379133,0.10551461,14.009546279907227,2.2241086959838867,13.454781532287598,-35.274898529052734,-76.61280059814453, -25.023649215698242
594,73009406,0.853229,0.019203711,-0.512158,0.09657162,11.415128707885742,-3.7224209308624268,5.664613246917725,-85.42355346679688,-57.63251495361328, -20.25400161743164
595,73026073,0.84697914,0.015310019,-0.5234811,0.09143044,13.524408340454102,-3.540011167526245,-2.924211025238037,-48.663963317871094,-86.32550811767578, -10.867772102355957
596,73042740,0.83969986,0.016600624,-0.5360317,0.08543093,13.946647644042969,-4.503342151641846,-2.606523275375366,-22.22199821472168,-100.45574951171875, -33.76634979248047
597,73059407,0.8315767,0.022581208,-0.5489253,0.08155508,12.6478271484375,-5.125049591064453,-0.450070858001709,12.580360412597656,-107.99059295654297, -38.28739547729492
598,73076074,0.8222499,0.03737812,-0.5619596,0.081912234,10.2247953414917,5.5685272216796875,-3.6797735691070557,79.07805633544922,-117.59149169921875, -46.714385986328125
599,73092741,0.81434274,0.036049046,-0.57505876,0.06967094,13.987162590026855,4.762209415435791,1.3043558597564697,-61.22020721435547,-106.57024383544922, -56.36268997192383
600,73109408,0.8068934,0.03315062,-0.5866589,0.060460277,9.568402290344238,-0.9773605465888977,-1.0281637907028198,-57.44701385498047,-94.84767150878906, -33.711517333984375
601,73126075,0.79920715,0.03787212,-0.5970247,0.0582708,10.797776222229004,-2.111250877380371,-1.1099621057510376,13.709088325500488,-90.50138854980469, -25.677146911621094
602,73142742,0.791882,0.0459479,-0.6061283,0.05848375,10.967677116394043,0.3140997588634491,0.392744243144989,42.412513732910156,-82.77758026123047, -26.743488311767578
603,73159409,0.7862399,0.045571685,-0.6139723,0.052801527,10.540327072143555,1.7060667276382446,1.2909892797470093,-28.20626449584961,-67.3635482788086, -24.68845558166504
604,73176076,0.78134847,0.042677294,-0.6209636,0.04558189,10.455242156982422,-1.4323538541793823,0.15594063699245453,-48.2421760559082,-59.15928268432617, -22.88010597229004
605,73192743,0.77655596,0.043177307,-0.62723166,0.040955435,9.979074478149414,-0.7870703339576721,0.3594297170639038,-18.739816665649414,-55.15207290649414, -23.688962936401367
606,73209410,0.77195925,0.045234002,-0.63293236,0.037811305,10.269006729125977,0.4453656077384949,0.7919036149978638,-3.9360241889953613,-51.27837371826172, -22.716514587402344
607,73226077,0.7677024,0.047391105,-0.6380708,0.035393596,10.250802040100098,0.08549024909734726,0.28726956248283386,-0.20492905378341675,-46.62060546875, -19.557199478149414
608,73242744,0.7635177,0.050613128,-0.6428981,0.03407732,9.829389572143555,0.3187122046947479,0.6009042263031006,10.296784400939941,-44.563941955566406, -18.537248611450195
609,73259411,0.75938463,0.051990166,-0.6477962,0.031499915,9.558332443237305,1.081045150756836,0.7787062525749207,-4.999370574951172,-44.71992492675781, -16.990015029907227
610,73276078,0.7550889,0.052042782,-0.6529449,0.028203897,9.415684700012207,0.78632652759552,1.1891306638717651,-15.112746238708496,-46.73336410522461, -14.707294464111328
611,73292745,0.7501573,0.05296749,-0.65862995,0.025791356,9.367578506469727,0.4730875790119171,1.1253900527954102,-6.494884014129639,-52.2408332824707, -13.712335586547852
612,73309412,0.7446555,0.053784788,-0.66487366,0.023209736,9.430334091186523,0.5514470338821411,0.9734838008880615,-7.704485893249512,-57.76237106323242, -13.789820671081543
613,73326079,0.7387606,0.054471813,-0.67145234,0.020433525,9.563494682312012,0.4252016842365265,0.7321998476982117,-9.167337417602539,-61.341041564941406, -13.999176979064941
614,73342746,0.73269504,0.05536202,-0.6780688,0.017773781,9.742242813110352,0.4545033872127533,0.16363146901130676,-7.5376715660095215,-62.3185920715332, -14.304466247558594
615,73359413,0.72685283,0.056447577,-0.684298,0.015329618,9.66433334350586,0.6882143020629883,-0.26936644315719604,-5.584232330322266,-59.27573776245117, -14.301631927490234
616,73376080,0.7211654,0.05721946,-0.6902783,0.012747703,9.72504711151123,0.6295915842056274,-0.6851755380630493,-7.833817958831787,-57.33038330078125, -13.622716903686523
617,73392747,0.7154796,0.058007803,-0.69614583,0.010266373,9.684765815734863,0.45311641693115234,-1.0012423992156982,-7.265065670013428,-56.72999572753906, -13.243936538696289
618,73409414,0.70980877,0.059038963,-0.7018714,0.00788872,10.575141906738281,0.3613066077232361,-0.9711878299713135,-5.570802211761475,-55.93942642211914, -13.953925132751465
619,73426081,0.70395064,0.06020486,-0.70767653,0.004783272,9.921417236328125,0.3517758250236511,-0.9499714374542236,-8.352909088134766,-57.54323959350586, -18.11603355407715
620,73442748,0.6974769,0.06194609,-0.713922,0.00203288,9.916851043701172,0.4025159478187561,-0.5811365246772766,-3.5990097522735596,-62.55320358276367, -18.997150421142578
621,73459415,0.69029796,0.06429811,-0.7206628,-0.00023698113,9.883459091186523,0.7957040071487427,-0.5751557350158691,1.9850645065307617,-68.21355438232422, -19.474863052368164
622,73476082,0.6826379,0.06674089,-0.7276996,-0.0022308864,9.934977531433105,1.0130270719528198,-0.7742493152618408,4.000095844268799,-71.9022216796875, -18.48532485961914
623,73492749,0.6746628,0.0691957,-0.7348643,-0.0040919962,9.763239860534668,1.0220743417739868,-1.4667853116989136,4.871667385101318,-74.03854370117188, -17.86829948425293
624,73509416,0.6665419,0.071490504,-0.7420101,-0.005681945,9.810342788696289,1.2998298406600952,-1.6936378479003906,5.572932243347168,-74.57978057861328, -15.815181732177734
625,73526083,0.65851396,0.07331797,-0.7489538,-0.0072306236,9.78702163696289,1.642491102218628,-1.737439751625061,3.5919888019561768,-73.19340515136719, -13.335077285766602
626,73542750,0.65046835,0.076160215,-0.7556626,-0.00804064,9.847283363342285,1.4890367984771729,-1.5631988048553467,11.992490768432617,-71.8157730102539, -15.331061363220215
627,73559417,0.64208543,0.080134794,-0.76238996,-0.008151556,10.836848258972168,1.79926598072052,-0.9015210866928101,20.87361717224121,-73.24417877197266, -18.096492767333984
628,73576084,0.63274837,0.08428118,-0.76971817,-0.0077651483,11.632132530212402,-0.12842318415641785,-1.1358492374420166,24.80839729309082,-80.64966583251953, -16.523887634277344
629,73592751,0.62229675,0.08774656,-0.7778187,-0.0067419116,13.116632461547852,-0.603620707988739,-0.938035249710083,25.912036895751953,-89.61121368408203, -9.784379005432129
630,73609418,0.6104412,0.09024755,-0.7868869,-0.0051195733,13.766881942749023,-0.11492103338241577,0.38374215364456177,25.892539978027344,-100.98660278320312, -1.5747802257537842
631,73626085,0.59638304,0.09355488,-0.7972272,-0.0019199365,14.58989429473877,-1.057638168334961,0.6681005358695984,39.24052810668945,-117.30168151855469, 1.3683875799179077
632,73642752,0.5794785,0.09741648,-0.8091365,0.0036118007,16.17490577697754,-0.5211315751075745,2.2398598194122314,56.16667556762695,-137.90570068359375, 8.826897621154785
633,73659419,0.5604694,0.102355696,-0.82180965,0.005119144,19.27528953552246,0.3277314603328705,4.514787673950195,39.483638763427734,-155.4822540283203, -12.673128128051758
634,73676086,0.5410993,0.10734305,-0.83406675,0.0046664597,23.583898544311523,-2.4931654930114746,3.856933832168579,28.89506721496582,-157.4435272216797, -20.80767250061035
635,73692753,0.5217759,0.112302944,-0.84564567,0.004651754,19.89739227294922,-0.7850451469421387,5.816061973571777,31.315082550048828,-154.48782348632812, -19.587974548339844
636,73709420,0.50216985,0.11581196,-0.85696733,0.004479706,17.35047149658203,-4.796829700469971,2.2667036056518555,25.449996948242188,-155.44981384277344, -11.948018074035645
637,73726087,0.47947413,0.12772928,-0.8678957,0.023386974,12.877542495727539,2.1841588020324707,-2.3084986209869385,169.39170837402344,-157.50390625, 4.098272800445557
638,73742754,0.45893717,0.13678512,-0.8771329,0.03612132,11.109916687011719,5.323729515075684,-5.788418769836426,121.49523162841797,-144.05184936523438, -0.9883386492729187
639,73759421,0.44180995,0.1459221,-0.883934,0.04659928,9.32322883605957,2.9101850986480713,-3.125838279724121,105.56204986572266,-117.94791412353516, -11.681466102600098
640,73776088,0.42982492,0.15857568,-0.88686407,0.059804495,7.919552326202393,2.5532336235046387,3.89754056930542,128.92190551757812,-73.35317993164062, -30.270252227783203
641,73792755,0.4258569,0.16850108,-0.8864023,0.067409985,6.6712141036987305,0.8995163440704346,6.163783550262451,79.3958740234375,-19.509632110595703, -37.15310287475586
642,73809422,0.4271723,0.17480716,-0.8842155,0.07161939,4.931075572967529,0.12753257155418396,3.929628372192383,42.8079833984375,15.38973617553711, -29.482507705688477
643,73826089,0.43421906,0.17821032,-0.8800614,0.07202079,5.8878889083862305,-0.026401536539196968,3.1900012493133545,5.2279953956604,52.80642318725586, -28.206817626953125
644,73842756,0.44671693,0.17979181,-0.87366116,0.069537185,6.284464359283447,0.7045499086380005,3.3937923908233643,-23.217529296875,89.81092071533203, -31.256961822509766
645,73859423,0.46510157,0.17698912,-0.8652349,0.061025877,6.154120445251465,0.4962623119354248,2.510218381881714,-79.17991638183594,125.990966796875, -28.763866424560547
646,73876090,0.4882911,0.1699144,-0.854541,0.04960638,6.212558746337891,-0.08316564559936523,1.6935111284255981,-115.02596282958984,160.0494384765625, -17.44211769104004
647,73892757,0.5148548,0.15960173,-0.84144354,0.037746694,6.567502498626709,-0.5199505090713501,0.3540363907814026,-131.59864807128906,188.51597595214844, -3.879215717315674
648,73909424,0.54355353,0.14767085,-0.82581055,0.027925745,7.5769572257995605,-0.7773708701133728,-0.39407214522361755,-127.2107162475586,212.49745178222656, 9.335577964782715
649,73926091,0.5738114,0.13470384,-0.80755633,0.021173393,8.136469841003418,-1.5512473583221436,-1.0096114873886108,-114.73502349853516,234.4647216796875, 23.70015525817871
650,73942758,0.60411626,0.12317338,-0.78704613,0.020746177,9.325447082519531,-1.824252724647522,-1.457561731338501,-73.6520767211914,249.2805633544922, 38.55461502075195
651,73959425,0.63432425,0.11329365,-0.764285,0.025803015,10.619741439819336,-0.7036592364311218,-1.6562771797180176,-36.71025848388672,262.52783203125, 50.48781204223633
652,73976092,0.66431594,0.10460768,-0.73930854,0.034126252,11.790282249450684,-0.2326619178056717,-2.044965982437134,-13.769786834716797,273.4034423828125, 56.770992279052734
653,73992759,0.6937231,0.09749618,-0.71217597,0.045259215,12.913972854614258,0.7272688150405884,-1.9208132028579712,8.637181282043457,281.95928955078125, 60.19643020629883
654,74009426,0.7228633,0.09019466,-0.68271726,0.056841936,14.778185844421387,0.7800472378730774,-2.537013292312622,10.837102890014648,292.1447448730469, 61.819091796875
655,74026093,0.75078404,0.08486871,-0.6512649,0.07053281,16.767454147338867,0.4854239523410797,-3.333065986633301,32.08191680908203,296.916259765625, 62.28876495361328
656,74042760,0.7766753,0.08294343,-0.61838806,0.08655764,17.82845115661621,0.5641480088233948,-4.019941329956055,61.96143341064453,294.9670104980469, 59.285858154296875
657,74059427,0.80075943,0.08250198,-0.5843105,0.10275898,16.825702667236328,0.9785876274108887,-5.063031196594238,72.36518859863281,293.0088195800781, 54.333126068115234
658,74076094,0.8217975,0.08288659,-0.55109274,0.11864114,16.089683532714844,1.1556681394577026,-6.463559627532959,76.72222137451172,275.3802795410156, 51.91691207885742
659,74092761,0.83878255,0.08425741,-0.52134186,0.13246684,14.279030799865723,3.7827863693237305,-7.813471794128418,73.95023345947266,238.57899475097656, 41.85300064086914
660,74109428,0.8539883,0.075870164,-0.49676552,0.13480313,11.953633308410645,4.283934593200684,-10.641561508178711,-27.257226943969727,204.7342071533203, 15.212458610534668
661,74126095,0.8644243,0.06639541,-0.48001477,0.13397063,10.792081832885742,1.336713194847107,-13.59953498840332,-49.284488677978516,142.01950073242188, 8.851296424865723
662,74142762,0.8701643,0.05689578,-0.47266436,0.12714389,7.441606521606445,2.8510749340057373,-14.140884399414062,-75.77152252197266,68.14398956298828, -18.077011108398438
663,74159429,0.87110394,0.048534315,-0.47409,0.11858029,8.339069366455078,-0.7123734951019287,-13.65329647064209,-80.45079040527344,-1.4448356628417969, -24.51645851135254
664,74176096,0.8674041,0.043683853,-0.48293558,0.11169239,8.886579513549805,1.2863978147506714,-12.539407730102539,-58.490013122558594,-63.12217712402344, -19.67389678955078
665,74192763,0.8612078,0.041695505,-0.4954666,0.10533644,10.18934440612793,2.7176852226257324,-8.753615379333496,-41.77766036987305,-95.2529525756836, -22.96748161315918
666,74209430,0.85662717,0.041080233,-0.5045798,0.09950757,14.69546890258789,1.2329108715057373,15.987060546875,-29.88462257385254,-70.21221160888672, -26.641094207763672
667,74226097,0.85335565,0.03244929,-0.51230204,0.09098389,11.735649108886719,-4.619808673858643,5.655211448669434,-85.86036682128906,-52.86788558959961, -15.947986602783203
668,74242764,0.8477005,0.028094167,-0.5226624,0.08624791,13.102998733520508,-2.3549184799194336,-4.376065731048584,-48.52439880371094,-78.58654022216797, -6.728390216827393
669,74259431,0.8409302,0.028061653,-0.534514,0.079647996,14.46073055267334,-3.3920035362243652,-1.3340888023376465,-30.70793914794922,-94.10293579101562, -32.18918991088867
670,74276098,0.833171,0.032375332,-0.5468848,0.07546508,12.269036293029785,-4.71668004989624,-0.18949314951896667,3.2051830291748047,-102.57903289794922, -33.57209396362305
671,74292765,0.8239693,0.04552829,-0.5598243,0.07482477,10.280247688293457,6.724611282348633,-3.1221694946289062,67.19371795654297,-115.02188873291016, -45.69720458984375
672,74309432,0.81636834,0.042484853,-0.57254106,0.062727265,12.750423431396484,3.207801580429077,1.647093415260315,-69.11921691894531,-102.78788757324219, -49.077186584472656
673,74326099,0.80864924,0.04006393,-0.58434975,0.054925907,9.192198753356934,-1.1047570705413818,-0.6091426610946655,-48.31481170654297,-97.15625, -27.563390731811523
674,74342766,0.8003601,0.045669444,-0.5953477,0.053843815,10.568319320678711,-1.6344311237335205,-0.606098473072052,23.766494750976562,-96.09904479980469, -22.464969635009766
675,74359433,0.7921431,0.053445615,-0.60555,0.054425217,10.813529968261719,1.2106969356536865,0.9915104508399963,42.78913497924805,-91.68341064453125, -22.50041389465332
676,74376100,0.78566355,0.052010246,-0.61456543,0.048344225,10.319551467895508,1.8525731563568115,1.091928482055664,-35.32465362548828,-76.98472595214844, -21.50411605834961
677,74392767,0.7801916,0.046695963,-0.6225328,0.039671008,10.350193977355957,-0.8907382488250732,0.11072085797786713,-67.25422668457031,-66.71129608154297, -19.78426170349121
678,74409434,0.7748452,0.045014888,-0.62963647,0.033862878,10.63305377960205,-1.048852801322937,0.03721942752599716,-35.308101654052734,-61.60725402832031, -20.26995849609375
679,74426101,0.7698124,0.04632139,-0.63585013,0.030629136,10.30612564086914,-0.48073306679725647,0.0006514117121696472,-8.13876724243164,-55.4031982421875, -19.842802047729492
680,74442768,0.7652674,0.04865808,-0.6412455,0.028329674,10.25356388092041,-0.019606802612543106,0.17214497923851013,1.4111647605895996,-48.85542678833008, -19.77176284790039
681,74459435,0.76113605,0.05082214,-0.6460665,0.026213598,10.19436264038086,0.4601501226425171,0.3646789789199829,1.2819066047668457,-43.916805267333984, -18.322099685668945
682,74476102,0.75738525,0.05181065,-0.6504766,0.023736957,9.855531692504883,1.0061334371566772,0.569439709186554,-6.535303115844727,-39.99488067626953, -15.196767807006836
683,74492769,0.7540932,0.05247845,-0.6543084,0.02167711,9.67709732055664,0.9018898606300354,0.2591370940208435,-6.413066864013672,-34.741249084472656, -11.862323760986328
684,74509436,0.7510722,0.052803546,-0.65780926,0.019727772,9.936399459838867,0.6772987842559814,0.0007684193551540375,-7.742955207824707,-31.720638275146484, -9.899003028869629
685,74526103,0.74812347,0.053112183,-0.66118586,0.017996827,9.812628746032715,0.31834784150123596,0.0004456043243408203,-6.851435661315918,-30.673755645751953, -8.746795654296875
686,74542770,0.74496233,0.05377456,-0.6647281,0.016618643,9.638266563415527,0.21782678365707397,0.07498110085725784,-3.37033748626709,-32.40933609008789, -8.45426082611084
687,74559437,0.741545,0.054940853,-0.66847163,0.015437556,9.510344505310059,0.5370336174964905,0.5648083686828613,0.1820494830608368,-34.60228729248047, -9.647439002990723
688,74576104,0.73791635,0.055740044,-0.67244595,0.013750815,9.548504829406738,0.8924755454063416,0.6369395852088928,-3.9563114643096924,-36.9169921875, -10.427841186523438
689,74592771,0.7339393,0.05604744,-0.6767995,0.011589304,9.507216453552246,0.5598146915435791,0.37573346495628357,-8.545988082885742,-40.60713577270508, -10.377859115600586
690,74609438,0.72945386,0.05665513,-0.68161315,0.009538142,9.43476676940918,0.5729281902313232,0.2744302749633789,-6.353957653045654,-45.29623031616211, -10.998152732849121
691,74626105,0.724324,0.057975374,-0.68697315,0.007851191,9.494144439697266,0.4712507128715515,0.24647340178489685,-0.8533721566200256,-50.98429870605469, -12.25488567352295
692,74642772,0.7185573,0.059428364,-0.69290113,0.005635625,10.44558334350586,0.819110631942749,0.37217292189598083,-2.461679697036743,-57.06350326538086, -15.25494384765625
693,74659439,0.71199137,0.060535926,-0.69956946,0.002534611,9.777502059936523,0.8543367981910706,0.518458366394043,-8.083229064941406,-64.90839385986328, -17.646987915039062
694,74676106,0.70447814,0.06212855,-0.7070012,-0.00023471931,9.695440292358398,0.8839948773384094,-0.05447528883814812,-3.725338935852051,-73.10804748535156, -18.018138885498047
