PacketCounter,SampleTimeFine,Quat_W,Quat_X,Quat_Y,Quat_Z,Acc_X,Acc_Y,Acc_Z,Gyr_X,Gyr_Y,Gyr_Z 
1,68934187,0.64879096,-0.13668893,-0.7403055,-0.111060835,0,0,0,0,0, 0
2,68950854,0.64829177,-0.13635908,-0.7407958,-0.11111156,9.738380432128906,-0.05289698764681816,-1.3233567476272583,0.6813938021659851,-3.1670358180999756, 0.07250314950942993
3,68967521,0.64779305,-0.13601303,-0.7412391,-0.11148749,9.742846488952637,-0.10059519857168198,-1.331553339958191,1.0957818031311035,-3.1993210315704346, -0.039366722106933594
4,68984188,0.6473882,-0.1359051,-0.7415831,-0.11168266,9.749014854431152,-0.13412490487098694,-1.3283807039260864,1.7712656259536743,-3.0374488830566406, -0.1918775588274002
5,69000855,0.64707744,-0.1357036,-0.7419204,-0.111487545,9.749719619750977,-0.13356974720954895,-1.3306633234024048,2.202942371368408,-3.293076515197754, -0.47999486327171326
6,69017522,0.646823,-0.13539018,-0.74226564,-0.11104688,9.734774589538574,-0.0590423047542572,-1.266609787940979,1.2495092153549194,-3.4155945777893066, -0.23942753672599792
7,69034189,0.6466666,-0.13483739,-0.7425808,-0.11052259,9.742154121398926,0.006950219627469778,-1.2881795167922974,1.0041395425796509,-3.6137728691101074, -0.004968864377588034
8,69050856,0.6464525,-0.1345812,-0.7428331,-0.11039131,9.763081550598145,-0.009072120301425457,-1.2572827339172363,0.7768909335136414,-3.715519666671753, 0.27522769570350647
9,69067523,0.6462476,-0.13444297,-0.7430384,-0.11037658,9.779248237609863,-0.1155054122209549,-1.287661075592041,1.2525445222854614,-3.7757349014282227, 0.42577919363975525
10,69084190,0.64607996,-0.13424717,-0.7432488,-0.110179946,9.78233814239502,-0.124226413667202,-1.3084574937820435,1.3943876028060913,-3.6682000160217285, 0.4962269067764282
11,69100857,0.6459105,-0.1339597,-0.7434974,-0.10984741,9.726062774658203,-0.07741978764533997,-1.2806085348129272,0.9540026187896729,-3.7203216552734375, 0.4014342725276947
12,69117524,0.6457229,-0.13377795,-0.74373025,-0.10959416,9.737218856811523,-0.08796866983175278,-1.2953848838806152,0.5011956691741943,-3.7179903984069824, 0.4725094437599182
13,69134191,0.6454026,-0.13414885,-0.7439207,-0.10973592,9.748666763305664,-0.14438912272453308,-1.313177227973938,-1.3729177713394165,-4.200560092926025, 1.0081608295440674
14,69150858,0.6450862,-0.13441071,-0.74414355,-0.10976454,9.720032691955566,-0.04360364004969597,-1.3336949348449707,-1.42537260055542,-4.219513893127441, 0.8618611097335815
15,69167525,0.64476025,-0.13457263,-0.744405,-0.10970931,9.734367370605469,0.0010881762718781829,-1.340362310409546,-0.9447371363639832,-4.292534351348877, 0.8611181378364563
16,69184192,0.6444198,-0.13471068,-0.74468106,-0.1096649,9.750781059265137,-0.12706570327281952,-1.3148140907287598,0.2979077100753784,-4.305764198303223, 0.6769884824752808
17,69200859,0.6440921,-0.13465124,-0.7450068,-0.10945079,9.756381034851074,-0.23200255632400513,-1.2833242416381836,1.525793433189392,-4.4456610679626465, 0.3285277187824249
18,69217526,0.64376825,-0.1344583,-0.745378,-0.10906505,9.772472381591797,-0.11852427572011948,-1.3258190155029297,2.1449809074401855,-4.7221245765686035, 0.21251501142978668
19,69234193,0.6434787,-0.13410915,-0.745763,-0.1085703,9.77107048034668,-0.07788689434528351,-1.2903380393981934,1.9659476280212402,-4.546382427215576, 0.10818164795637131
20,69250860,0.64314663,-0.13393521,-0.7461313,-0.10822294,9.762237548828125,0.00688122259452939,-1.3163408041000366,1.9640394449234009,-4.732061862945557, 0.14840638637542725
21,69267527,0.6428257,-0.13371211,-0.7465075,-0.10780921,9.721933364868164,-0.08742813020944595,-1.3365119695663452,2.5057098865509033,-4.72473669052124, 0.340117484331131
22,69284194,0.64249706,-0.13345018,-0.7468969,-0.10739496,9.735864639282227,-0.22614401578903198,-1.3343113660812378,2.3570539951324463,-4.75474214553833, 0.17505642771720886
23,69300861,0.6421091,-0.13326368,-0.74731773,-0.10701842,9.769242286682129,-0.22399282455444336,-1.3009971380233765,2.076338768005371,-5.201235771179199, 0.1352158635854721
24,69317528,0.6417353,-0.13318022,-0.7476923,-0.106747635,9.826313972473145,-0.21045176684856415,-1.2685480117797852,2.1988182067871094,-4.939229965209961, -0.036113910377025604
25,69334195,0.64137614,-0.13298738,-0.7480797,-0.1064318,9.79601764678955,-0.07335305213928223,-1.312483310699463,1.8378331661224365,-4.926513671875, -0.3011029362678528
26,69350862,0.64098066,-0.13299051,-0.7484389,-0.106286876,9.76694393157959,-0.02439565397799015,-1.318416714668274,0.9306309819221497,-4.993592739105225, -0.13120105862617493
27,69367529,0.64057684,-0.13308634,-0.7487907,-0.1061233,9.793269157409668,-0.007070142775774002,-1.3977687358856201,-0.15653203427791595,-5.079715728759766, 0.629797101020813
28,69384196,0.64023805,-0.13321911,-0.74909276,-0.105867594,9.776180267333984,-0.01881134696304798,-1.423906922340393,-0.17261679470539093,-4.584161281585693, 1.454372525215149
29,69400863,0.63997626,-0.13343364,-0.74931383,-0.105615385,9.769306182861328,-0.07631240040063858,-1.4784162044525146,0.22666598856449127,-3.8396382331848145, 1.926043152809143
30,69417530,0.63969874,-0.1338062,-0.7495131,-0.1054131,9.649847984313965,-0.08368808031082153,-1.455836296081543,-0.962960958480835,-3.8137319087982178, 2.578604221343994
31,69434197,0.6393685,-0.13430291,-0.74972546,-0.10527354,9.65597915649414,-0.010205451399087906,-1.4155255556106567,-1.4433269500732422,-4.120123386383057, 2.833270788192749
32,69450864,0.639057,-0.13480558,-0.74992096,-0.10513062,9.706239700317383,-0.032510459423065186,-1.3840503692626953,-1.7498341798782349,-3.9232001304626465, 3.007296562194824
33,69467531,0.6388101,-0.13521895,-0.75008684,-0.10491666,9.717255592346191,-0.1253724843263626,-1.4352036714553833,-0.3976372182369232,-3.465245246887207, 2.8762619495391846
34,69484198,0.6386592,-0.13527614,-0.75027174,-0.104438715,9.699426651000977,-0.0812331810593605,-1.4538413286209106,0.7284829020500183,-2.9874143600463867, 2.5543742179870605
35,69500865,0.63854426,-0.13542464,-0.7503896,-0.104100004,9.688379287719727,-0.08758360892534256,-1.4374500513076782,1.1495940685272217,-2.439507246017456, 2.258009672164917
36,69517532,0.638423,-0.1354453,-0.7505378,-0.1037486,9.69602108001709,-0.16766837239265442,-1.371896505355835,1.2103089094161987,-2.4958038330078125, 1.729029893875122
37,69534199,0.638297,-0.13531609,-0.75072676,-0.103324346,9.751280784606934,-0.23110605776309967,-1.3484368324279785,1.7304387092590332,-2.6586108207702637, 1.304025650024414
38,69550866,0.63812286,-0.135171,-0.75095344,-0.10294293,9.744318962097168,-0.19292211532592773,-1.3354703187942505,2.143789529800415,-3.051023483276367, 0.831074595451355
39,69567533,0.63792235,-0.13519062,-0.7511581,-0.10266668,9.7623929977417,-0.15138345956802368,-1.3779579401016235,1.1635656356811523,-3.1356475353240967, 1.1465972661972046
40,69584200,0.6377459,-0.13504902,-0.7513922,-0.10223355,9.750605583190918,-0.12523838877677917,-1.3819024562835693,0.6160558462142944,-3.1388494968414307, 1.3443658351898193
41,69600867,0.63752514,-0.13505653,-0.7516203,-0.10192423,9.757063865661621,-0.15537913143634796,-1.3891642093658447,0.9241893887519836,-3.365764617919922, 1.277145266532898
42,69617534,0.6373359,-0.13486801,-0.7518762,-0.10146893,9.742036819458008,-0.2073303610086441,-1.3858956098556519,1.4897178411483765,-3.3036670684814453, 1.0857160091400146
43,69634201,0.63715625,-0.13464957,-0.7521323,-0.10098912,9.750140190124512,-0.1940300464630127,-1.3608227968215942,1.9883846044540405,-3.263685941696167, 0.9908082485198975
44,69650868,0.6369887,-0.13426785,-0.75241745,-0.10042781,9.744812965393066,-0.09022777527570724,-1.3745293617248535,1.4318715333938599,-3.2662978172302246, 0.7706413269042969
45,69667535,0.63677585,-0.13426872,-0.7526286,-0.10019325,9.746169090270996,-0.16535784304141998,-1.3831313848495483,1.274571180343628,-3.212306261062622, 0.8136066198348999
46,69684202,0.6365778,-0.13415362,-0.7528613,-0.09985728,9.744887351989746,-0.17862676084041595,-1.3439490795135498,1.5886982679367065,-3.2323615550994873, 0.774841845035553
47,69700869,0.63639766,-0.13404246,-0.75307506,-0.0995423,9.757711410522461,-0.1857769787311554,-1.3758777379989624,1.649438738822937,-3.057797908782959, 0.6963516473770142
48,69717536,0.6362064,-0.13408692,-0.7532571,-0.09932798,9.741134643554688,-0.2049146145582199,-1.4124423265457153,0.26225483417510986,-2.993048667907715, 1.1073458194732666
49,69734203,0.6360319,-0.13398635,-0.7534617,-0.09902875,9.742057800292969,-0.20943200588226318,-1.3895163536071777,0.25647276639938354,-2.9590866565704346, 0.9020152688026428
50,69750870,0.63579464,-0.13411325,-0.75365174,-0.09893419,9.733746528625488,-0.2137710154056549,-1.368994116783142,-0.7068976759910583,-3.2151236534118652, 0.9486624002456665
51,69767537,0.63556224,-0.13402218,-0.7538985,-0.09867085,9.72916316986084,-0.14225418865680695,-1.369287371635437,-0.4789958894252777,-3.417463779449463, 0.7888646721839905
52,69784204,0.6353036,-0.13428035,-0.75406647,-0.0987005,9.711935997009277,-0.16143698990345,-1.3812603950500488,0.3440873920917511,-3.2712156772613525, 0.689308226108551
53,69800871,0.6351192,-0.13417569,-0.75427604,-0.09842938,9.747966766357422,-0.20975011587142944,-1.4429513216018677,0.5322511196136475,-3.037064552307129, 0.6744657158851624
54,69817538,0.6349343,-0.13419645,-0.754453,-0.09823736,9.728928565979004,-0.14906460046768188,-1.4074949026107788,0.49182143807411194,-2.9273393154144287, 0.8364019393920898
55,69834205,0.63475174,-0.13419177,-0.75463617,-0.098017745,9.75075626373291,-0.08434193581342697,-1.36345636844635,0.839923620223999,-2.9549880027770996, 0.8127228617668152
56,69850872,0.6346104,-0.13390541,-0.75486153,-0.097586006,9.748889923095703,-0.2525864243507385,-1.3864731788635254,1.716620922088623,-2.9061832427978516, 0.556749701499939
57,69867539,0.6344735,-0.13356355,-0.75508827,-0.09719048,9.71939754486084,-0.23345817625522614,-1.377930998802185,2.834986925125122,-2.8501687049865723, -0.08726248145103455
58,69884206,0.6343196,-0.1331467,-0.75533724,-0.09683206,9.737635612487793,-0.2696540653705597,-1.3397597074508667,2.8691024780273438,-2.958036184310913, -0.66102534532547
59,69900873,0.6340905,-0.13287544,-0.75559765,-0.096673325,9.812970161437988,-0.27723032236099243,-1.3170040845870972,1.792857050895691,-3.342278003692627, -0.963639497756958
60,69917540,0.63386244,-0.13244642,-0.75589925,-0.09639831,9.73754596710205,-0.2242574840784073,-1.3398810625076294,2.1044609546661377,-3.51627779006958, -1.144529104232788
61,69934207,0.63361436,-0.13209839,-0.75620216,-0.09613196,9.723817825317383,-0.10568012297153473,-1.3436099290847778,2.557588577270508,-3.7057485580444336, -0.9377962946891785
62,69950874,0.6333474,-0.1315886,-0.7565755,-0.09565052,9.735172271728516,-0.17061255872249603,-1.3973264694213867,2.3705899715423584,-4.16645622253418, -0.5315275192260742
63,69967541,0.63312566,-0.13108747,-0.7569102,-0.095157705,9.711465835571289,-0.2367708832025528,-1.4286450147628784,2.8919880390167236,-3.7977747917175293, -0.45734044909477234
64,69984208,0.6325569,-0.13071194,-0.7575043,-0.09472794,9.678563117980957,-0.09956353157758713,-1.383268117904663,2.2057979106903076,-6.768630027770996, -0.6039730906486511
65,70000875,0.6320896,-0.13040511,-0.75799024,-0.094384454,9.7730073928833,-0.12895052134990692,-1.3546041250228882,2.3161375522613525,-5.766802787780762, -0.6008228063583374
66,70017542,0.6317663,-0.12984937,-0.75842464,-0.093822785,9.738468170166016,-0.2539505958557129,-1.41629159450531,2.902412176132202,-4.8034443855285645, -0.4748978912830353
67,70034209,0.6315265,-0.12928699,-0.75879264,-0.093235515,9.76373291015625,-0.1882595270872116,-1.4239897727966309,3.5307557582855225,-4.11867618560791, -0.3743937015533447
68,70050876,0.6313472,-0.12893279,-0.75905484,-0.09280535,9.762811660766602,-0.10690826177597046,-1.4057812690734863,3.1647119522094727,-3.3790197372436523, -0.09869854152202606
69,70067543,0.631176,-0.12868625,-0.75927794,-0.092486456,9.739436149597168,-0.05649922415614128,-1.3919646739959717,1.9262990951538086,-3.1455726623535156, 0.06595911085605621
70,70084210,0.6310047,-0.12848651,-0.7594926,-0.09216973,9.742335319519043,-0.1489027589559555,-1.3718804121017456,1.4556400775909424,-3.1461102962493896, 0.3712368607521057
71,70100877,0.6307943,-0.12840813,-0.7597054,-0.09196566,9.753283500671387,-0.22634388506412506,-1.3710758686065674,1.3989337682724,-3.3616156578063965, 0.28825175762176514
72,70117544,0.63044435,-0.12817381,-0.7600638,-0.09173138,9.722982406616211,-0.3160696029663086,-1.4140299558639526,1.789988398551941,-4.657374858856201, -0.5377386808395386
73,70134211,0.6301111,-0.12814648,-0.7603389,-0.09177861,9.784967422485352,-0.23048971593379974,-1.4050071239471436,-0.3643406331539154,-4.110569477081299, -0.6566967368125916
74,70150878,0.6299475,-0.12829448,-0.7604228,-0.09199992,9.722436904907227,-0.1435520201921463,-1.4400038719177246,-2.177643060684204,-2.3649742603302, -0.1918647438287735
75,70167545,0.6298096,-0.12819193,-0.7605637,-0.09192109,9.694214820861816,-0.10421739518642426,-1.3825912475585938,-0.7111109495162964,-2.565713882446289, 0.011660181917250156
76,70184212,0.6296404,-0.1280679,-0.7607509,-0.09170636,9.744622230529785,-0.14354334771633148,-1.36870539188385,0.8262080550193787,-3.070348024368286, 0.2921704351902008
77,70200879,0.6294191,-0.12784822,-0.7610087,-0.09139277,9.765119552612305,-0.15246912837028503,-1.378868579864502,1.777630090713501,-3.6946444511413574, 0.12645630538463593
78,70217546,0.62917066,-0.1276268,-0.7612877,-0.09108763,9.744495391845703,-0.10509970784187317,-1.4054936170578003,1.7605595588684082,-3.938964605331421, 0.043202221393585205
79,70234213,0.6288848,-0.12753163,-0.761568,-0.09085095,9.74755573272705,-0.06408651173114777,-1.432176113128662,1.5067501068115234,-4.192504405975342, 0.25623583793640137
80,70250880,0.6286301,-0.12734456,-0.7618531,-0.090486236,9.746148109436035,-0.11100389063358307,-1.4291621446609497,1.8015140295028687,-4.0999531745910645, 0.5153211355209351
81,70267547,0.62843347,-0.12722564,-0.76207626,-0.09013925,9.748743057250977,-0.08236857503652573,-1.43110191822052,1.7029566764831543,-3.5768651962280273, 0.8400646448135376
82,70284214,0.6282506,-0.12719102,-0.76226944,-0.08982787,9.765108108520508,-0.15294776856899261,-1.409602403640747,1.0905823707580566,-3.410676956176758, 1.1827242374420166
83,70300881,0.62804794,-0.12717588,-0.7624758,-0.08951592,9.771636009216309,-0.2527407109737396,-1.3282920122146606,0.645702600479126,-3.5936033725738525, 1.3387055397033691
84,70317548,0.62775314,-0.12734263,-0.76271063,-0.08934517,9.756430625915527,-0.12300655990839005,-1.3900108337402344,-0.44577619433403015,-4.226504802703857, 1.4943536520004272
85,70334215,0.62746114,-0.1275281,-0.76294494,-0.08913075,9.728720664978027,-0.06108040735125542,-1.4352080821990967,-1.522162675857544,-4.250209808349609, 2.0379064083099365
86,70350882,0.62714577,-0.12798558,-0.76313037,-0.089106895,9.77636432647705,-0.038644686341285706,-1.473343849182129,-2.4959962368011475,-4.209665298461914, 2.4275400638580322
87,70367549,0.6269054,-0.12850766,-0.76323736,-0.089130625,9.759598731994629,-0.1138499453663826,-1.5166116952896118,-2.9746592044830322,-3.491600751876831, 2.6849474906921387
88,70384216,0.62672055,-0.12906018,-0.76329046,-0.08917671,9.699982643127441,-0.21592287719249725,-1.492332935333252,-4.380399227142334,-2.9469974040985107, 3.078204870223999
89,70400883,0.6265658,-0.12959191,-0.76332253,-0.0892189,9.6594820022583,-0.2276419699192047,-1.4755269289016724,-3.2703964710235596,-2.7280983924865723, 2.8198494911193848
90,70417550,0.6262915,-0.12989694,-0.76350474,-0.08914315,9.618791580200195,-0.23637636005878448,-1.4590142965316772,-2.0771005153656006,-3.9727730751037598, 2.0049686431884766
91,70434217,0.6259656,-0.1300951,-0.76374984,-0.089043625,9.73837661743164,-0.24146130681037903,-1.4378201961517334,-1.3425792455673218,-4.489765167236328, 1.4235986471176147
92,70450884,0.6257387,-0.13016893,-0.7639405,-0.088893846,9.792052268981934,-0.2954617142677307,-1.4510828256607056,-0.4957209825515747,-3.7257132530212402, 1.095807433128357
93,70467551,0.62558126,-0.1301138,-0.7640944,-0.08876084,9.745023727416992,-0.3413558006286621,-1.480836272239685,0.09673276543617249,-3.130678653717041, 0.3982710838317871
94,70484218,0.62550765,-0.12998158,-0.7642033,-0.08853402,9.74305534362793,-0.24140208959579468,-1.486905574798584,1.1057707071304321,-2.556096315383911, 0.4499959647655487
95,70500885,0.6254266,-0.12982613,-0.7643158,-0.08836396,9.704089164733887,-0.2531922161579132,-1.4333552122116089,0.5744864344596863,-2.5532915592193604, 0.1452816277742386
96,70517552,0.6254339,-0.12964864,-0.7643519,-0.08826051,9.727972984313965,-0.29918020963668823,-1.376796007156372,0.7396242618560791,-1.7199567556381226, -0.21833544969558716
97,70534219,0.6256414,-0.12944788,-0.76421267,-0.088291176,9.703985214233398,-0.4334506392478943,-1.4116864204406738,0.04507194459438324,0.19705769419670105, -0.6114775538444519
98,70550886,0.62600386,-0.1294122,-0.763896,-0.08851258,9.683837890625,-0.4263385534286499,-1.5160202980041504,-1.6644797325134277,1.8222987651824951, -0.32164430618286133
99,70567553,0.62650037,-0.12908718,-0.76355046,-0.08845706,9.72341251373291,-0.33959734439849854,-1.3946419954299927,0.7254477143287659,2.5782833099365234, -0.47547417879104614
100,70584220,0.627508,-0.12908423,-0.7626802,-0.08882688,9.779824256896973,-0.17740029096603394,-1.1455752849578857,-2.591339349746704,7.675032615661621, 0.11502023786306381
101,70600887,0.6284233,-0.13045585,-0.7614892,-0.09055154,9.604934692382812,-0.3367040753364563,-1.402218222618103,-15.9425630569458,8.896265983581543, 1.7121018171310425
102,70617554,0.62865615,-0.13154998,-0.76094854,-0.09188934,9.501565933227539,0.06047232449054718,-1.4332103729248047,-12.506394386291504,2.3123221397399902, 0.8264646530151367
103,70634221,0.6284983,-0.1321585,-0.7608438,-0.09295518,9.687810897827148,0.40319618582725525,-1.2166602611541748,-9.906828880310059,-1.5446512699127197, -0.995053768157959
104,70650888,0.6280939,-0.13256183,-0.7610185,-0.0936826,9.743436813354492,-0.2179725021123886,-1.2795130014419556,-7.13038444519043,-4.254373073577881, -1.004210114479065
105,70667555,0.62763447,-0.13241416,-0.7614156,-0.0937449,9.815744400024414,-0.18009011447429657,-1.3596986532211304,-1.2524868249893188,-5.780019283294678, -1.2409483194351196
106,70684222,0.6271377,-0.13196185,-0.7619507,-0.09335786,9.779622077941895,-0.21156653761863708,-1.2454966306686401,2.6950268745422363,-6.811148643493652, -1.0883095264434814
107,70700889,0.62677354,-0.1315628,-0.76235604,-0.09305684,9.835766792297363,-0.10178764909505844,-1.1862229108810425,2.199035882949829,-5.547378063201904, -1.0049911737442017
108,70717556,0.62637275,-0.13097383,-0.76285976,-0.09245693,9.804608345031738,-0.2998904585838318,-1.3572169542312622,4.590417861938477,-6.347660064697266, -0.81045001745224
109,70734223,0.626047,-0.12998514,-0.76342803,-0.09136176,9.809314727783203,-0.027735698968172073,-1.3665592670440674,8.885632514953613,-6.444081783294678, -0.7600699663162231
110,70750890,0.62572014,-0.12895936,-0.76401114,-0.0901711,9.760623931884766,-0.05770394578576088,-1.332082986831665,9.727367401123047,-6.604109287261963, -0.5743650197982788
111,70767557,0.6253607,-0.12848859,-0.7644785,-0.08937376,9.781444549560547,-0.0671188160777092,-1.3290443420410156,5.38021183013916,-6.3042097091674805, 0.703587532043457
112,70784224,0.6243804,-0.12941234,-0.76507705,-0.089771494,9.656926155090332,-0.057227518409490585,-1.5142751932144165,-7.303529262542725,-9.96192455291748, 2.3954482078552246
113,70800891,0.62205315,-0.13202661,-0.76632696,-0.09144349,9.658963203430176,-0.06170770153403282,-1.3668609857559204,-22.4921932220459,-19.757068634033203, 4.505063056945801
114,70817558,0.61997366,-0.13409342,-0.76750594,-0.09266325,9.737852096557617,-0.16670028865337372,-1.3290648460388184,-17.399667739868164,-18.24834632873535, 3.738598108291626
115,70834225,0.6185097,-0.13535048,-0.768369,-0.093462355,9.764493942260742,-0.3862498700618744,-1.5576249361038208,-11.106266021728516,-13.566675186157227, 1.8833611011505127
116,70850892,0.6176144,-0.13612147,-0.7688998,-0.09389838,9.833952903747559,-0.3303016424179077,-1.4746066331863403,-5.46769905090332,-9.230499267578125, 1.2159056663513184
117,70867559,0.617292,-0.1366431,-0.7690027,-0.094414905,9.742172241210938,-0.1370133012533188,-1.4529060125350952,-5.362453937530518,-4.16028356552124, 0.491783082485199
118,70884226,0.61717325,-0.13675186,-0.7690702,-0.09448393,9.718293190002441,-0.1497098207473755,-1.495158076286316,-0.48107051849365234,-3.1315622329711914, 0.24159817397594452
119,70900893,0.61719793,-0.13641244,-0.7691525,-0.09414308,9.751311302185059,-0.00923936441540718,-1.455868124961853,2.9317901134490967,-2.5396275520324707, -0.12201891839504242
120,70917560,0.6173393,-0.1359157,-0.76918626,-0.09365687,9.728779792785645,-0.02938086912035942,-1.4715231657028198,4.504908561706543,-1.7826822996139526, -0.21249575912952423
121,70934227,0.61769277,-0.13535093,-0.7690663,-0.0931297,9.735466957092285,-0.03310159593820572,-1.5213637351989746,5.133419513702393,-0.033552639186382294, -0.10798316448926926
122,70950894,0.6181019,-0.13479556,-0.7689158,-0.09246057,9.72704792022705,-0.1347796767950058,-1.5548675060272217,5.682900905609131,0.23126345872879028, 0.6670635342597961
123,70967561,0.6177732,-0.13526632,-0.7691272,-0.09221146,9.74598503112793,-0.1819400191307068,-1.553394079208374,-1.2499510049819946,-5.495499610900879, 3.486970901489258
124,70984228,0.6172197,-0.13592766,-0.7694726,-0.092062995,9.748722076416016,-0.30732402205467224,-1.5719925165176392,-2.379138231277466,-7.312093257904053, 3.7229666709899902
125,71000895,0.6166689,-0.13633275,-0.76986164,-0.091901556,9.832877159118652,-0.5793750882148743,-1.4858907461166382,-1.4184186458587646,-7.3498215675354, 2.429730176925659
126,71017562,0.6170024,-0.13747302,-0.7692354,-0.093198925,9.897862434387207,-0.25388941168785095,-1.1500333547592163,-12.115286827087402,2.5096938610076904, 1.6281042098999023
127,71034229,0.6177378,-0.13834639,-0.7683354,-0.094450526,9.592253684997559,-0.374082088470459,-1.6469944715499878,-10.278765678405762,5.861424446105957, 0.8585829734802246
128,71050896,0.6183563,-0.13837545,-0.76778907,-0.09480397,9.61136245727539,-0.30845552682876587,-1.6777116060256958,-2.796919584274292,3.4475014209747314, 0.011135120876133442
129,71067563,0.6187765,-0.13799801,-0.76754785,-0.094565935,9.667634010314941,-0.19661560654640198,-1.585600733757019,2.4606568813323975,0.783191442489624, -0.13867995142936707
130,71084230,0.61907023,-0.1374859,-0.76746255,-0.094079755,9.72412109375,-0.10436329245567322,-1.5652241706848145,4.813093185424805,-0.7250058650970459, -0.13184136152267456
131,71100897,0.6192085,-0.13686515,-0.7675411,-0.09343163,9.78372573852539,0.15472108125686646,-1.4305710792541504,5.640473365783691,-2.331408977508545, -0.15327921509742737
132,71117564,0.61864674,-0.13733713,-0.7678841,-0.09364252,9.714554786682129,-0.18521764874458313,-1.6456270217895508,-4.0793867111206055,-7.071758270263672, 1.29621422290802
133,71134231,0.6173571,-0.13904685,-0.7684554,-0.094934545,9.71495246887207,-0.16350127756595612,-1.3577766418457031,-15.982922554016113,-11.665946960449219, 2.6351852416992188
134,71150898,0.61628824,-0.14101684,-0.7687187,-0.0968234,9.590173721313477,-0.4847147464752197,-1.580994725227356,-19.80156898498535,-8.837714195251465, 1.8085988759994507
135,71167565,0.6156917,-0.14190182,-0.7689035,-0.09785277,9.60995101928711,-0.4777291417121887,-1.6618391275405884,-9.504581451416016,-6.15906286239624, -0.09497193247079849
136,71184232,0.61539364,-0.14194064,-0.76911104,-0.09803983,9.687405586242676,-0.04509376734495163,-1.50312340259552,-1.5923161506652832,-4.933045387268066, -0.7433447241783142
137,71200899,0.61526406,-0.14168936,-0.76929045,-0.09780942,9.78729248046875,-0.08752324432134628,-1.4924955368041992,2.1183435916900635,-4.164638519287109, -0.38626518845558167
138,71217566,0.6154725,-0.14098567,-0.7693313,-0.09719279,9.752073287963867,-0.2903047204017639,-1.5520864725112915,6.124630928039551,-1.886042594909668, -0.7311529517173767
139,71234233,0.61597115,-0.13984993,-0.76925415,-0.09627915,9.664602279663086,-0.4037788212299347,-1.5572179555892944,9.703266143798828,0.12555991113185883, -1.4438652992248535
140,71250900,0.6165686,-0.13805784,-0.7692815,-0.094811864,9.587084770202637,-0.6690841913223267,-1.6954272985458374,15.71460247039795,0.0840289443731308, -2.6416194438934326
141,71267567,0.61736184,-0.13544476,-0.76939243,-0.092490464,9.629816055297852,-0.6795674562454224,-1.6157045364379883,24.10830307006836,0.47534066438674927, -3.3697164058685303
142,71284234,0.6184107,-0.13249455,-0.76935685,-0.09002137,10.0161771774292,0.38827598094940186,-1.2662705183029175,25.444889068603516,2.5370912551879883, -4.007910251617432
143,71300901,0.61915207,-0.13055642,-0.76926523,-0.08852617,9.992518424987793,0.2252574861049652,-1.0905553102493286,16.639135360717773,1.342177391052246, -3.0991528034210205
144,71317568,0.61947864,-0.12896486,-0.76943225,-0.08711206,9.868139266967773,-0.22754041850566864,-1.2413949966430664,13.95526123046875,-2.127328395843506, -1.9297261238098145
145,71334235,0.61953443,-0.12752753,-0.7697854,-0.08569875,9.829933166503906,-0.1955060511827469,-1.3005682229995728,13.384021759033203,-4.489858150482178, -1.4861650466918945
146,71350902,0.61945015,-0.12674326,-0.7700789,-0.08483092,9.75345516204834,0.13256420195102692,-1.5910803079605103,7.627123832702637,-4.9189839363098145, -0.39045289158821106
147,71367569,0.61903495,-0.12685454,-0.7704057,-0.084727935,9.653578758239746,0.38887035846710205,-1.5355839729309082,-0.7642446160316467,-6.676616668701172, 0.955962061882019
148,71384236,0.61813885,-0.12813823,-0.77080125,-0.08573449,9.808873176574707,0.21938872337341309,-1.3344910144805908,-11.743584632873535,-9.257883071899414, 2.0787088871002197
149,71400903,0.61710054,-0.12976722,-0.77119803,-0.0871846,9.895294189453125,-0.5267528295516968,-1.2723580598831177,-15.792399406433105,-9.861618041992188, 1.983315348625183
150,71417570,0.61618495,-0.13134833,-0.7714617,-0.08894223,9.749125480651855,-0.8455418944358826,-1.5691032409667969,-16.81591033935547,-8.394099235534668, 0.49770021438598633
151,71434237,0.6154354,-0.13244246,-0.7717039,-0.09039449,9.672415733337402,-0.2568853497505188,-1.6245183944702148,-13.185197830200195,-7.416457653045654, -0.677123486995697
152,71450904,0.61473644,-0.13339593,-0.7719599,-0.09155693,9.613800048828125,0.1438841074705124,-1.6530847549438477,-11.357038497924805,-7.390869140625, -0.1058061346411705
153,71467571,0.6141157,-0.13430418,-0.77219194,-0.09243432,9.644686698913574,0.2134631872177124,-1.7370496988296509,-8.751696586608887,-7.142026901245117, 0.7474620938301086
154,71484238,0.6136786,-0.134939,-0.7723723,-0.09290378,9.684999465942383,0.1597098708152771,-1.7321346998214722,-5.520985126495361,-6.157358169555664, 1.256399154663086
155,71500905,0.6133469,-0.13574748,-0.77242094,-0.09351076,9.701313972473145,-0.11725334078073502,-1.7014451026916504,-6.40663480758667,-5.0488667488098145, 1.6702110767364502
156,71517572,0.6129711,-0.13683219,-0.7724157,-0.09443354,9.440302848815918,-0.32257378101348877,-1.9296313524246216,-9.353711128234863,-4.952678680419922, 1.834030270576477
157,71534239,0.61219466,-0.13807233,-0.77267885,-0.095505,9.394479751586914,-0.05287042632699013,-1.841636300086975,-11.547240257263184,-8.157933235168457, 1.6372228860855103
158,71550906,0.61103386,-0.13954262,-0.7731685,-0.096829735,9.451449394226074,0.2589283287525177,-1.6968333721160889,-13.909132957458496,-11.069347381591797, 1.2804890871047974
159,71567573,0.6098836,-0.14102297,-0.77364147,-0.09814975,9.602845191955566,0.39471641182899475,-1.4443368911743164,-13.378924369812012,-10.979613304138184, 1.262406587600708
160,71584240,0.6088102,-0.14232725,-0.7741082,-0.09924637,9.786209106445312,-0.8584811091423035,-1.8134702444076538,-11.286231994628906,-10.675150871276855, 1.3230443000793457
161,71600907,0.60817975,-0.1429464,-0.7744607,-0.099470526,10.02308464050293,-0.4385313093662262,-1.7651960849761963,-3.6098673343658447,-8.235893249511719, 1.7369961738586426
162,71617574,0.6078273,-0.14377372,-0.7745114,-0.10003621,9.631720542907715,-0.16133852303028107,-1.6769115924835205,-4.904910564422607,-5.347049713134766, 1.5477311611175537
163,71634241,0.60779315,-0.14415333,-0.77444863,-0.10018432,9.652660369873047,-0.16858932375907898,-1.662377953529358,-1.309295654296875,-3.288363456726074, 1.4215497970581055
164,71650908,0.608109,-0.14393023,-0.774271,-0.09996038,9.547937393188477,-0.5207608342170715,-1.7235268354415894,3.349724769592285,-0.9181256890296936, 0.1520305722951889
165,71667575,0.60879534,-0.14303225,-0.7740028,-0.0991463,9.702954292297363,-0.19263501465320587,-1.7355684041976929,9.15408992767334,1.3074581623077393, -0.5264179706573486
166,71684242,0.6096113,-0.14222123,-0.7736004,-0.09843721,9.808674812316895,-0.14811575412750244,-1.6143877506256104,9.0625,2.5687689781188965, -0.47665250301361084
167,71700909,0.61052775,-0.14155035,-0.77308106,-0.09780229,9.884952545166016,0.06160610541701317,-1.559771180152893,8.628312110900879,3.535943031311035, 0.020650245249271393
168,71717576,0.6115033,-0.14082785,-0.77253914,-0.09702762,9.909167289733887,-0.20997755229473114,-1.4184753894805908,8.836071014404297,3.83349871635437, 0.6163889765739441
169,71734243,0.61220056,-0.14074099,-0.7720235,-0.09686234,9.660392761230469,-0.23910105228424072,-1.6778488159179688,2.3200173377990723,2.3845741748809814, 1.3100831508636475
170,71750910,0.6120123,-0.14134502,-0.7720128,-0.09725753,9.440471649169922,0.10318350791931152,-1.7540417909622192,-4.5228190422058105,-4.362931728363037, 1.6476460695266724
171,71767577,0.6104427,-0.14338875,-0.7726915,-0.09872789,9.562803268432617,0.03433474153280258,-1.6708719730377197,-17.242717742919922,-14.517674446105957, 3.1964640617370605
172,71784244,0.60872716,-0.14523083,-0.77353835,-0.099988066,9.653109550476074,-0.0007827864028513432,-1.5340957641601562,-15.245896339416504,-16.084035873413086, 2.7319130897521973
173,71800911,0.6074853,-0.14647129,-0.77418214,-0.100747064,9.79926872253418,-0.02006225846707821,-1.5149811506271362,-9.463964462280273,-12.831768035888672, 2.0890183448791504
174,71817578,0.6067307,-0.14776763,-0.7743798,-0.10187588,9.915022850036621,-0.10562606900930405,-1.5136638879776,-10.681425094604492,-8.08730411529541, 1.4207950830459595
175,71834245,0.60631174,-0.14903527,-0.7742871,-0.10321904,9.600586891174316,-0.36787575483322144,-1.815738320350647,-11.547042846679688,-4.882628440856934, 0.8971300721168518
176,71850912,0.60619396,-0.14940792,-0.77424383,-0.10369533,9.559609413146973,-0.3969029188156128,-1.7706198692321777,-3.22825026512146,-3.7384934425354004, -0.020810317248106003
177,71867579,0.6063563,-0.14908987,-0.7741778,-0.10369719,9.697673797607422,-0.5203969478607178,-1.7245978116989136,2.6276133060455322,-2.1628901958465576, -1.550387978553772
178,71884246,0.606776,-0.14827743,-0.77405536,-0.10331987,9.68261432647705,-0.1615770012140274,-1.6493101119995117,6.751040458679199,-0.6064319610595703, -2.3242757320404053
179,71900913,0.60728693,-0.14714062,-0.7739491,-0.10273879,9.699220657348633,-0.45089471340179443,-1.6878427267074585,8.955157279968262,-0.17672769725322723, -3.063241481781006
180,71917580,0.6080775,-0.1454917,-0.773772,-0.101739205,9.62436580657959,-0.5615997314453125,-1.7395533323287964,15.067893981933594,1.5005277395248413, -4.166562557220459
181,71934247,0.6098631,-0.14267091,-0.77312696,-0.09993471,9.465658187866211,-0.21463333070278168,-1.7844663858413696,23.291799545288086,8.785221099853516, -5.46518611907959
182,71950914,0.61204815,-0.13903989,-0.77241945,-0.09712592,9.49120807647705,-0.2722914516925812,-1.8607137203216553,32.563568115234375,10.733296394348145, -5.246681213378906
183,71967581,0.6140345,-0.13496354,-0.77201426,-0.09349174,9.699200630187988,-0.20616698265075684,-1.8275816440582275,39.152931213378906,7.910033702850342, -4.61672830581665
184,71984248,0.61567646,-0.13094422,-0.7718253,-0.089899436,9.806395530700684,-0.3532441258430481,-1.7625855207443237,38.1374397277832,5.178486347198486, -4.791009426116943
185,72000915,0.6169023,-0.12724951,-0.77179796,-0.08699003,9.825401306152344,-0.09714438021183014,-1.4501272439956665,32.066200256347656,2.714181661605835, -6.158584117889404
186,72017582,0.6176964,-0.12403038,-0.77191895,-0.084905736,9.704380989074707,0.050833508372306824,-1.4418174028396606,24.382709503173828,0.23474733531475067, -7.263586044311523
187,72034249,0.61794305,-0.12177419,-0.77216756,-0.084112175,9.702422142028809,0.21185076236724854,-1.6777185201644897,13.286835670471191,-2.6963534355163574, -8.096628189086914
188,72050916,0.6176985,-0.120339155,-0.77256095,-0.08436159,9.642098426818848,0.4986346662044525,-1.4613001346588135,4.690577030181885,-5.540375232696533, -8.719718933105469
189,72067583,0.61723596,-0.119223915,-0.77301806,-0.085139066,9.545906066894531,-0.009632701985538006,-1.436094880104065,0.39565882086753845,-6.732391834259033, -9.409253120422363
190,72084250,0.61673653,-0.117728986,-0.77360344,-0.08552182,9.766870498657227,-0.6128624081611633,-1.3230358362197876,4.373787879943848,-7.592646598815918, -9.926898956298828
191,72100917,0.6163578,-0.11595985,-0.7741699,-0.08554203,9.864933967590332,0.11850081384181976,-1.5228532552719116,7.710190773010254,-7.029589653015137, -9.825512886047363
192,72117584,0.61599946,-0.11432656,-0.77469534,-0.085564755,9.669354438781738,0.2312886118888855,-1.5659477710723877,7.658002853393555,-6.842987060546875, -9.180057525634766
193,72134251,0.6155799,-0.112697385,-0.7752668,-0.08556921,9.64923095703125,0.19711783528327942,-1.218476414680481,7.9122490882873535,-7.39111328125, -9.178535461425781
194,72150918,0.61508393,-0.11081371,-0.77595353,-0.08537268,9.75104808807373,-0.33430925011634827,-1.460127592086792,9.787895202636719,-8.317066192626953, -9.737508773803711
195,72167585,0.614442,-0.10860076,-0.77682865,-0.08487753,9.781309127807617,-0.12094470858573914,-1.4573087692260742,13.090022087097168,-9.943170547485352, -10.548578262329102
196,72184252,0.61354613,-0.106328316,-0.77790666,-0.08436187,9.861038208007812,0.26525452733039856,-1.4214410781860352,13.508012771606445,-12.153027534484863, -11.112459182739258
197,72200919,0.61204505,-0.10523516,-0.7791493,-0.08516348,9.775784492492676,0.7398924231529236,-1.5977619886398315,1.0760228633880615,-15.824236869812012, -10.805755615234375
198,72217586,0.6100176,-0.10524448,-0.78054225,-0.08692522,9.795293807983398,0.7039182186126709,-1.3615245819091797,-8.91100788116455,-19.23800277709961, -9.350381851196289
199,72234253,0.6082008,-0.10532759,-0.781713,-0.089010105,9.708236694335938,-0.8902677893638611,-1.8804646730422974,-10.523148536682129,-17.006757736206055, -10.10548210144043
200,72250920,0.60700744,-0.10409386,-0.78269404,-0.08998129,9.644144058227539,-0.3746238946914673,-2.028404712677002,1.2268561124801636,-12.86085319519043, -12.055602073669434
201,72267587,0.60597885,-0.10246939,-0.7836404,-0.09054071,9.607151985168457,0.20703765749931335,-1.761143445968628,5.027515888214111,-11.874777793884277, -12.310449600219727
202,72284254,0.60491234,-0.10082632,-0.7846066,-0.09114682,9.571654319763184,0.2698250710964203,-1.6738537549972534,4.880178451538086,-12.121299743652344, -12.654454231262207
203,72300921,0.6038403,-0.09893345,-0.7856373,-0.09145018,9.64218807220459,0.09231282025575638,-1.78461754322052,7.687488079071045,-12.480046272277832, -12.815240859985352
204,72317588,0.6026959,-0.097080804,-0.7866904,-0.09193204,9.57418155670166,0.3870308995246887,-1.8879565000534058,6.4373579025268555,-12.8762788772583, -13.388161659240723
205,72334255,0.60153306,-0.095226385,-0.78774494,-0.092456274,9.498123168945312,0.09118679165840149,-2.0377535820007324,6.312841415405273,-12.949594497680664, -13.610671043395996
206,72350922,0.6002962,-0.09307238,-0.78893185,-0.09256723,9.431672096252441,0.31214791536331177,-1.8653841018676758,9.746306419372559,-13.973797798156738, -13.65000057220459
207,72367589,0.59887886,-0.09069531,-0.7902905,-0.09251775,9.494908332824707,0.13384711742401123,-1.8465105295181274,11.621843338012695,-15.622113227844238, -14.449073791503906
208,72384256,0.59721553,-0.08820606,-0.7918282,-0.092528746,9.590853691101074,0.3713899254798889,-1.9556128978729248,11.631531715393066,-17.59577751159668, -15.566285133361816
209,72400923,0.5951969,-0.08604752,-0.7935107,-0.09315354,9.624366760253906,0.7295158505439758,-1.8713146448135376,6.724650859832764,-19.96870994567871, -16.581356048583984
210,72417590,0.5927902,-0.08428502,-0.79533976,-0.09450254,9.659979820251465,0.9967535138130188,-1.7254998683929443,1.0272578001022339,-22.52088737487793, -17.71413803100586
211,72434257,0.5900279,-0.08270163,-0.79732275,-0.09645741,9.773908615112305,0.46071743965148926,-1.9167141914367676,-3.1709530353546143,-24.87971305847168, -19.49385643005371
212,72450924,0.5870347,-0.080868244,-0.79948884,-0.09832766,9.7721529006958,0.6147978901863098,-2.173506498336792,-1.9305905103683472,-26.79853630065918, -20.72744369506836
213,72467591,0.5837959,-0.07912855,-0.801764,-0.100477055,9.785096168518066,0.8494526743888855,-2.116086721420288,-4.900986194610596,-28.570438385009766, -21.27300453186035
214,72484258,0.580598,-0.077440776,-0.80395585,-0.10278125,9.778895378112793,0.6150878667831421,-2.3578715324401855,-5.9818220138549805,-27.97809410095215, -21.535293579101562
215,72500925,0.57743835,-0.075581394,-0.8061353,-0.104872964,9.702875137329102,0.8468195796012878,-2.508488655090332,-4.099752902984619,-27.716630935668945, -21.617210388183594
216,72517592,0.57422465,-0.0736808,-0.80833524,-0.10691822,9.706864356994629,0.6738292574882507,-2.7303547859191895,-3.678755283355713,-28.09494972229004, -21.716899871826172
217,72534259,0.5709964,-0.07188333,-0.81046665,-0.10926948,9.89433765411377,0.872880756855011,-2.5274345874786377,-5.8353166580200195,-27.821666717529297, -22.345928192138672
218,72550926,0.56747353,-0.070552915,-0.81263185,-0.11236443,9.936275482177734,1.4797101020812988,-2.131908655166626,-11.92102336883545,-29.59142303466797, -22.916614532470703
219,72567593,0.56332874,-0.0701544,-0.8148862,-0.11704625,9.631869316101074,3.0727779865264893,-1.737355351448059,-24.632280349731445,-33.39884567260742, -24.422138214111328
220,72584260,0.5582001,-0.07038942,-0.8174516,-0.12341389,10.11418628692627,2.7314305305480957,-1.7078702449798584,-36.70268630981445,-39.86494827270508, -28.278778076171875
221,72600927,0.55192167,-0.070647724,-0.8206595,-0.1300374,10.542878150939941,0.7338254451751709,-2.3294548988342285,-38.19125747680664,-48.754737854003906, -30.38315773010254
222,72617594,0.5449852,-0.07039299,-0.8242207,-0.13673532,11.094005584716797,0.7020924687385559,-2.5391266345977783,-36.65359115600586,-53.35971450805664, -34.3892822265625
223,72634261,0.536547,-0.07165591,-0.8280654,-0.1459131,11.173486709594727,0.5400634407997131,-2.707530975341797,-56.84173583984375,-63.21042251586914, -36.71781921386719
224,72650928,0.5269193,-0.07356953,-0.83218384,-0.15624914,11.225316047668457,1.4896457195281982,-2.2059385776519775,-66.14202880859375,-71.125244140625, -38.728397369384766
225,72667595,0.51745397,-0.07407916,-0.8361445,-0.16618179,11.956912994384766,1.1633448600769043,-2.0381813049316406,-58.806583404541016,-68.40032958984375, -45.12873458862305
226,72684262,0.5081796,-0.0736637,-0.8398667,-0.17592914,12.158129692077637,1.3055778741836548,-1.766664981842041,-54.60025405883789,-65.5956039428711, -49.558528900146484
227,72700929,0.49918967,-0.07236116,-0.8431244,-0.18631984,12.547118186950684,1.402063012123108,-1.1690568923950195,-55.601993560791016,-61.05498504638672, -56.46535873413086
228,72717596,0.49027887,-0.06997684,-0.8461618,-0.19682495,12.714192390441895,1.5742003917694092,-0.6157699227333069,-52.75075149536133,-58.55638122558594, -63.04658126831055
229,72734263,0.48135778,-0.0660354,-0.8491591,-0.2070332,13.085723876953125,0.8585461974143982,-0.1875806599855423,-45.7752571105957,-56.70269775390625, -71.2328109741211
230,72750930,0.47213796,-0.06058132,-0.85232604,-0.2166944,13.231820106506348,1.1914465427398682,0.359733909368515,-37.41255187988281,-57.31361389160156, -78.93196105957031
231,72767597,0.46252212,-0.0541222,-0.8553189,-0.22709861,13.536803245544434,1.0506649017333984,0.7038365602493286,-38.84988021850586,-57.49528884887695, -87.92793273925781
232,72784264,0.4520349,-0.047315456,-0.8583581,-0.23800714,13.715455055236816,0.846635639667511,0.8216562271118164,-40.873138427734375,-62.28605270385742, -93.16055297851562
233,72800931,0.44061667,-0.040630046,-0.8612844,-0.24979097,13.911343574523926,-0.11315035820007324,0.40236979722976685,-46.81364440917969,-67.59351348876953, -96.89204406738281
234,72817598,0.42747068,-0.036863748,-0.8633791,-0.26549286,13.30167007446289,-2.157641649246216,-1.1830531358718872,-80.71359252929688,-79.45207977294922, -94.5349349975586
235,72834265,0.4124003,-0.034091763,-0.8658738,-0.28111613,13.123330116271973,-1.1773656606674194,-4.398543834686279,-82.9589614868164,-94.02462768554688, -92.44271850585938
236,72850932,0.39835772,-0.025823789,-0.8699599,-0.28950652,12.323314666748047,-0.021257638931274414,-5.6473917961120605,-21.073848724365234,-83.52694702148438, -103.3997573852539
237,72867599,0.3846758,-0.014888974,-0.87508667,-0.29330274,11.055171966552734,3.837165355682373,-7.420170307159424,15.771125793457031,-79.75186157226562, -106.48622131347656
238,72884266,0.37146354,-0.007023691,-0.8787296,-0.29966643,10.936327934265137,1.5172066688537598,-4.365776062011719,-10.77488899230957,-78.88739776611328, -93.80774688720703
239,72900933,0.36212662,-0.0027411291,-0.88144815,-0.30316034,10.402730941772461,-3.976212501525879,1.5342901945114136,-4.355815410614014,-60.69582748413086, -56.99007797241211
240,72917600,0.35825902,-0.0011791099,-0.88214535,-0.3057269,8.404143333435059,-3.78568172454834,3.7547645568847656,-9.69068431854248,-28.446880340576172, -27.090747833251953
241,72934267,0.3590467,-0.0017713201,-0.88105965,-0.30792272,7.557022571563721,-2.504638195037842,2.1167333126068115,-16.47916030883789,-0.6060354113578796, -3.591902494430542
242,72950934,0.36443317,-0.0045428677,-0.8790755,-0.30723616,7.297879695892334,-2.5629513263702393,1.7367136478424072,-6.279225826263428,24.632482528686523, 26.260251998901367
243,72967601,0.37482825,-0.009824313,-0.87590545,-0.3036396,7.28550910949707,-1.8027029037475586,2.0118136405944824,2.6133530139923096,52.302982330322266, 59.15312194824219
244,72984268,0.39010683,-0.017958742,-0.8707697,-0.29875475,7.377252578735352,-1.0309168100357056,1.675666332244873,-0.8021925091743469,80.54611206054688, 89.83490753173828
245,73000935,0.40950078,-0.028968778,-0.8632283,-0.2937804,7.17978572845459,-0.5602120757102966,0.47237473726272583,-12.462471961975098,105.55142211914062, 115.91507720947266
246,73017602,0.43210462,-0.04286354,-0.8533436,-0.28853628,7.366151809692383,-0.21898245811462402,-0.7886741161346436,-23.154396057128906,125.2162857055664, 140.63140869140625
247,73034269,0.45709485,-0.059478104,-0.8412301,-0.28259248,7.683606147766113,0.2815602421760559,-1.7879763841629028,-30.951732635498047,140.19615173339844, 163.94651794433594
248,73050936,0.48340657,-0.078781046,-0.8271972,-0.27542093,8.376053810119629,1.4828046560287476,-2.139984369277954,-35.6136360168457,148.1571502685547, 186.60464477539062
249,73067603,0.5103429,-0.10140469,-0.8107115,-0.26835468,9.172808647155762,2.6943817138671875,-2.2017338275909424,-51.68263626098633,153.67877197265625, 207.5791473388672
250,73084270,0.5369165,-0.12620611,-0.792495,-0.26027787,9.689590454101562,2.314704656600952,-2.7909584045410156,-57.261898040771484,153.0797882080078, 223.75917053222656
251,73100937,0.5630285,-0.15150845,-0.7731622,-0.24952874,10.700518608093262,2.9283692836761475,-2.338777542114258,-47.083866119384766,151.6336212158203, 236.49899291992188
252,73117604,0.5889728,-0.17729776,-0.7518483,-0.23748924,11.723052024841309,3.7095158100128174,-1.845263123512268,-45.806392669677734,156.4749755859375, 245.9921875
253,73134271,0.614323,-0.20367345,-0.7285124,-0.22448663,12.420568466186523,4.160969257354736,-1.7290786504745483,-47.325172424316406,159.76837158203125, 254.67002868652344
254,73150938,0.63910896,-0.23017828,-0.7028093,-0.21122758,13.2047758102417,4.757548809051514,-1.7424426078796387,-51.10430145263672,166.75656127929688, 259.1828308105469
255,73167605,0.66277796,-0.2551121,-0.6758458,-0.197169,14.557085037231445,5.198803424835205,-2.0740203857421875,-43.97898483276367,168.32000732421875, 255.88504028320312
256,73184272,0.6849171,-0.2765168,-0.64920217,-0.18155959,16.33268165588379,6.449975490570068,-2.543147325515747,-22.955076217651367,162.234375, 244.3798065185547
257,73200939,0.7064338,-0.29245877,-0.6229707,-0.16530843,17.070465087890625,7.010776042938232,-3.0887985229492188,4.977746963500977,163.5305633544922, 221.99183654785156
258,73217606,0.7277147,-0.30112156,-0.59824646,-0.14784576,16.770551681518555,5.5589165687561035,-3.416555643081665,46.79282760620117,161.44454956054688, 193.95726013183594
259,73234273,0.7490593,-0.29989144,-0.5765261,-0.12881495,15.261341094970703,5.4905619621276855,-4.757620334625244,105.98206329345703,153.8629913330078, 155.45516967773438
260,73250940,0.7685683,-0.2894939,-0.5598896,-0.1096343,12.535858154296875,7.8670573234558105,-6.72733736038208,154.5730438232422,128.5867462158203, 108.23101806640625
261,73267607,0.7830104,-0.27504015,-0.5497365,-0.09506607,8.30463981628418,10.417463302612305,-10.631705284118652,153.10812377929688,87.43842315673828, 51.944679260253906
262,73284274,0.78920484,-0.25951788,-0.5502016,-0.08416943,3.665102005004883,7.966145038604736,-12.062302589416504,136.39175415039062,7.154936790466309, 3.0426368713378906
263,73300941,0.7865791,-0.25328955,-0.55704117,-0.08272268,7.465845108032227,12.761000633239746,-7.855708122253418,38.245628356933594,-48.955596923828125, -29.345829010009766
264,73317608,0.7785305,-0.25133216,-0.568316,-0.08797325,7.0268635749816895,6.716618061065674,-9.393362998962402,-17.403182983398438,-84.23937225341797, -59.73029708862305
265,73334275,0.7695069,-0.2536578,-0.57847416,-0.09425802,14.813583374023438,-9.064483642578125,5.112232208251953,-46.67021942138672,-82.66171264648438, -47.074485778808594
266,73350942,0.7660947,-0.25040635,-0.5846639,-0.092541,11.424735069274902,-14.394359588623047,7.675783157348633,21.90478515625,-49.74259567260742, -16.516857147216797
267,73367609,0.7638615,-0.23873551,-0.5927596,-0.09031741,10.0977201461792,2.6393892765045166,1.2983369827270508,71.55023956298828,-50.66646194458008, -50.470542907714844
268,73384276,0.75960463,-0.22820073,-0.60233676,-0.09008825,14.204469680786133,1.9059418439865112,0.41465428471565247,55.04924011230469,-64.10944366455078, -59.93646240234375
269,73400943,0.75339186,-0.21879238,-0.61313546,-0.092714354,15.273225784301758,6.26563835144043,0.9996031522750854,35.03400802612305,-74.77073669433594, -73.25534057617188
270,73417610,0.74510074,-0.21337704,-0.6246016,-0.095750295,10.637746810913086,1.8038828372955322,-1.0168673992156982,9.918278694152832,-88.89630126953125, -60.76154708862305
271,73434277,0.7364742,-0.21030223,-0.6355904,-0.09697351,10.54707145690918,-1.8175560235977173,-5.406660079956055,4.920318126678467,-92.06144714355469, -40.933876037597656
272,73450944,0.72951657,-0.20476957,-0.6453552,-0.09691119,13.60013198852539,1.277915358543396,-1.1664549112319946,24.610610961914062,-78.70893859863281, -42.32950210571289
273,73467611,0.7233309,-0.20039037,-0.65331364,-0.099082954,10.781258583068848,2.712784767150879,-0.3346463143825531,8.802962303161621,-63.832218170166016, -45.352935791015625
274,73484278,0.717317,-0.19885173,-0.6598171,-0.10274122,10.360713958740234,1.3683621883392334,-0.25780487060546875,-12.753374099731445,-55.717079162597656, -37.84922409057617
275,73500945,0.71246934,-0.19757605,-0.6651242,-0.10469542,11.013669967651367,-0.48499757051467896,-0.4387954771518707,-5.567566394805908,-47.05157470703125, -25.79814338684082
276,73517612,0.7085184,-0.19587563,-0.6697421,-0.1052627,10.05591869354248,-0.8179028630256653,0.16812138259410858,3.581904172897339,-41.1616325378418, -19.392385482788086
277,73534279,0.70486045,-0.1943577,-0.67401487,-0.10536083,9.667521476745605,-0.34217384457588196,0.367048442363739,4.998074531555176,-38.91019058227539, -15.620463371276855
278,73550946,0.70095575,-0.19385856,-0.6781238,-0.10596339,9.943893432617188,-0.7595548033714294,0.2047157734632492,-2.7240424156188965,-39.34026336669922, -13.325868606567383
279,73567613,0.6969598,-0.1935693,-0.6821581,-0.10695132,10.041580200195312,-0.7469266057014465,0.26001155376434326,-5.707607746124268,-39.061038970947266, -14.19564437866211
280,73584280,0.6926225,-0.19398814,-0.6860845,-0.109228544,9.732277870178223,-1.2798547744750977,0.13089007139205933,-15.68115520477295,-38.964237213134766, -17.180686950683594
281,73600947,0.6882421,-0.1945079,-0.68983805,-0.112307616,9.576644897460938,-1.5932285785675049,-0.41848963499069214,-20.131675720214844,-37.365264892578125, -20.350217819213867
282,73617614,0.6841478,-0.19417427,-0.69354266,-0.11505184,9.740713119506836,-1.9476139545440674,-0.3747970163822174,-14.16147518157959,-35.57403564453125, -22.55377960205078
283,73634281,0.6803309,-0.19269682,-0.6973845,-0.11693154,9.655611991882324,-1.2030662298202515,-0.2433965653181076,-4.180519104003906,-35.15471649169922, -23.933530807495117
284,73650948,0.6766301,-0.19044678,-0.70135957,-0.11830672,9.652681350708008,-1.4898574352264404,-0.45664119720458984,2.1124532222747803,-35.278587341308594, -25.381290435791016
285,73667615,0.6731783,-0.18730359,-0.70538783,-0.11906488,9.79672908782959,-0.994401752948761,-0.5839871764183044,9.610713005065918,-34.41370391845703, -26.705881118774414
286,73684282,0.6699131,-0.18366411,-0.70939106,-0.1193658,9.726655006408691,-0.45184430480003357,-0.5294933319091797,14.343645095825195,-33.58076858520508, -26.826221466064453
287,73700949,0.6664694,-0.18081473,-0.71308374,-0.12098075,9.990160942077637,0.5082003474235535,-0.19982080161571503,3.814197540283203,-32.01667404174805, -28.788949966430664
288,73717616,0.6626986,-0.17864129,-0.716737,-0.12331243,9.721637725830078,0.15940818190574646,-0.18960683047771454,-3.2357382774353027,-33.119956970214844, -28.982900619506836
289,73734283,0.6588614,-0.17633066,-0.7204375,-0.12561552,9.657785415649414,-0.7248861193656921,-0.8181303143501282,-2.51246976852417,-33.591522216796875, -29.64790916442871
290,73750950,0.6552711,-0.17335184,-0.7240833,-0.12756397,9.516792297363281,-0.18717893958091736,-0.9821683764457703,2.523207664489746,-31.976730346679688, -31.08279037475586
291,73767617,0.65166736,-0.16980931,-0.7278594,-0.12928838,9.41401195526123,-0.5173990726470947,-1.1818801164627075,6.275768756866455,-32.40532684326172, -33.053558349609375
292,73784284,0.6479954,-0.16541877,-0.7319267,-0.13046806,9.386881828308105,-0.7777494192123413,-1.470682144165039,12.980035781860352,-33.93486785888672, -35.266414642333984
293,73800951,0.6442119,-0.15995657,-0.7364456,-0.13058741,9.327006340026855,-1.1657623052597046,-1.3995643854141235,23.36736488342285,-36.75249099731445, -36.55991744995117
294,73817618,0.6404001,-0.15384512,-0.74117976,-0.12989217,9.575162887573242,-1.1258580684661865,-0.7593998908996582,30.528053283691406,-38.16312789916992, -36.51486587524414
295,73834285,0.6365801,-0.1474831,-0.7459377,-0.12880851,9.962581634521484,0.2912888526916504,-0.8332516551017761,33.62202835083008,-38.50263595581055, -36.12624740600586
296,73850952,0.6325418,-0.14144541,-0.7506599,-0.12803906,9.793380737304688,0.9410803318023682,-0.8208642601966858,30.33747673034668,-39.44020462036133, -35.99663162231445
297,73867619,0.62819535,-0.13594945,-0.7553357,-0.12789267,10.037059783935547,1.5158406496047974,-0.7511655688285828,24.427244186401367,-40.70586013793945, -36.13408279418945
298,73884286,0.62365216,-0.13133293,-0.75970083,-0.12909216,10.339228630065918,1.6756229400634766,-0.4839196801185608,13.183469772338867,-39.90787887573242, -37.256927490234375
299,73900953,0.61843663,-0.12834695,-0.7638797,-0.13248162,10.015871047973633,1.2397270202636719,-0.7665188312530518,-6.016608238220215,-42.099586486816406, -38.55379867553711
300,73917620,0.6126832,-0.12603849,-0.76808435,-0.13704008,10.024476051330566,0.9210490584373474,-1.2098618745803833,-15.486804008483887,-44.62729263305664, -40.47731399536133
301,73934287,0.6067007,-0.1235786,-0.77228194,-0.14220884,10.10866928100586,0.6349319815635681,-1.5768706798553467,-18.27568244934082,-45.140419006347656, -44.059173583984375
302,73950954,0.5998371,-0.120421335,-0.7772309,-0.14699,10.363763809204102,0.6903679966926575,-1.6963837146759033,-13.32221794128418,-52.604270935058594, -47.64946746826172
303,73967621,0.5921446,-0.116753004,-0.78282976,-0.15136547,10.120595932006836,0.832649827003479,-1.9868108034133911,-9.076644897460938,-59.53678512573242, -50.08784484863281
304,73984288,0.5837798,-0.11261606,-0.7888409,-0.15571989,10.784071922302246,-0.08702092617750168,-2.772891044616699,-7.164883136749268,-64.36543273925781, -53.559326171875
305,74000955,0.57481533,-0.10827707,-0.7950486,-0.16050346,11.659728050231934,-0.432354599237442,-2.9859964847564697,-8.938158988952637,-67.85760498046875, -57.183082580566406
306,74017622,0.5663059,-0.1018351,-0.8008481,-0.16604199,13.733622550964355,1.3976476192474365,-0.2914137840270996,-4.868752479553223,-60.87583923339844, -70.87091827392578
307,74034289,0.5575013,-0.093175605,-0.80692595,-0.17141019,14.313859939575195,1.2487328052520752,0.2463337630033493,4.818281650543213,-61.19578552246094, -82.95616149902344
308,74050956,0.5466733,-0.08350857,-0.8139801,-0.17779551,15.005314826965332,0.6005309820175171,1.1902015209197998,2.8971309661865234,-74.35406494140625, -95.4656753540039
309,74067623,0.53330296,-0.07389613,-0.8219286,-0.18590541,16.326066970825195,0.06263336539268494,2.3161373138427734,-7.32114839553833,-91.05850219726562, -105.28227996826172
310,74084290,0.5178099,-0.0647927,-0.82999516,-0.19693351,17.274934768676758,0.5704195499420166,3.4128663539886475,-26.60148811340332,-102.7025375366211, -115.90647888183594
311,74100957,0.5010307,-0.05662629,-0.8374254,-0.21090402,17.791522979736328,0.5678553581237793,4.263754367828369,-48.154178619384766,-107.79173278808594, -122.5231704711914
312,74117624,0.48372808,-0.0495172,-0.8436575,-0.22759025,18.1019229888916,-0.009243953973054886,3.956979513168335,-69.35955810546875,-107.21280670166016, -126.12015533447266
313,74134291,0.467029,-0.04237772,-0.84825593,-0.24606939,17.629770278930664,-2.491461992263794,2.837780475616455,-81.99739837646484,-97.6765365600586, -130.80462646484375
314,74150958,0.45142376,-0.034964383,-0.8519417,-0.26303896,16.186037063598633,-5.203739643096924,-0.47332215309143066,-73.5319595336914,-88.38687896728516, -125.49774932861328
315,74167625,0.43354478,-0.032215472,-0.8548911,-0.28312993,13.427154541015625,-5.880245208740234,-5.177661418914795,-108.19203186035156,-107.13140106201172, -111.87632751464844
316,74184292,0.41725522,-0.022287047,-0.8612814,-0.2891296,12.329926490783691,-3.1858463287353516,-7.185164451599121,3.0613720417022705,-97.17694091796875, -109.80052185058594
317,74200959,0.4033509,-0.008480889,-0.86824024,-0.28878278,10.103686332702637,6.733639240264893,-6.870745658874512,53.2332763671875,-77.93669128417969, -109.93946838378906
318,74217626,0.39198384,-0.0028618923,-0.8701758,-0.2985546,8.635220527648926,-2.228752374649048,-0.4363340139389038,-39.70278549194336,-64.5070571899414, -83.77422332763672
319,74234293,0.38809052,-0.0027326925,-0.8704628,-0.30277577,7.203153610229492,-9.650449752807617,5.263143539428711,-24.533275604248047,-26.73710823059082, -20.623165130615234
320,74250960,0.39041203,-0.0054222164,-0.8690209,-0.30389512,4.408788204193115,-5.090642929077148,3.7997376918792725,-16.98853302001953,9.108888626098633, 17.432035446166992
321,74267627,0.39746317,-0.010486814,-0.8663402,-0.3022714,4.892612934112549,-3.7860395908355713,1.8894044160842896,-9.390456199645996,35.61225891113281, 48.889339447021484
322,74284294,0.4094499,-0.019471195,-0.8626121,-0.29643297,5.1682538986206055,-3.3336472511291504,1.6935361623764038,3.1752102375030518,59.41537094116211, 94.07157135009766
323,74300961,0.42603645,-0.03160695,-0.8571541,-0.28771716,5.440305709838867,-1.7333695888519287,1.5561825037002563,8.452997207641602,84.75121307373047, 130.4580078125
324,74317628,0.4467898,-0.04679317,-0.84923136,-0.2774808,6.176513195037842,-0.9347973465919495,0.9273344278335571,4.506412982940674,110.15986633300781, 161.66880798339844
325,74334295,0.47086096,-0.06484758,-0.83861977,-0.26608685,6.785788059234619,-0.20133186876773834,0.444303423166275,-1.6109182834625244,131.94947814941406, 189.17193603515625
326,74350962,0.4974424,-0.08611097,-0.8246242,-0.2552081,7.418529510498047,0.982588529586792,0.032418444752693176,-20.046913146972656,151.744873046875, 212.1175994873047
327,74367629,0.5256213,-0.11050383,-0.8073803,-0.24423073,8.42488956451416,1.2238596677780151,-0.9979967474937439,-34.94873046875,166.37632751464844, 234.94189453125
328,74384296,0.5538773,-0.13695946,-0.78794867,-0.23151511,9.475493431091309,2.1014962196350098,-1.2106810808181763,-36.37419128417969,169.94186401367188, 254.4824676513672
329,74400963,0.5812255,-0.16495402,-0.76646227,-0.21795134,11.578075408935547,3.2194831371307373,-1.0493857860565186,-41.77110290527344,169.6146240234375, 266.5581359863281
330,74417630,0.6078594,-0.19334821,-0.74297124,-0.20277457,13.452242851257324,3.139406681060791,-0.6510840654373169,-38.68021774291992,171.44630432128906, 276.3406677246094
331,74434297,0.63446665,-0.22140794,-0.7167676,-0.18621285,16.11729621887207,4.342494487762451,-0.20460569858551025,-34.02518844604492,181.28761291503906, 284.02313232421875
332,74450964,0.6607163,-0.24892218,-0.68755865,-0.16957346,18.330814361572266,5.764455318450928,-0.2775420546531677,-35.659053802490234,193.2279052734375, 285.8376159667969
333,74467631,0.6856371,-0.27379367,-0.6570445,-0.15241957,19.248226165771484,4.960628032684326,-2.122837543487549,-25.0207462310791,195.08311462402344, 276.4208068847656
334,74484298,0.70955944,-0.2923244,-0.6271998,-0.13301374,21.0792236328125,4.960280418395996,-3.4166243076324463,13.880208015441895,189.83883666992188, 256.1367492675781
335,74500965,0.7329571,-0.30292678,-0.59844416,-0.113464564,21.068397521972656,6.414639472961426,-3.870809555053711,53.12785339355469,189.26222229003906, 220.0433349609375
336,74517632,0.7554522,-0.30502188,-0.571712,-0.09695158,17.593433380126953,10.262104034423828,-6.168827056884766,83.20753479003906,188.35931396484375, 164.9054412841797
337,74534299,0.7734703,-0.29696253,-0.5535284,-0.08463702,9.918865203857422,9.925993919372559,-13.686515808105469,115.75174713134766,141.99368286132812, 82.38037872314453
338,74550966,0.7834272,-0.2772703,-0.5515829,-0.07155106,1.3655989170074463,7.511595249176025,-19.32443618774414,173.56512451171875,30.276798248291016, 4.461073875427246
339,74567633,0.7814967,-0.2680964,-0.55923,-0.06818565,5.381555080413818,20.00127410888672,-10.924378395080566,62.12639236450195,-52.96318054199219, -32.094093322753906
340,74584300,0.77228314,-0.26909593,-0.5705229,-0.07530112,7.170016765594482,10.044611930847168,-11.627883911132812,-44.556278228759766,-85.91454315185547, -59.271446228027344
341,74600967,0.7620096,-0.2644809,-0.5857069,-0.07961847,10.557575225830078,3.771601438522339,-7.425888538360596,-3.695702314376831,-112.9169921875, -74.10787200927734
342,74617634,0.754801,-0.2635824,-0.59511167,-0.08149865,15.639966011047363,-22.568519592285156,9.699033737182617,-10.926179885864258,-76.70149230957031, -34.14984130859375
343,74634301,0.75501907,-0.24670286,-0.6031541,-0.072727196,10.574190139770508,-2.7637720108032227,2.9187376499176025,128.30059814453125,-49.6694450378418, -37.803043365478516
344,74650968,0.7538457,-0.22781934,-0.61255944,-0.06772099,15.340495109558105,5.767655849456787,1.940962791442871,121.40646362304688,-55.14345932006836, -68.69285583496094
345,74667635,0.74889207,-0.2142093,-0.623283,-0.069235,17.097414016723633,9.623574256896973,2.658745765686035,61.28791046142578,-70.13996124267578, -84.04653930664062
346,74684302,0.7410543,-0.20727003,-0.6345204,-0.07253834,10.2133150100708,5.653262138366699,-0.5628558397293091,15.258051872253418,-85.6950912475586, -66.71389770507812
347,74700969,0.73080134,-0.20819704,-0.64542186,-0.07755327,10.393965721130371,0.7248896956443787,-4.991236686706543,-35.89619445800781,-96.00494384765625, -41.803260803222656
348,74717636,0.7217765,-0.20672882,-0.6556028,-0.08054406,14.649864196777344,-1.4115643501281738,-3.573911666870117,-13.490449905395508,-88.52474212646484, -40.576255798339844
349,74734303,0.71473026,-0.20311743,-0.6639894,-0.08380035,10.808426856994629,0.8948509693145752,-1.346863031387329,-2.2239420413970947,-69.1181411743164, -47.921321868896484
350,74750970,0.70794785,-0.2018153,-0.67098135,-0.0886847,9.2211275100708,0.2844487726688385,-0.337078720331192,-21.436256408691406,-60.121437072753906, -43.28106689453125
351,74767637,0.70227623,-0.20016195,-0.6769621,-0.09201247,10.577058792114258,-1.2615563869476318,-0.9436688423156738,-11.619930267333984,-52.03373718261719, -35.252967834472656
352,74784304,0.69726783,-0.19781706,-0.682496,-0.09426425,10.389817237854004,-0.8952006697654724,-0.1463404893875122,-2.6405208110809326,-47.84148406982422, -32.26191711425781
353,74800971,0.6924561,-0.19546427,-0.68775,-0.09642856,10.125019073486328,-0.0018696201732382178,0.23595139384269714,-2.1054000854492188,-45.7052116394043, -31.388797760009766
354,74817638,0.68742126,-0.19423255,-0.6927609,-0.09903731,10.02927303314209,0.4959971010684967,0.5134023427963257,-10.006500244140625,-45.766239166259766, -28.034494400024414
355,74834305,0.6823452,-0.19361083,-0.69756186,-0.101625405,10.084328651428223,-0.4468272626399994,-0.04011772572994232,-12.986639976501465,-45.433815002441406, -24.78486442565918
356,74850972,0.67736554,-0.19305453,-0.70213497,-0.10446339,9.991785049438477,-0.9002141952514648,-0.6816284656524658,-14.523052215576172,-43.630714416503906, -25.285226821899414
357,74867639,0.67262787,-0.1924141,-0.7063876,-0.10754322,9.742019653320312,-1.217354655265808,-0.7446490526199341,-15.207192420959473,-40.60056686401367, -26.234148025512695
358,74884306,0.66815877,-0.19156308,-0.7103879,-0.110529654,9.886611938476562,-0.7057306170463562,-0.6883630752563477,-13.61086654663086,-38.107398986816406, -26.310321807861328
359,74900973,0.66389525,-0.19040316,-0.7142186,-0.11349869,10.152098655700684,-0.42548060417175293,-0.6391167044639587,-11.966165542602539,-36.1230354309082, -27.3727970123291
360,74917640,0.65992236,-0.18887384,-0.7178378,-0.11635369,9.82367992401123,-0.7580146193504333,-0.8378294110298157,-9.504786491394043,-33.60316467285156, -28.17265510559082
361,74934307,0.6561885,-0.1871127,-0.72125405,-0.119156905,9.671401977539062,-0.7057341933250427,-1.0983277559280396,-8.049253463745117,-31.393104553222656, -28.64055061340332
362,74950974,0.6524998,-0.18518321,-0.7246264,-0.12193531,9.548632621765137,-0.21635031700134277,-0.9520789384841919,-7.146693706512451,-30.872161865234375, -29.282421112060547
363,74967641,0.64868957,-0.18317227,-0.7280692,-0.124761775,9.533965110778809,-0.13501016795635223,-0.9248636960983276,-7.116255760192871,-31.671897888183594, -30.1041202545166
364,74984308,0.64471877,-0.1812516,-0.7315211,-0.12791727,9.55452823638916,0.05640926957130432,-0.8847184181213379,-9.3607177734375,-32.18888473510742, -31.277502059936523
365,75000975,0.6405761,-0.17934348,-0.73504305,-0.13118775,9.691252708435059,-0.4526398479938507,-0.735241174697876,-10.147446632385254,-33.24043273925781, -31.9693660736084
366,75017642,0.63641626,-0.17693922,-0.73870313,-0.13410829,9.600768089294434,-0.3578796088695526,-1.0360660552978516,-6.09126091003418,-33.93089294433594, -33.13326644897461
367,75034309,0.63213855,-0.17409195,-0.7425748,-0.13665974,9.469388008117676,-0.2729688286781311,-1.332383394241333,-2.2273504734039307,-35.50413131713867, -34.14639663696289
368,75050976,0.62782216,-0.17048351,-0.7467151,-0.13853422,9.289847373962402,-0.5152437686920166,-1.7090716361999512,4.7410125732421875,-36.97084045410156, -35.459625244140625
369,75067643,0.6234325,-0.16598767,-0.75115126,-0.13982877,9.325128555297852,-0.4317959249019623,-1.5254664421081543,11.744720458984375,-38.46221160888672, -37.94391632080078
370,75084310,0.618846,-0.16093561,-0.75595397,-0.14022584,9.64256477355957,-0.5132161974906921,-1.2477612495422363,18.890003204345703,-41.544586181640625, -37.59071350097656
371,75100977,0.6139699,-0.15532394,-0.7611701,-0.13977093,9.476651191711426,-0.4931657612323761,-1.3439403772354126,25.77582359313965,-45.22050857543945, -37.62544631958008
372,75117644,0.6090716,-0.14946517,-0.76620334,-0.1400888,10.000056266784668,0.9755843877792358,-1.0965254306793213,22.573986053466797,-43.509307861328125, -42.021549224853516
373,75134311,0.60365355,-0.14425161,-0.77114457,-0.14188087,10.199735641479492,0.42654716968536377,-1.0905258655548096,11.484712600708008,-44.97901916503906, -45.20478820800781
374,75150978,0.5978187,-0.13930966,-0.7760694,-0.14464474,10.102071762084961,0.1473027467727661,-1.6163278818130493,4.774814128875732,-46.435302734375, -48.196563720703125
375,75167645,0.5919462,-0.13428666,-0.7808064,-0.14801584,10.1626615524292,1.2334719896316528,-1.6654648780822754,1.6452139616012573,-45.20930862426758, -50.992774963378906
376,75184312,0.5861124,-0.12944005,-0.7851749,-0.15237644,10.217193603515625,1.5578941106796265,-1.723694086074829,-4.7209601402282715,-42.77742004394531, -53.696285247802734
377,75200979,0.58014077,-0.124348275,-0.78947794,-0.15715976,10.488279342651367,0.9287652373313904,-2.1931192874908447,-6.205556392669678,-42.63295364379883, -56.81000518798828
378,75217646,0.5736565,-0.118495055,-0.7942381,-0.16144125,10.234277725219727,0.8808562755584717,-2.374197244644165,-0.3902301490306854,-46.85304260253906, -59.893131256103516
379,75234313,0.5663882,-0.11238374,-0.7993017,-0.16640769,11.928962707519531,0.19203370809555054,-1.8646663427352905,-3.412808418273926,-51.49070358276367, -65.1311264038086
380,75250980,0.55854475,-0.104665406,-0.80474615,-0.17163056,13.014118194580078,0.9314211010932922,-1.0024545192718506,1.4251149892807007,-54.112857818603516, -75.93074035644531
381,75267647,0.5495591,-0.095822796,-0.81066716,-0.17782557,13.920209884643555,1.1345269680023193,-0.3113045394420624,0.10611124336719513,-60.26252746582031, -87.58985137939453
382,75284314,0.538733,-0.08557916,-0.81744546,-0.18500382,14.6432523727417,0.7706689834594727,0.39677464962005615,-0.23924845457077026,-71.43163299560547, -101.9471664428711
383,75300981,0.5257111,-0.0749969,-0.82494825,-0.193557,15.66912841796875,0.23768387734889984,1.562321662902832,-7.077861785888672,-85.2576904296875, -112.1868667602539
384,75317648,0.5107946,-0.06427767,-0.8327498,-0.20367946,17.120264053344727,0.08354976028203964,2.8723695278167725,-16.055192947387695,-96.14632415771484, -121.34632873535156
385,75334315,0.49459845,-0.05404269,-0.8402643,-0.21542527,17.89318084716797,-0.28200700879096985,4.288559913635254,-28.00581169128418,-102.4923324584961, -125.9832763671875
386,75350982,0.4781436,-0.04492773,-0.84614545,-0.23108111,19.096118927001953,-1.4209188222885132,4.116867542266846,-56.90545654296875,-98.71609497070312, -132.63949584960938
387,75367649,0.4609123,-0.03563132,-0.8511701,-0.24859662,18.658945083618164,-2.0737006664276123,2.5097200870513916,-68.71452331542969,-99.63243103027344, -140.8518524169922
388,75384316,0.44173247,-0.029458458,-0.85492545,-0.27038383,16.411788940429688,-5.109138488769531,-1.7750544548034668,-106.25831604003906,-111.3697738647461, -139.2138671875
389,75400983,0.42302707,-0.019088402,-0.860342,-0.28371742,14.530924797058105,-4.135610103607178,-5.6902618408203125,-40.6467170715332,-107.55425262451172, -137.7528839111328
390,75417650,0.4063036,-0.0048736525,-0.8672382,-0.2877355,11.496102333068848,0.18349644541740417,-7.0040693283081055,28.755264282226562,-93.85609436035156, -129.7939453125
391,75434317,0.39080304,0.006990127,-0.8725512,-0.29305065,11.133736610412598,3.925726890563965,-2.708347797393799,11.33856201171875,-86.73426818847656, -116.9510498046875
392,75450984,0.3802541,0.011304421,-0.8752432,-0.29871184,8.563243865966797,-7.098965167999268,1.5924358367919922,-16.535757064819336,-65.2232437133789, -62.7407112121582
393,75467651,0.37671095,0.011387579,-0.875951,-0.30111364,6.523379325866699,-6.979377746582031,4.602534770965576,-12.628631591796875,-26.340364456176758, -14.586637496948242
394,75484318,0.3787436,0.008709218,-0.87494534,-0.3015764,5.5694074630737305,-4.270059108734131,2.036628007888794,-12.098398208618164,6.077475070953369, 18.42296028137207
395,75500985,0.38607913,0.0030679195,-0.87299,-0.29803059,5.902404308319092,-4.10179328918457,1.9723626375198364,2.0023365020751953,34.5315055847168, 57.59474563598633
396,75517652,0.3979804,-0.0051239873,-0.8702025,-0.29040197,5.736429691314697,-2.710714817047119,1.947464108467102,17.92568588256836,58.98695373535156, 93.05477142333984
397,75534319,0.41418785,-0.015083503,-0.865888,-0.2801055,6.312106132507324,-1.2081925868988037,1.301511287689209,26.149831771850586,85.2901840209961, 119.57027435302734
398,75550986,0.4344653,-0.02720134,-0.85955405,-0.2677072,6.826155185699463,-1.0711894035339355,0.823662281036377,29.049854278564453,110.88442993164062, 146.45257568359375
399,75567653,0.45834777,-0.041495573,-0.85063905,-0.25418273,7.201664447784424,0.21592609584331512,0.13314630091190338,25.125350952148438,135.6755828857422, 169.79891967773438
400,75584320,0.484803,-0.058294866,-0.8387743,-0.24088514,7.809481143951416,0.630629301071167,-0.9709802865982056,11.482346534729004,155.70458984375, 189.08229064941406
401,75600987,0.5132669,-0.07712538,-0.8241582,-0.22665389,8.898693084716797,1.3850603103637695,-1.7591596841812134,6.338443756103516,172.73126220703125, 208.3544921875
402,75617654,0.542626,-0.098133355,-0.80675757,-0.2122947,9.90334701538086,2.1049697399139404,-1.9227864742279053,-4.486793041229248,184.18527221679688, 224.03196716308594
403,75634321,0.5719326,-0.1217758,-0.7865947,-0.19832441,11.308242797851562,2.8827569484710693,-2.102379560470581,-20.54777717590332,190.63523864746094, 239.00485229492188
404,75650988,0.6008465,-0.14884356,-0.7632647,-0.18508452,12.44063949584961,3.9019112586975098,-1.8527626991271973,-42.62208557128906,196.93479919433594, 256.8076171875
405,75667655,0.6284556,-0.17938462,-0.7370378,-0.17216313,13.651453971862793,4.159243106842041,-2.121567726135254,-63.67945098876953,197.98928833007812, 275.0710754394531
406,75684322,0.65427876,-0.21095125,-0.70889384,-0.15776154,16.0937557220459,4.514945983886719,-2.437350034713745,-65.08615112304688,194.2148895263672, 286.96209716796875
407,75700989,0.6785164,-0.24154086,-0.6788876,-0.14277716,19.209346771240234,6.251099109649658,-2.3751416206359863,-62.175655364990234,195.1139373779297, 285.8528137207031
408,75717656,0.7009341,-0.26849487,-0.64841425,-0.12712628,20.739181518554688,6.237499713897705,-3.6982431411743164,-45.58082580566406,191.28921508789062, 271.0479431152344
409,75734323,0.7221649,-0.28525144,-0.62085295,-0.1079416,20.099891662597656,6.131731986999512,-5.8277106285095215,19.68741798400879,174.3888397216797, 236.27447509765625
410,75750990,0.74453443,-0.2854373,-0.59745073,-0.08512867,17.92020034790039,9.264196395874023,-7.497553825378418,122.79962921142578,163.85043334960938, 176.33908081054688
411,75767657,0.7650087,-0.2726161,-0.5799115,-0.06438235,11.809388160705566,12.452377319335938,-13.087060928344727,180.62184143066406,137.8115997314453, 99.84569549560547
412,75784324,0.77776366,-0.24992612,-0.5750472,-0.044064917,2.2561802864074707,8.5519380569458,-18.88545799255371,221.97891235351562,45.67587661743164, 31.20821762084961
413,75800991,0.7787834,-0.24043503,-0.57817715,-0.03740051,5.266514301300049,20.164731979370117,-12.020479202270508,79.6762466430664,-23.829666137695312, -6.83987283706665
414,75817658,0.7700137,-0.24422674,-0.58770424,-0.04512455,6.475852012634277,13.136983871459961,-12.929902076721191,-63.18596649169922,-76.51024627685547, -43.985843658447266
415,75834325,0.7583883,-0.24580128,-0.6013772,-0.052674916,11.3795747756958,-0.3491653800010681,-3.707332134246826,-54.237308502197266,-109.49269104003906, -59.74686813354492
416,75850992,0.7532532,-0.24172539,-0.609372,-0.053332478,15.961532592773438,-16.798322677612305,9.19558334350586,12.655029296875,-62.61358642578125, -35.21063995361328
417,75867659,0.7520048,-0.22380847,-0.6180711,-0.048853677,13.755511283874512,4.084721565246582,1.183955430984497,112.58240509033203,-53.51860427856445, -66.48725891113281
418,75884326,0.7476952,-0.20855527,-0.6285739,-0.048493795,14.825170516967773,5.226761341094971,1.0360801219940186,77.18840789794922,-70.403564453125, -80.22156524658203
419,75900993,0.74117196,-0.19470891,-0.6405098,-0.049999923,14.74864387512207,4.740950584411621,-2.2977030277252197,59.190711975097656,-85.12643432617188, -86.47003173828125
420,75917660,0.7310797,-0.18636897,-0.6543662,-0.05093468,11.296768188476562,4.461385250091553,-5.464938163757324,29.53074073791504,-113.25749206542969, -63.05681228637695
421,75934327,0.7203542,-0.180183,-0.667608,-0.054072462,11.919227600097656,0.0652148500084877,0.5023318529129028,7.785219669342041,-110.90045928955078, -63.836204528808594
422,75950994,0.7120924,-0.17271684,-0.67822933,-0.05566332,9.323472023010254,-2.217627763748169,-3.3323841094970703,23.306652069091797,-88.06470489501953, -57.89497375488281
423,75967661,0.70539683,-0.16735177,-0.686222,-0.059231095,10.580402374267578,2.1878886222839355,-1.0889496803283691,4.662662982940674,-66.32815551757812, -54.087890625
424,75984328,0.699509,-0.16432808,-0.6925326,-0.06389333,10.996319770812988,1.8625922203063965,-0.2611120641231537,-11.609602928161621,-54.06156539916992, -46.07269287109375
425,76000995,0.6942167,-0.16180485,-0.698085,-0.06752689,11.481255531311035,0.9904335737228394,-0.3438609838485718,-8.778410911560059,-48.97856140136719, -37.61529541015625
426,76017662,0.6892838,-0.1595053,-0.7032182,-0.070215985,10.562033653259277,0.47229108214378357,-0.1694987416267395,-5.102414131164551,-46.42632293701172, -31.401979446411133
427,76034329,0.6850695,-0.15680589,-0.70777434,-0.071744755,9.964767456054688,-0.7348119616508484,-0.25980818271636963,2.9110233783721924,-41.31300735473633, -26.864749908447266
428,76050996,0.68143195,-0.15349427,-0.7119554,-0.07217631,10.200141906738281,-0.7222219109535217,-0.6394670009613037,11.571718215942383,-37.638118743896484, -24.00851058959961
429,76067663,0.677651,-0.15093884,-0.71592873,-0.07384385,9.759333610534668,-0.2718813717365265,-0.8995060324668884,1.7223188877105713,-36.451290130615234, -25.96980857849121
430,76084330,0.67374444,-0.14973903,-0.7194905,-0.077331536,9.465604782104492,-0.6411876678466797,-1.110652208328247,-13.888818740844727,-33.96377944946289, -27.428659439086914
431,76100997,0.6704389,-0.14754291,-0.7227862,-0.079518646,9.702613830566406,-1.5485187768936157,-1.113546371459961,-2.3644886016845703,-30.57846450805664, -25.7568416595459
432,76117664,0.6678979,-0.14315638,-0.72601986,-0.07946143,9.408262252807617,-1.4935017824172974,-1.148126482963562,19.62391471862793,-27.581518173217773, -25.84317398071289
433,76134331,0.6657941,-0.13711177,-0.729324,-0.07749586,9.29064655303955,-0.4360180199146271,-1.065690040588379,37.23194122314453,-26.701393127441406, -25.214946746826172
434,76150998,0.66343087,-0.13114992,-0.7327628,-0.0756186,9.462919235229492,1.5667285919189453,-0.49376916885375977,36.235530853271484,-28.58521842956543, -25.486730575561523
435,76167665,0.66028464,-0.1273616,-0.73617125,-0.076520376,9.942441940307617,1.4912461042404175,-0.23554609715938568,11.600586891174316,-31.02886390686035, -27.588634490966797
436,76184332,0.6562257,-0.12465147,-0.74009293,-0.07805323,9.83215618133545,0.7115781307220459,-0.1558859944343567,2.984548568725586,-38.010581970214844, -25.922643661499023
437,76200999,0.65191185,-0.122297294,-0.74409074,-0.07989671,9.844694137573242,-0.13272415101528168,-0.28510984778404236,-0.3776109516620636,-39.595401763916016, -25.71908950805664
438,76217666,0.6476566,-0.11989362,-0.74797815,-0.08182506,10.033746719360352,0.28435835242271423,-0.7466545104980469,-0.600788950920105,-38.722259521484375, -26.241539001464844
439,76234333,0.6432931,-0.11794606,-0.75174224,-0.08453763,9.931401252746582,0.5279816389083862,-0.7948769330978394,-6.823264122009277,-38.355106353759766, -27.35613250732422
440,76251000,0.6385902,-0.11630003,-0.75561893,-0.08784717,9.880950927734375,-0.055920254439115524,-1.1099826097488403,-11.450504302978516,-40.314613342285156, -28.734445571899414
441,76267667,0.6337631,-0.114382125,-0.7595297,-0.09152061,9.649675369262695,-0.2630677819252014,-1.0699794292449951,-12.224870681762695,-40.66901779174805, -31.861602783203125
442,76284334,0.62860465,-0.11222868,-0.763595,-0.09583295,9.62912654876709,-0.24554423987865448,-1.1161924600601196,-14.699248313903809,-42.43563461303711, -36.22248077392578
443,76301001,0.6230551,-0.10974079,-0.7678712,-0.1006636,9.876728057861328,-0.34560149908065796,-1.2523643970489502,-16.139619827270508,-44.79542922973633, -40.65589904785156
444,76317668,0.6171774,-0.106455356,-0.7724246,-0.105451256,10.013297080993652,-0.04953073710203171,-1.1375280618667603,-12.552721977233887,-47.20958709716797, -45.13735580444336
445,76334335,0.6111031,-0.10243098,-0.77710485,-0.11031336,10.236955642700195,0.11961311846971512,-1.3151205778121948,-9.86520767211914,-48.21833419799805, -49.629615783691406
446,76351002,0.60462296,-0.09778094,-0.78207487,-0.1150181,10.175274848937988,0.48298078775405884,-1.1223762035369873,-6.462156772613525,-51.25556182861328, -52.83906936645508
447,76367669,0.59794503,-0.09239255,-0.7871724,-0.11952053,10.315542221069336,0.6097119450569153,-1.8281993865966797,-2.335068941116333,-52.41716766357422, -56.22441482543945
448,76384336,0.59093666,-0.087118536,-0.79227895,-0.12449265,10.517122268676758,0.36757227778434753,-2.1886868476867676,-5.551624774932861,-54.05057907104492, -57.826438903808594
449,76401003,0.58389807,-0.07974179,-0.79750735,-0.12917581,11.607253074645996,1.24149489402771,-0.6700298190116882,4.6523942947387695,-53.0916748046875, -68.22291564941406
450,76417670,0.57609284,-0.07087302,-0.8032894,-0.13349272,12.02484130859375,1.5418076515197754,-0.6512671709060669,12.725146293640137,-58.42094421386719, -75.929931640625
451,76434337,0.5672304,-0.060867935,-0.8095013,-0.13875403,13.642782211303711,1.0045503377914429,-0.018769629299640656,11.8942232131958,-64.48806762695312, -87.13834381103516
452,76451004,0.55692285,-0.050168935,-0.81612605,-0.14580308,15.203688621520996,0.5100586414337158,0.42640042304992676,4.44734001159668,-72.7721939086914, -99.54763793945312
453,76467671,0.5444219,-0.04066432,-0.82316864,-0.1560288,16.32314682006836,-0.08483297377824783,1.7976107597351074,-18.28453254699707,-86.83338928222656, -107.38611602783203
454,76484338,0.5297716,-0.03208357,-0.8303983,-0.16956325,17.958213806152344,0.19446143507957458,3.711465835571289,-40.86239242553711,-99.8364486694336, -116.9486312866211
455,76501005,0.51240444,-0.024127603,-0.8382441,-0.18495086,18.958276748657227,-0.378529816865921,5.626615524291992,-53.5827522277832,-118.00554656982422, -123.49337005615234
456,76517672,0.49371296,-0.017744722,-0.84486395,-0.20527534,20.41473960876465,0.22210022807121277,6.7343525886535645,-89.33723449707031,-122.61402893066406, -133.37916564941406
457,76534339,0.47472596,-0.012487744,-0.84886944,-0.23216408,18.93638038635254,-1.6011236906051636,3.4516425132751465,-134.9933624267578,-116.3681640625, -149.31529235839844
458,76551006,0.45386136,-0.006879913,-0.8535294,-0.25583273,15.746835708618164,-7.773304462432861,-4.861238479614258,-114.14434814453125,-129.25527954101562, -144.01382446289062
459,76567673,0.43321258,0.0041469936,-0.8612789,-0.26553446,13.835291862487793,-4.310144424438477,-6.455124855041504,-9.863818168640137,-128.75364685058594, -132.11907958984375
460,76584340,0.4163142,0.018278863,-0.8689627,-0.2669316,11.149341583251953,0.8107781410217285,-5.6921515464782715,48.290191650390625,-100.43505859375, -119.00067901611328
461,76601007,0.40179187,0.028321305,-0.87356746,-0.27320558,9.640966415405273,3.2541921138763428,-1.9307156801223755,1.4749188423156738,-85.53620147705078, -104.57623291015625
462,76617674,0.3922469,0.031844016,-0.8754877,-0.28044602,7.9697442054748535,-5.420145034790039,0.9053236246109009,-28.344730377197266,-60.66960525512695, -59.26781463623047
463,76634341,0.38950837,0.03123235,-0.87617576,-0.2821775,6.141364097595215,-8.84381103515625,3.5672168731689453,-10.224973678588867,-23.166358947753906, -6.7363996505737305
464,76651008,0.39245927,0.028801765,-0.87595123,-0.27902627,4.779918193817139,-4.945672512054443,1.7690531015396118,11.293085098266602,11.032076835632324, 28.064598083496094
465,76667675,0.39973462,0.023971478,-0.8746416,-0.27320287,4.7195353507995605,-3.1103415489196777,0.9653254151344299,17.953771591186523,35.91031265258789, 57.774261474609375
466,76684342,0.41157505,0.01587626,-0.8720028,-0.2645096,4.956092834472656,-3.016618013381958,1.2272140979766846,22.975322723388672,61.34461975097656, 93.63423919677734
467,76701009,0.4279384,0.004807904,-0.86747456,-0.2536412,5.591949462890625,-1.5777451992034912,0.9231148958206177,23.661497116088867,88.62603759765625, 125.61876678466797
468,76717676,0.44798693,-0.008809751,-0.8608635,-0.24113095,6.081634521484375,-0.001015656627714634,0.15751048922538757,22.194053649902344,112.33258819580078, 152.00747680664062
469,76734343,0.47082278,-0.02479014,-0.85207653,-0.22732565,6.6604413986206055,0.15949611365795135,-0.352325439453125,19.137659072875977,131.53257751464844, 174.74427795410156
470,76751010,0.49637485,-0.04302206,-0.8405759,-0.21258806,7.728128910064697,0.6388129591941833,-0.475925475358963,13.529094696044922,152.55589294433594, 195.6705780029297
471,76767677,0.52402526,-0.06331554,-0.82609046,-0.19739127,8.978747367858887,1.1813039779663086,-1.3181068897247314,5.400243759155273,171.72569274902344, 213.1156005859375
472,76784344,0.55283356,-0.08546542,-0.8086936,-0.18189444,10.162248611450195,1.858777403831482,-1.8363232612609863,-3.034172773361206,186.15480041503906, 227.59524536132812
473,76801011,0.5811313,-0.10959572,-0.7889551,-0.16680959,11.626880645751953,2.2863047122955322,-2.0144360065460205,-16.088863372802734,189.9956817626953, 237.7967529296875
474,76817678,0.6087454,-0.13538355,-0.76686376,-0.15172522,13.127988815307617,2.605119466781616,-2.0378739833831787,-25.93953514099121,193.806396484375, 247.80166625976562
475,76834345,0.6354272,-0.16321155,-0.7422041,-0.13684948,14.653850555419922,3.706247329711914,-2.0393753051757812,-39.12989807128906,197.73348999023438, 259.1377868652344
476,76851012,0.6605054,-0.19318481,-0.71511763,-0.12255308,15.828726768493652,5.448079586029053,-2.3239002227783203,-55.5599365234375,198.81687927246094, 268.822509765625
477,76867679,0.6830226,-0.22423327,-0.68653303,-0.10895931,17.415096282958984,6.456919193267822,-3.0220608711242676,-68.55941772460938,193.09259033203125, 270.8219909667969
478,76884346,0.70286316,-0.25356156,-0.65762424,-0.09602445,19.143190383911133,6.511710166931152,-3.71524715423584,-67.9743423461914,184.33108520507812, 258.1857604980469
479,76901013,0.7214501,-0.27613845,-0.6296736,-0.08227089,19.758995056152344,6.094110488891602,-4.568222999572754,-33.190399169921875,177.1137237548828, 229.20700073242188
480,76917680,0.7406891,-0.28412938,-0.605376,-0.06457747,17.31981086730957,6.347805976867676,-6.45150089263916,59.54459762573242,162.64837646484375, 179.14256286621094
481,76934347,0.75914985,-0.27522853,-0.5881178,-0.045370877,10.897224426269531,10.25541877746582,-11.81568717956543,153.49295043945312,128.19549560546875, 102.56832885742188
482,76951014,0.77003694,-0.25522286,-0.58413076,-0.026382186,3.1874985694885254,10.75846004486084,-15.841373443603516,200.40875244140625,32.32207489013672, 29.200021743774414
483,76967681,0.7723702,-0.23948984,-0.5880547,-0.016763968,6.287245750427246,18.397502899169922,-10.782325744628906,126.59168243408203,-28.059255599975586, -18.568984985351562
484,76984348,0.76649153,-0.23243058,-0.59845793,-0.017758928,8.37051010131836,11.116120338439941,-11.91743278503418,24.84748649597168,-79.0538330078125, -51.27055358886719
485,77001015,0.758527,-0.22987863,-0.6093323,-0.022515602,14.090879440307617,-3.1076033115386963,1.459773302078247,-17.63535499572754,-84.51742553710938, -53.42296600341797
486,77017682,0.75533533,-0.22236913,-0.61607087,-0.021854697,13.027287483215332,-5.649110317230225,4.414174556732178,37.825775146484375,-50.747703552246094, -38.66640853881836
487,77034349,0.751446,-0.21134458,-0.6245094,-0.025504474,15.495126724243164,7.116366863250732,0.7021791934967041,37.007179260253906,-55.448646545410156, -78.68892669677734
488,77051016,0.7442414,-0.20411435,-0.6350875,-0.033261385,15.631380081176758,5.944355010986328,0.7560204267501831,-4.68233585357666,-75.42668914794922, -87.20275115966797
489,77067683,0.73477334,-0.19859521,-0.64733016,-0.040400416,12.913989067077637,1.4990907907485962,-7.868322372436523,-13.535744667053223,-95.08527374267578, -79.33721160888672
490,77084350,0.72429967,-0.19462734,-0.6598702,-0.04562663,15.004080772399902,4.939495086669922,-0.37333691120147705,-14.12621784210205,-104.0196533203125, -63.427276611328125
491,77101017,0.71467596,-0.19139993,-0.6708511,-0.0506285,9.555771827697754,-1.7395617961883545,-1.0434290170669556,-16.12777328491211,-92.93367004394531, -56.533321380615234
492,77117684,0.7075339,-0.18624873,-0.67966205,-0.052600853,9.682122230529785,-1.5539487600326538,-2.4161648750305176,9.816240310668945,-74.14111328125, -46.83018493652344
493,77134351,0.7010946,-0.18215576,-0.6871305,-0.056011032,9.669486045837402,0.3620189428329468,-1.384114146232605,-1.6236497163772583,-62.854488372802734, -46.93381881713867
494,77151018,0.6952118,-0.17893223,-0.6936705,-0.05903515,10.689555168151855,-0.48809105157852173,-0.5147619247436523,-3.6450939178466797,-56.56881332397461, -39.59453201293945
495,77167685,0.68979836,-0.17568757,-0.69967526,-0.061375387,10.841864585876465,0.3378983736038208,0.0828934833407402,0.084081269800663,-52.61777114868164, -35.592872619628906
496,77184352,0.6847764,-0.17274179,-0.70515215,-0.063260905,10.122152328491211,-0.40361836552619934,-0.313026487827301,1.1051819324493408,-48.92643356323242, -31.20274543762207
497,77201019,0.6801628,-0.1703329,-0.71003217,-0.06496144,9.739587783813477,-0.756167471408844,-0.5939690470695496,-0.29670029878616333,-44.60680389404297, -26.858957290649414
498,77217686,0.67600495,-0.16761252,-0.7145285,-0.06612722,10.21141242980957,-1.0181032419204712,-0.5155504941940308,4.135287761688232,-41.08821487426758, -25.24714469909668
499,77234353,0.67225057,-0.1646483,-0.7186392,-0.06729161,9.884357452392578,-0.6560613512992859,-0.6369459629058838,5.565212726593018,-37.22014617919922, -25.834285736083984
500,77251020,0.6686581,-0.16206963,-0.722372,-0.06934336,9.928213119506836,-0.5903815031051636,-0.7587562799453735,-0.5909913778305054,-33.86195755004883, -27.547103881835938
501,77267687,0.66507494,-0.15973471,-0.72593945,-0.07191913,9.633650779724121,-0.9842535257339478,-0.7613627910614014,-4.382617950439453,-32.601314544677734, -28.573928833007812
502,77284354,0.66162413,-0.15724452,-0.7293819,-0.074364915,9.599654197692871,-0.4872701168060303,-0.6736211180686951,-2.941458225250244,-31.449716567993164, -28.574594497680664
503,77301021,0.65817636,-0.15458547,-0.7328415,-0.076489724,9.747228622436523,-0.2026381641626358,-0.4555586874485016,-0.5526871085166931,-31.78810691833496, -27.994548797607422
504,77317688,0.6547427,-0.15191351,-0.7362262,-0.07877511,9.798019409179688,-0.3904615342617035,-0.5665146708488464,-1.3267462253570557,-31.21926498413086, -28.712688446044922
505,77334355,0.65119284,-0.14893097,-0.73971474,-0.081177615,9.677029609680176,-0.6961203813552856,-0.8232902884483337,-0.5880845189094543,-32.00029373168945, -30.998882293701172
506,77351022,0.6474187,-0.14559245,-0.7434067,-0.08365708,9.590213775634766,-0.7217013239860535,-0.980576753616333,0.4992659091949463,-33.78878402709961, -33.50685119628906
507,77367689,0.6434441,-0.14179935,-0.74732995,-0.085853636,9.475436210632324,-0.5612989068031311,-1.036729097366333,3.8998425006866455,-35.87550735473633, -34.937137603759766
508,77384356,0.6392017,-0.13733734,-0.75159425,-0.087557614,9.481504440307617,-0.7751985788345337,-1.1247422695159912,9.329439163208008,-38.857582092285156, -36.703914642333984
509,77401023,0.6348468,-0.1321148,-0.75604224,-0.088970274,9.469758987426758,-0.9053130149841309,-1.2744102478027344,14.1808500289917,-40.07453918457031, -39.61651611328125
510,77417690,0.6302535,-0.12595698,-0.7608214,-0.08981421,9.298933982849121,-1.1489007472991943,-1.4908173084259033,21.203426361083984,-42.710941314697266, -42.46516799926758
511,77434357,0.6254754,-0.118896306,-0.76582825,-0.09028668,9.534674644470215,-0.4184269607067108,-1.3608509302139282,27.038291931152344,-44.43599319458008, -45.916866302490234
512,77451024,0.62046075,-0.11127974,-0.7709859,-0.090698235,9.53581714630127,0.09695214778184891,-1.3525986671447754,29.64896011352539,-46.042659759521484, -48.8701286315918
513,77467691,0.61554575,-0.10338116,-0.7759335,-0.09134045,10.14190673828125,1.4759562015533447,-1.0154869556427002,29.574264526367188,-44.275630950927734, -51.139259338378906
514,77484358,0.610791,-0.09636372,-0.7802504,-0.09411633,10.686077117919922,2.6889595985412598,-0.5497206449508667,14.183393478393555,-39.80347442626953, -54.91749954223633
515,77501025,0.60599375,-0.08992967,-0.78430426,-0.097730204,10.528757095336914,1.5136967897415161,-1.0905356407165527,7.0485687255859375,-38.77382278442383, -55.146297454833984
516,77517692,0.60135347,-0.08345856,-0.78806895,-0.10176473,10.336544036865234,0.7873467803001404,-1.7513073682785034,4.84171724319458,-36.45682144165039, -56.81525802612305
517,77534359,0.59630364,-0.076639734,-0.7920562,-0.10580943,10.167526245117188,0.5405129194259644,-2.0393564701080322,6.144820213317871,-39.35984420776367, -59.165836334228516
518,77551026,0.5904396,-0.069220774,-0.79655796,-0.10993399,10.627318382263184,0.21134328842163086,-1.8095450401306152,8.117822647094727,-45.43378829956055, -63.64003372192383
519,77567693,0.58356565,-0.060516674,-0.80164737,-0.11467599,11.967391967773438,1.075262427330017,-0.7105823755264282,9.914012908935547,-52.100181579589844, -74.24791717529297
520,77584360,0.57509017,-0.05076266,-0.8076436,-0.1200278,12.556530952453613,1.389170527458191,-0.22188934683799744,10.821415901184082,-63.51673889160156, -84.13831329345703
521,77601027,0.56482387,-0.040278774,-0.8143653,-0.12712628,14.123126029968262,1.1134284734725952,0.23189951479434967,3.9911885261535645,-75.16010284423828, -96.84650421142578
522,77617694,0.55301595,-0.029230312,-0.8214151,-0.13636848,15.874425888061523,0.06996916979551315,1.2302768230438232,-5.948400497436523,-84.0366439819336, -109.79942321777344
523,77634361,0.53964925,-0.01894006,-0.828315,-0.14938068,17.257944107055664,-0.19439196586608887,3.253298282623291,-30.56521224975586,-92.30293273925781, -121.33480072021484
524,77651028,0.5249032,-0.008880203,-0.8347451,-0.16612856,19.231599807739258,-0.4554813802242279,5.76675271987915,-53.34062576293945,-98.27582550048828, -135.3081512451172
525,77667695,0.50821537,0.0007632805,-0.8408957,-0.18604143,20.908658981323242,-1.13301682472229,6.750075340270996,-73.40948486328125,-108.84156036376953, -146.63818359375
526,77684362,0.48891497,0.009471486,-0.84688425,-0.20894976,21.44715118408203,-2.056938886642456,4.804569244384766,-94.15731048583984,-124.7613296508789, -155.1659393310547
527,77701029,0.46731892,0.016897803,-0.85243493,-0.23384309,18.2002010345459,-4.490804672241211,-0.253135085105896,-110.47132873535156,-138.76834106445312, -157.85919189453125
528,77717696,0.44424322,0.023308191,-0.85897136,-0.25352216,14.32544231414795,-6.924648284912109,-7.181680202484131,-81.42635345458984,-151.7007598876953, -137.57391357421875
529,77734363,0.4249276,0.035829883,-0.8673416,-0.2566548,11.733428001403809,-2.3359341621398926,-6.256783962249756,37.49251937866211,-121.77103424072266, -116.41902923583984
530,77751030,0.40961677,0.047617245,-0.87359935,-0.25840122,9.5908203125,6.16525936126709,-4.345028400421143,38.84784698486328,-92.67082977294922, -101.51421356201172
531,77767697,0.39759353,0.05167355,-0.87504387,-0.27119756,7.842982769012451,-0.5854858160018921,-1.9378666877746582,-58.910770416259766,-76.7201919555664, -81.92815399169922
532,77784364,0.39173827,0.05069492,-0.8755118,-0.27829942,6.91015100479126,-9.466415405273438,1.3693069219589233,-42.441768646240234,-44.31534194946289, -24.971500396728516
533,77801031,0.39194384,0.047885343,-0.8759092,-0.27725524,4.470967769622803,-6.848645210266113,2.6539435386657715,-0.6475284695625305,-8.348690032958984, 19.439985275268555
534,77817698,0.39690727,0.043450996,-0.8751702,-0.2732288,4.330617904663086,-2.7178637981414795,1.6479239463806152,9.165776252746582,21.210668563842773, 45.880821228027344
535,77834365,0.40632826,0.036067896,-0.87307566,-0.26708737,4.688716888427734,-2.625328540802002,0.9580742716789246,9.954351425170898,46.79369354248047, 77.32984924316406
536,77851032,0.4201161,0.025920091,-0.8698479,-0.2572851,5.477783203125,-1.8899040222167969,0.8764734268188477,21.023893356323242,71.97826385498047, 111.85973358154297
537,77867699,0.43790892,0.012898744,-0.8648199,-0.2452681,6.399341583251953,-0.31688952445983887,0.6435706615447998,22.056665420532227,96.4130630493164, 142.1809539794922
538,77884366,0.4593606,-0.003265032,-0.8572711,-0.23251611,7.21111536026001,0.6867325901985168,-0.4008175730705261,12.38144588470459,120.49652862548828, 169.0142822265625
539,77901033,0.4838518,-0.022331314,-0.84696126,-0.21919292,7.454744338989258,0.914039134979248,-1.0413588285446167,2.2283525466918945,142.46527099609375, 192.84182739257812
540,77917700,0.5103133,-0.044401605,-0.8338405,-0.20571633,7.969598293304443,1.058439016342163,-1.2823660373687744,-10.82049560546875,158.73751831054688, 214.24717712402344
541,77934367,0.5379571,-0.068503745,-0.8182196,-0.19085748,9.043023109436035,1.1445236206054688,-1.519569754600525,-13.214740753173828,170.9977569580078, 233.1840057373047
542,77951034,0.56549907,-0.094000354,-0.80041146,-0.17526235,10.13093376159668,2.3239803314208984,-1.6732051372528076,-17.172832489013672,176.34202575683594, 244.65106201171875
543,77967701,0.5918843,-0.12076126,-0.78090984,-0.15896542,11.871003150939941,2.4947636127471924,-1.5579127073287964,-21.020462036132812,174.5926971435547, 254.05047607421875
544,77984368,0.6179145,-0.14806692,-0.75915843,-0.14119743,13.321144104003906,3.065708637237549,-1.5094249248504639,-18.102888107299805,180.0382537841797, 264.4700927734375
545,78001035,0.6433103,-0.1760317,-0.7349981,-0.12224055,15.361098289489746,3.802623748779297,-1.859471321105957,-17.701427459716797,185.13157653808594, 274.8498840332031
546,78017702,0.6679301,-0.20396264,-0.70834327,-0.102560386,17.365983963012695,5.531021595001221,-2.4871931076049805,-16.946075439453125,191.43006896972656, 280.3188781738281
547,78034369,0.69005007,-0.23145683,-0.68049395,-0.08477635,18.250375747680664,7.443883895874023,-3.8187739849090576,-28.54365348815918,187.7528076171875, 269.497802734375
548,78051036,0.7092835,-0.257958,-0.6522985,-0.06987063,18.80741310119629,7.637808322906494,-4.304488658905029,-42.10365295410156,181.12342834472656, 250.2032470703125
549,78067703,0.7269154,-0.27886283,-0.62508565,-0.055660065,17.729461669921875,5.848277568817139,-5.777637958526611,-20.29631805419922,173.15721130371094, 219.3567657470703
550,78084370,0.74391323,-0.28850868,-0.6014268,-0.040521253,15.290846824645996,8.83005142211914,-7.912911415100098,40.11893844604492,155.3065948486328, 168.69224548339844
551,78101037,0.7573798,-0.28671223,-0.5859663,-0.028563097,9.408010482788086,12.06768798828125,-13.615280151367188,80.79295349121094,108.40025329589844, 88.05303955078125
552,78117704,0.7619434,-0.27543426,-0.58590984,-0.016976342,2.1381759643554688,8.09721851348877,-15.16207218170166,114.1805648803711,-4.868459701538086, 16.021923065185547
553,78134371,0.75922364,-0.2678125,-0.59300756,-0.0140803,7.200323581695557,16.971426010131836,-9.176056861877441,47.12079620361328,-55.43613052368164, -29.059104919433594
554,78151038,0.7514831,-0.26230675,-0.6051231,-0.017165031,8.668649673461914,11.204948425292969,-8.206884384155273,2.9511756896972656,-91.14537048339844, -61.12476348876953
555,78167705,0.74398696,-0.25477102,-0.6174886,-0.016837256,13.007770538330078,-7.8796281814575195,0.5476160645484924,28.141677856445312,-97.20728302001953, -52.18473815917969
556,78184372,0.74309653,-0.23930348,-0.6248918,-0.0072056632,13.878376960754395,-14.297308921813965,6.277054786682129,119.2321548461914,-59.14045715332031, -28.880783081054688
557,78201039,0.7445844,-0.21749558,-0.6311022,0.00053172384,13.271806716918945,7.379894733428955,2.2267355918884277,147.341064453125,-39.45665740966797, -63.87919998168945
558,78217706,0.7415149,-0.20353861,-0.639317,-0.0014341943,17.24618911743164,10.928342819213867,4.083494663238525,58.19877243041992,-54.948585510253906, -82.33234405517578
559,78234373,0.73466283,-0.19373879,-0.6501285,-0.008324162,13.428252220153809,6.094956874847412,-1.07960844039917,10.072635650634766,-77.99005889892578, -92.64183044433594
560,78251040,0.72344285,-0.19221783,-0.6629468,-0.013592477,9.11786937713623,1.4247829914093018,-8.826315879821777,-30.183740615844727,-110.26280212402344, -50.260284423828125
561,78267707,0.7134167,-0.1884292,-0.67466885,-0.01879986,16.34836769104004,-0.9879525899887085,-0.18233922123908997,-17.10407066345215,-99.12060546875, -58.70827102661133
562,78284374,0.7063396,-0.1808795,-0.6840427,-0.02128668,9.388379096984863,-2.4968464374542236,-1.4961302280426025,17.49859046936035,-76.96157836914062, -59.378360748291016
563,78301041,0.7005231,-0.1748034,-0.69142044,-0.025479915,9.28952693939209,1.3345351219177246,-0.722517728805542,3.6004586219787598,-59.41996383666992, -58.1075553894043
564,78317708,0.6947711,-0.17117076,-0.69787914,-0.030963521,10.699906349182129,0.5076915621757507,-0.664413571357727,-14.375059127807617,-53.569889068603516, -51.57902145385742
565,78334375,0.6895496,-0.16780838,-0.70366067,-0.034983717,10.992328643798828,-0.17604944109916687,-0.3322707414627075,-8.154786109924316,-49.57881164550781, -42.37799835205078
566,78351042,0.6847643,-0.16428599,-0.7089848,-0.038065456,10.235411643981934,-0.3486892282962799,-0.5065668225288391,-2.4594647884368896,-46.35882568359375, -38.07870101928711
567,78367709,0.6803948,-0.16124354,-0.7137375,-0.040527374,9.554936408996582,-1.3281404972076416,-1.0225962400436401,-1.3724188804626465,-42.48078536987305, -32.080657958984375
568,78384376,0.677166,-0.15726744,-0.71761537,-0.041736297,10.372467041015625,-1.609450101852417,-0.9481205344200134,10.168196678161621,-33.92560958862305, -29.542713165283203
569,78401043,0.6746553,-0.1528797,-0.72085047,-0.04293057,9.894424438476562,-0.8037263751029968,-0.4845665693283081,12.748297691345215,-27.293567657470703, -30.636096954345703
570,78417710,0.6719416,-0.14966083,-0.72390044,-0.045437485,9.904465675354004,0.09979362040758133,-0.5804758071899414,0.5524114370346069,-26.4211368560791, -30.81879997253418
571,78434377,0.6687539,-0.1480053,-0.7269389,-0.0492241,10.06208610534668,0.031767260283231735,-0.6346766948699951,-13.529276847839355,-27.913448333740234, -29.094024658203125
572,78451044,0.6646322,-0.14686613,-0.73070794,-0.05254409,9.919012069702148,-0.12139607220888138,-0.7023717164993286,-14.27055835723877,-36.609375, -25.43689727783203
573,78467711,0.6598963,-0.14617084,-0.73492336,-0.055309135,9.768808364868164,0.5927842855453491,-0.51224684715271,-13.968208312988281,-42.47151565551758, -21.35506248474121
574,78484378,0.6553053,-0.14648627,-0.7386673,-0.059058808,9.953871726989746,0.32179951667785645,-0.5920684337615967,-23.557220458984375,-39.01655578613281, -20.18979835510254
575,78501045,0.65130055,-0.14696725,-0.7417161,-0.06376646,9.689244270324707,-0.49251046776771545,-0.8977872133255005,-28.857324600219727,-32.031837463378906, -22.734724044799805
576,78517712,0.6476101,-0.14622459,-0.744719,-0.06792256,9.352765083312988,-1.0825222730636597,-1.0939459800720215,-20.264616012573242,-30.265012741088867, -26.341644287109375
577,78534379,0.6441264,-0.14412159,-0.74783283,-0.07125127,9.499859809875488,-0.9430873990058899,-1.2032142877578735,-9.713103294372559,-29.91061782836914, -29.668153762817383
578,78551046,0.64059645,-0.14116174,-0.7511321,-0.074232355,9.568071365356445,-0.6135431528091431,-0.9936783909797668,-4.08758544921875,-30.905988693237305, -32.769248962402344
579,78567713,0.63683593,-0.13766961,-0.7546656,-0.07724957,9.515523910522461,-0.5869338512420654,-1.1102104187011719,-2.035496473312378,-32.837703704833984, -36.04764175415039
580,78584380,0.6328933,-0.13341688,-0.7584337,-0.08015447,9.445812225341797,-0.6464381814002991,-1.4654014110565186,1.8296674489974976,-34.524261474609375, -39.8471565246582
581,78601047,0.62877285,-0.12825784,-0.76247096,-0.08266199,9.196415901184082,-0.6819093823432922,-1.4151811599731445,7.829092502593994,-36.4953727722168, -43.216217041015625
582,78617714,0.62466615,-0.121911444,-0.76674855,-0.08382557,9.349959373474121,-1.2331427335739136,-1.5231266021728516,20.15394401550293,-37.980072021484375, -43.86281204223633
583,78634381,0.6208725,-0.11430458,-0.7710291,-0.083464175,9.656133651733398,-0.8548402786254883,-1.6171972751617432,33.86956024169922,-36.900047302246094, -43.8178596496582
584,78651048,0.6175574,-0.10596332,-0.7749568,-0.08268726,9.818017959594727,0.5709483623504639,-1.3041584491729736,39.376502990722656,-32.76678466796875, -45.41631317138672
585,78667715,0.6144627,-0.09780095,-0.7784602,-0.08289099,10.239712715148926,2.2066023349761963,-0.8741839528083801,33.310977935791016,-29.187908172607422, -48.20603561401367
586,78684382,0.6107969,-0.091092885,-0.7819133,-0.08509698,10.463155746459961,1.681586503982544,-0.955276370048523,16.04486846923828,-31.53268814086914, -49.16596984863281
587,78701049,0.6063896,-0.08505365,-0.7856875,-0.08805282,10.247335433959961,1.0725746154785156,-1.1643941402435303,8.932441711425781,-36.81090545654297, -49.35578155517578
588,78717716,0.60138375,-0.07861745,-0.78983516,-0.09120093,10.082357406616211,0.04628437012434006,-1.9016990661621094,9.4290771484375,-41.26695251464844, -52.89350128173828
589,78734383,0.5957604,-0.072038464,-0.79425764,-0.09505498,10.541152954101562,0.37245413661003113,-1.936148762702942,6.0230488777160645,-45.2947998046875, -57.14885330200195
590,78751050,0.5888355,-0.065905206,-0.7992537,-0.10061381,11.472134590148926,1.0876212120056152,-1.150909662246704,-5.380667686462402,-54.210811614990234, -62.85469436645508
591,78767717,0.58049554,-0.059204474,-0.80497795,-0.10738017,12.098365783691406,1.9495710134506226,-0.07049292325973511,-9.852828979492188,-64.02507019042969, -72.18778228759766
592,78784384,0.57062566,-0.05173371,-0.8114631,-0.115056485,13.278739929199219,1.5269557237625122,0.029277890920639038,-11.861628532409668,-74.63594818115234, -81.53276824951172
593,78801051,0.55924964,-0.0428988,-0.81864214,-0.123389006,14.4157133102417,0.2430190145969391,-0.21149872243404388,-10.145374298095703,-84.501953125, -93.17984771728516
594,78817718,0.54629576,-0.03370994,-0.82628083,-0.13298479,15.079880714416504,0.18275199830532074,0.6988029479980469,-15.961945533752441,-94.53423309326172, -101.54948425292969
595,78834385,0.5322699,-0.024571057,-0.83364123,-0.1453538,16.61375617980957,-0.01610625721514225,2.7195637226104736,-32.389984130859375,-99.0545654296875, -112.65547180175781
596,78851052,0.51757216,-0.015244873,-0.8403233,-0.16044939,18.31851577758789,-0.6393480896949768,4.565945625305176,-48.105159759521484,-99.88262939453125, -124.33486938476562
597,78867719,0.50141555,-0.0065704267,-0.8465789,-0.17844944,19.636625289916992,-0.28922927379608154,5.771306037902832,-67.80766296386719,-107.34624481201172, -132.56466674804688
598,78884386,0.4834371,0.00036616705,-0.85173136,-0.20209496,21.07057762145996,0.05858311057090759,6.750164985656738,-108.05742645263672,-116.17914581298828, -144.21910095214844
599,78901053,0.46518037,0.0054251985,-0.8539589,-0.23309356,17.384626388549805,-5.996625900268555,-0.31576842069625854,-161.3809356689453,-110.8775634765625, -158.21128845214844
600,78917720,0.4420656,0.014035751,-0.8610229,-0.25104007,16.360124588012695,-8.843687057495117,-7.3057098388671875,-65.46054077148438,-148.75003051757812, -145.09725952148438
601,78934387,0.4230831,0.030803297,-0.87024695,-0.25044513,13.261856079101562,-3.1399104595184326,-6.546281337738037,72.3592300415039,-114.97135925292969, -129.86488342285156
602,78951054,0.40784064,0.045771714,-0.8771542,-0.24934289,10.932543754577637,5.368407726287842,-3.666534900665283,65.3215560913086,-88.84669494628906, -111.75196075439453
603,78967721,0.39654383,0.05217718,-0.87951267,-0.25785345,8.5868558883667,-2.117607831954956,0.7003147006034851,-25.689199447631836,-70.01397705078125, -81.72664642333984
604,78984388,0.39218125,0.052100807,-0.880059,-0.26263288,7.350904941558838,-10.463359832763672,3.8583478927612305,-26.50851058959961,-33.32859802246094, -20.782949447631836
605,79001055,0.39431086,0.049285136,-0.879929,-0.26041386,4.968057155609131,-7.4859514236450195,2.740816116333008,4.845006465911865,5.2733154296875, 26.01335334777832
606,79017722,0.401563,0.044297665,-0.8786186,-0.25458762,5.455098628997803,-3.4874022006988525,1.6217375993728638,16.888751983642578,36.76042938232422, 57.62784957885742
607,79034389,0.4137072,0.035351537,-0.8756805,-0.24653745,5.562114715576172,-3.191229820251465,1.779628038406372,15.031460762023926,64.5240707397461, 95.71134948730469
608,79051056,0.43059593,0.02269177,-0.87075675,-0.2363377,6.038862705230713,-1.6187145709991455,1.4780038595199585,12.868950843811035,92.93595886230469, 131.712890625
609,79067723,0.45133308,0.0068199197,-0.8635068,-0.22496346,6.515612602233887,-0.11094455420970917,0.3058050572872162,5.992575645446777,117.80098724365234, 160.29603576660156
610,79084390,0.47510254,-0.011745576,-0.85387146,-0.2122348,7.233664035797119,0.8047381639480591,-0.5415115356445312,1.8318655490875244,139.09481811523438, 185.0659942626953
611,79101057,0.5015059,-0.033370014,-0.8412309,-0.19927105,7.517792701721191,1.0567461252212524,-0.8571909070014954,-10.97099494934082,159.8951416015625, 207.8883056640625
612,79117724,0.529517,-0.058163743,-0.82560784,-0.18601273,8.546247482299805,0.8770223259925842,-1.1739659309387207,-23.93321990966797,175.08128356933594, 230.1363983154297
613,79134391,0.55811435,-0.08520387,-0.80731297,-0.17174076,9.87491226196289,1.617296576499939,-1.5475561618804932,-29.56339454650879,184.876708984375, 248.40423583984375
614,79151058,0.5858961,-0.114410885,-0.78659946,-0.15779069,11.759587287902832,2.978550910949707,-1.5651640892028809,-43.03001022338867,187.27943420410156, 259.6650390625
615,79167725,0.6128176,-0.14532258,-0.76339227,-0.14341716,13.328085899353027,3.5221989154815674,-2.1041393280029297,-51.008644104003906,190.5191650390625, 271.6517333984375
616,79184392,0.6384443,-0.17643584,-0.7384038,-0.12656718,14.796340942382812,3.817922592163086,-2.990999221801758,-41.92189407348633,188.5919952392578, 283.69683837890625
617,79201059,0.66243315,-0.20708793,-0.7117407,-0.10826973,17.085969924926758,6.201996326446533,-2.9106478691101074,-35.99861145019531,186.32540893554688, 288.38104248046875
618,79217726,0.68414176,-0.23839343,-0.68310857,-0.09209542,19.014936447143555,7.17274808883667,-3.0178329944610596,-54.11429214477539,186.7347412109375, 283.1272888183594
619,79234393,0.70350134,-0.2665782,-0.654424,-0.075837396,19.003498077392578,4.983251094818115,-4.925197601318359,-42.94361877441406,177.85260009765625, 267.593505859375
620,79251060,0.72192496,-0.2888607,-0.6259046,-0.06022944,18.98695182800293,4.281245231628418,-5.856292724609375,16.393815994262695,164.57437133789062, 238.119140625
621,79267727,0.740829,-0.2946685,-0.6024162,-0.037923153,17.657960891723633,9.46800422668457,-5.542915344238281,70.57007598876953,158.3159637451172, 187.96566772460938
622,79284394,0.7570644,-0.2930345,-0.5834635,-0.02356182,11.556038856506348,12.431352615356445,-10.562506675720215,95.50341796875,131.91346740722656, 108.93294525146484
623,79301061,0.76820105,-0.2771894,-0.5770182,-0.0091506,4.637685775756836,9.59482192993164,-15.177823066711426,161.46556091308594,48.733924865722656, 26.389467239379883
624,79317728,0.77053344,-0.2581394,-0.58278537,0.0020172563,3.8220441341400146,13.604357719421387,-11.280447959899902,149.5800018310547,-44.08967590332031, -27.134851455688477
625,79334395,0.7669719,-0.24685071,-0.59229565,0.0022966159,7.332625865936279,15.612829208374023,-9.012362480163574,54.34392166137695,-67.92241668701172, -60.095680236816406
626,79351062,0.7599676,-0.23646308,-0.6054213,0.00006571296,7.288624286651611,9.272468566894531,-9.148982048034668,33.48945617675781,-96.58654022216797, -75.52119445800781
627,79367729,0.75204325,-0.23423398,-0.61607593,-0.0040431563,15.04964828491211,-12.10831356048584,4.324637413024902,-18.415979385375977,-84.30783081054688, -47.21556091308594
628,79384396,0.75112253,-0.2280895,-0.6195081,0.00042163383,13.795400619506836,-13.799176216125488,10.332427024841309,49.2367057800293,-31.036476135253906, -7.7599616050720215
629,79401063,0.750647,-0.21323518,-0.62534565,0.0017835194,14.605998992919922,5.439135551452637,-0.2800252139568329,81.67511749267578,-36.84133529663086, -64.81048583984375
630,79417730,0.7468432,-0.20013209,-0.63417083,-0.00064233167,16.92969512939453,6.414133071899414,1.8526833057403564,51.42985153198242,-60.95929718017578, -81.05284118652344
631,79434397,0.7405279,-0.19113912,-0.64423656,-0.006623913,11.517268180847168,6.148306846618652,1.7751622200012207,11.36223316192627,-73.3984375, -82.97465515136719
632,79451064,0.7302263,-0.18813406,-0.6567284,-0.009134152,9.44664192199707,1.679109811782837,-8.878321647644043,-31.869455337524414,-101.19139862060547, -44.0341911315918
633,79467731,0.7203126,-0.18347259,-0.66886914,-0.010101969,16.92790412902832,0.6761327981948853,-1.6899412870407104,-23.862037658691406,-97.50031280517578, -42.962398529052734
634,79484398,0.7125753,-0.17766127,-0.67862785,-0.011722885,10.1909818649292,-0.4925043284893036,-1.0800267457962036,-3.398895025253296,-79.45191955566406, -47.02516555786133
635,79501065,0.7060798,-0.17520854,-0.6859238,-0.016192902,9.664505958557129,1.0142019987106323,-0.6986264586448669,-5.694131851196289,-65.49605560302734, -41.67163848876953
636,79517732,0.6998073,-0.17456739,-0.6922855,-0.023176463,10.846321105957031,0.02736898884177208,-0.8737871646881104,-20.22437858581543,-58.425071716308594, -44.42494201660156
637,79534399,0.69381946,-0.17498264,-0.6979165,-0.030142386,10.72087574005127,-0.36915087699890137,-0.41538387537002563,-22.9416561126709,-54.012386322021484, -38.7298583984375
638,79551066,0.68849236,-0.1754499,-0.70278776,-0.035853997,10.23719596862793,-1.237571120262146,-0.27900534868240356,-17.624940872192383,-48.297325134277344, -31.69426727294922
639,79567733,0.6837999,-0.17543508,-0.7071171,-0.040323395,9.619041442871094,-1.2048170566558838,-0.3521977365016937,-10.632420539855957,-43.480525970458984, -27.48383140563965
640,79584400,0.679362,-0.17552425,-0.71109754,-0.044709776,10.068877220153809,-1.5611087083816528,-0.9614656567573547,-11.869538307189941,-40.330806732177734, -26.215219497680664
641,79601067,0.67552274,-0.1744096,-0.71481586,-0.047844637,9.742949485778809,-1.3958306312561035,-0.918465793132782,-2.2157704830169678,-36.66792678833008, -25.7198429107666
642,79617734,0.672043,-0.1717701,-0.71861064,-0.049521454,9.503128051757812,-0.910202145576477,-0.7849147915840149,1.2124810218811035,-34.26128005981445, -25.551115036010742
643,79634401,0.66858333,-0.16942886,-0.72221565,-0.051914454,9.764759063720703,-0.6144928932189941,-0.42069536447525024,-3.743089199066162,-32.551387786865234, -27.175939559936523
644,79651068,0.6648446,-0.16763186,-0.72582537,-0.055309836,9.806991577148438,-1.3199385404586792,0.15662382543087006,-11.544317245483398,-33.005088806152344, -29.201370239257812
645,79667735,0.6610904,-0.16513644,-0.72962743,-0.05773851,9.667139053344727,-1.5139163732528687,-0.4336303174495697,-3.473196268081665,-34.838348388671875, -28.522493362426758
646,79684402,0.6570724,-0.16245802,-0.73367935,-0.059817832,9.538168907165527,-0.3678802251815796,-0.3670407831668854,-1.0891884565353394,-37.640254974365234, -28.272695541381836
647,79701069,0.6528524,-0.15996197,-0.7378237,-0.061747104,9.760461807250977,-0.642899751663208,-0.7279812097549438,-1.3416807651519775,-39.34031677246094, -26.87746238708496
648,79717736,0.6485527,-0.15780397,-0.7418437,-0.06438808,9.9124116897583,-0.2845157980918884,-0.8934171199798584,-6.608040809631348,-38.56355285644531, -28.274869918823242
649,79734403,0.6442426,-0.15559831,-0.7457805,-0.06747372,9.629425048828125,-0.6542270183563232,-1.0670228004455566,-8.708571434020996,-37.758216857910156, -30.43071937561035
650,79751070,0.6398744,-0.15286735,-0.74983287,-0.070312195,9.61110782623291,-0.7304384112358093,-1.0294311046600342,-5.122278690338135,-38.60417556762695, -32.2023811340332
651,79767737,0.6354113,-0.14949286,-0.75406307,-0.07275955,9.636828422546387,-0.8113470673561096,-0.9236060380935669,-0.2881072163581848,-39.99126434326172, -34.057640075683594
652,79784404,0.63072324,-0.14593811,-0.75840455,-0.07558567,9.806614875793457,-0.34818756580352783,-0.9484540820121765,-1.6404086351394653,-41.18228530883789, -36.90125274658203
653,79801071,0.6257684,-0.14224733,-0.7628694,-0.07880414,9.682100296020508,-0.6937856078147888,-1.119249939918518,-3.297866106033325,-42.66090393066406, -39.59501266479492
654,79817738,0.6206774,-0.13819285,-0.7674077,-0.08214822,9.810282707214355,-0.4202505946159363,-1.4223629236221313,-2.4848477840423584,-43.38886642456055, -42.21583938598633
655,79834405,0.6154369,-0.13385718,-0.77201456,-0.08552003,9.812427520751953,-0.1404309868812561,-1.450689435005188,-1.5355663299560547,-44.298587799072266, -43.99075698852539
656,79851072,0.61008435,-0.12932959,-0.77663964,-0.088896364,9.954427719116211,0.151888906955719,-1.4915714263916016,-0.8373295068740845,-44.86781311035156, -45.13234329223633
657,79867739,0.60466105,-0.12450063,-0.78127927,-0.09212941,9.867074966430664,-0.05989415571093559,-1.643218994140625,1.138930320739746,-45.26617431640625, -46.214698791503906
658,79884406,0.5994553,-0.11910721,-0.78572017,-0.09545277,10.0910062789917,0.5967526435852051,-1.6965521574020386,3.0620768070220947,-42.84939956665039, -49.33625030517578
659,79901073,0.59424764,-0.11332694,-0.790082,-0.09898346,9.850944519042969,0.8364889025688171,-1.5107266902923584,3.4847073554992676,-42.12428283691406, -52.23026657104492
660,79917740,0.5889313,-0.10702595,-0.7944858,-0.10246165,9.87509536743164,0.8363059759140015,-1.76539945602417,5.843720436096191,-42.59040832519531, -54.962825775146484
661,79934407,0.5834035,-0.10043508,-0.79894745,-0.10600237,10.066254615783691,0.7939584851264954,-2.0576417446136475,6.565455913543701,-43.74315643310547, -57.005043029785156
662,79951074,0.5773367,-0.0939158,-0.8034832,-0.11080421,11.000600814819336,0.6107645630836487,-2.0313923358917236,-0.965913712978363,-46.195648193359375, -62.130455017089844
663,79967741,0.5706418,-0.08713791,-0.80822474,-0.11639662,11.856403350830078,0.845863401889801,-1.4311803579330444,-4.553282260894775,-49.794281005859375, -67.33003234863281
664,79984408,0.5629145,-0.07976402,-0.81344557,-0.12276759,11.946282386779785,0.9298990368843079,-1.044378399848938,-6.772515296936035,-56.501914978027344, -74.8336410522461
665,80001075,0.5538245,-0.07194603,-0.8191681,-0.13063699,13.382349014282227,0.8283867835998535,-0.2816408574581146,-13.750507354736328,-64.911376953125, -84.56846618652344
666,80017742,0.5430502,-0.06283844,-0.82560533,-0.13972911,14.657190322875977,0.1360730528831482,0.43810999393463135,-15.909154891967773,-75.41825103759766, -98.38993835449219
667,80034409,0.5302737,-0.052733496,-0.83269143,-0.15051487,16.08089256286621,-0.22009240090847015,1.927940011024475,-22.030933380126953,-87.59952545166016, -112.63475799560547
668,80051076,0.5155981,-0.042178605,-0.84000033,-0.1636448,18.21188735961914,-1.3510735034942627,4.494937896728516,-34.25232696533203,-98.07957458496094, -125.87889862060547
669,80067743,0.49973464,-0.031084467,-0.8469614,-0.17876212,19.629161834716797,-0.26938408613204956,6.165099143981934,-44.5333137512207,-102.68597412109375, -137.38336181640625
670,80084410,0.48234162,-0.020594522,-0.85336614,-0.19669554,20.287391662597656,-0.33251696825027466,6.296011924743652,-63.976566314697266,-110.0125503540039, -145.41885375976562
671,80101077,0.4653456,-0.009795205,-0.8578573,-0.21780498,19.59624481201172,-3.8054685592651367,3.14406681060791,-84.06813049316406,-100.65782928466797, -157.09719848632812
672,80117744,0.44638896,-0.00040582824,-0.8626714,-0.23777215,15.104344367980957,-7.084502696990967,-4.6028618812561035,-81.47240447998047,-115.58100891113281, -148.275146484375
673,80134411,0.42842582,0.014360222,-0.8697462,-0.24451448,13.350334167480469,-2.397000312805176,-6.513256072998047,17.115747451782227,-107.88569641113281, -138.14036560058594
674,80151078,0.41394395,0.030069618,-0.8759509,-0.2458796,10.482348442077637,2.3378098011016846,-5.567756652832031,50.20197677612305,-82.38091278076172, -122.2732162475586
675,80167745,0.40107954,0.04039476,-0.87929296,-0.25366855,9.788656234741211,2.1883602142333984,-3.3527565002441406,-8.997573852539062,-74.91220092773438, -106.00970458984375
676,80184412,0.39460975,0.043391258,-0.8809382,-0.25758272,7.458728313446045,-11.388459205627441,1.2485785484313965,-10.518821716308594,-43.28799819946289, -40.372108459472656
677,80201079,0.396333,0.043542854,-0.8810576,-0.25448456,6.231832027435303,-9.018800735473633,4.491896152496338,18.99636459350586,7.473997592926025, 9.776225090026855
678,80217746,0.40323716,0.0406857,-0.87939256,-0.2498274,5.388026237487793,-4.104167461395264,1.0107430219650269,15.520003318786621,38.84151840209961, 40.66187286376953
679,80234413,0.41421753,0.035229933,-0.8768756,-0.2413974,5.622368812561035,-3.165834903717041,-0.010747440159320831,28.488862991333008,62.40729522705078, 73.54560089111328
680,80251080,0.42930177,0.026731908,-0.8731178,-0.2294588,5.886755466461182,-1.282684564590454,0.6109583377838135,37.890220642089844,86.46025085449219, 108.35408782958984
681,80267747,0.44847637,0.014780946,-0.86679554,-0.21752347,6.426884174346924,-0.1196836605668068,0.07361617684364319,22.86037254333496,113.10725402832031, 135.04295349121094
682,80284414,0.47152913,-0.00046289572,-0.85764617,-0.20519163,6.793537139892578,-0.24037471413612366,-0.621641218662262,10.432947158813477,140.0371551513672, 161.40042114257812
683,80301081,0.4967631,-0.018419301,-0.8462126,-0.19186467,7.151046276092529,0.6957788467407227,-1.0771939754486084,4.265845775604248,156.4697723388672, 183.70233154296875
684,80317748,0.52364564,-0.039756827,-0.83193666,-0.179156,8.338467597961426,1.5302550792694092,-1.5504318475723267,-14.44243335723877,171.39691162109375, 203.80352783203125
685,80334415,0.5512334,-0.06435816,-0.8149653,-0.16682944,9.441572189331055,1.63504958152771,-2.1678998470306396,-31.53038787841797,181.24081420898438, 222.71470642089844
686,80351082,0.57854384,-0.09181829,-0.7956505,-0.15426274,10.869836807250977,2.254117727279663,-2.168071985244751,-43.85630798339844,185.2175750732422, 240.3716278076172
687,80367749,0.60463357,-0.12162173,-0.77444494,-0.14093171,11.999625205993652,2.3923017978668213,-2.2702136039733887,-51.80046844482422,183.12896728515625, 256.15081787109375
688,80384416,0.62907475,-0.15245475,-0.751829,-0.12560265,13.464603424072266,2.416128396987915,-2.0528929233551025,-48.21204376220703,177.58705139160156, 269.54949951171875
