PacketCounter,SampleTimeFine,Quat_W,Quat_X,Quat_Y,Quat_Z,Acc_X,Acc_Y,Acc_Z,Gyr_X,Gyr_Y,Gyr_Z 
2,30893927,0.70584774,0.26781324,-0.6149324,0.22784497,9.735373497009277,0.9842944741249084,0.9621076583862305,0.5246953368186951,-1.1078262329101562, 1.0114775896072388
3,30910594,0.7054998,0.26810592,-0.61520684,0.22783744,9.727184295654297,0.9693562984466553,0.9573244452476501,0.3033120036125183,-1.0226383209228516, 1.0268323421478271
4,30927261,0.7051881,0.26834843,-0.615413,0.22796011,9.722294807434082,0.9750543832778931,0.9577071070671082,0.1296834945678711,-0.9559555053710938, 1.0763928890228271
5,30943928,0.70494825,0.2685361,-0.61556643,0.22806664,9.743247032165527,0.978994607925415,0.9519780278205872,0.28958356380462646,-0.8947668075561523, 0.9347289800643921
6,30960595,0.70479274,0.26861078,-0.6156926,0.22811906,9.73409366607666,0.9775277972221375,0.9486799240112305,0.1440778225660324,-0.5445387363433838, 0.9785011410713196
7,30977262,0.7046286,0.2687743,-0.6157271,0.22834007,9.724071502685547,0.9810996055603027,0.9506748914718628,0.13606105744838715,-0.2993484437465668, 1.0719873905181885
8,30993929,0.70451486,0.2688713,-0.6157538,0.22850427,9.730052947998047,0.972436785697937,0.9295055270195007,0.010174645110964775,-0.1806335747241974, 1.0320700407028198
9,31010596,0.70441717,0.2689459,-0.6157792,0.2286496,9.736644744873047,0.9641726613044739,0.9456138610839844,0.09839759767055511,-0.031209079548716545, 0.9519409537315369
10,31027263,0.70433354,0.2690154,-0.61576927,0.22885218,9.727481842041016,0.9688871502876282,0.9405337572097778,0.02829563058912754,0.1804991066455841, 1.0238996744155884
11,31043930,0.7042439,0.26914334,-0.61570853,0.22914082,9.710223197937012,0.9712309837341309,0.9313936829566956,0.16820499300956726,0.3601337671279907, 1.014960765838623
12,31060597,0.7041692,0.26921228,-0.6156809,0.22936353,9.726136207580566,0.9876333475112915,0.9375540614128113,0.2906721234321594,0.30303019285202026, 1.0539432764053345
13,31077264,0.7040896,0.26932985,-0.6156226,0.22962636,9.718066215515137,0.9698091745376587,0.9393344521522522,0.4872239828109741,0.3761032819747925, 1.0161901712417603
14,31093931,0.70400196,0.26944047,-0.61558414,0.22986841,9.720069885253906,0.9716002345085144,0.9514214396476746,0.501951277256012,0.20238514244556427, 0.9858008027076721
15,31110598,0.70396197,0.26939517,-0.6156311,0.22991769,9.724292755126953,0.985977053642273,0.9496733546257019,0.5419710874557495,0.0028622190002352, 0.9625572562217712
16,31127265,0.70375377,0.26981783,-0.6154497,0.23054472,9.77957820892334,0.9993681311607361,1.1110689640045166,0.4069921672344208,0.15594930946826935, 1.103644847869873
17,31143932,0.703747,0.26980045,-0.6154003,0.23071744,9.755330085754395,0.9915327429771423,0.9926616549491882,0.681201696395874,0.35964709520339966, 1.1997179985046387
18,31160599,0.7037333,0.26987368,-0.61526865,0.23102447,9.713301658630371,0.9823172092437744,0.9423144459724426,0.6228815913200378,0.6881172060966492, 1.2153290510177612
19,31177266,0.7036552,0.27009326,-0.6150899,0.23148087,9.717402458190918,0.9535632729530334,0.8899274468421936,0.20218025147914886,0.5566344261169434, 1.1415259838104248
20,31193933,0.70369047,0.2700523,-0.61501396,0.23162317,9.741324424743652,0.9493388533592224,0.965377688407898,-0.11988025158643723,0.74580979347229, 0.9511981010437012
21,31210600,0.7037085,0.27006453,-0.61492157,0.23179926,9.705028533935547,0.9530290365219116,0.9111750721931458,-0.2260320633649826,0.6760151386260986, 0.7896075248718262
22,31227267,0.7036962,0.27006567,-0.61486197,0.23199381,9.70473861694336,0.9813973903656006,0.9331783056259155,-0.41802483797073364,0.4815123379230499, 0.9908720850944519
23,31243934,0.70366424,0.27012333,-0.61477536,0.23225278,9.725756645202637,0.9833939671516418,0.9238925576210022,-0.6855495572090149,0.499044269323349, 0.9680895805358887
24,31260601,0.7036004,0.27025312,-0.61467093,0.23257147,9.704800605773926,0.9494072198867798,0.9066330790519714,-0.24744431674480438,0.4546830952167511, 0.9539769887924194
25,31277268,0.7035273,0.2703195,-0.61465544,0.23275608,9.688318252563477,0.963053822517395,0.9367258548736572,-0.035652875900268555,-0.007811873219907284, 0.8529348969459534
26,31293935,0.7034758,0.2702987,-0.61470383,0.23280866,9.713811874389648,0.981433093547821,0.9399640560150146,0.3097407817840576,-0.18715201318264008, 0.8091244697570801
27,31310602,0.70337397,0.27039856,-0.6147075,0.23299022,9.72473430633545,0.9797072410583496,0.9342023134231567,0.3707118034362793,-0.2514398694038391, 0.806972861289978
28,31327269,0.7032629,0.2705298,-0.61469513,0.2332056,9.719910621643066,0.9766526222229004,0.9430842399597168,0.48544391989707947,-0.21587662398815155, 0.8052825331687927
29,31343936,0.7031064,0.27078444,-0.6146258,0.23356439,9.715452194213867,0.9794837832450867,0.9249062538146973,0.48508530855178833,-0.1974738985300064, 0.8100336194038391
30,31360603,0.70301694,0.27085063,-0.61464244,0.23371337,9.718635559082031,0.9876876473426819,0.9484270811080933,0.4541836380958557,-0.21805371344089508, 0.84779953956604
31,31377270,0.70297515,0.27079037,-0.61470443,0.23374605,9.72570514678955,0.9776265621185303,0.9264028668403625,0.5369510054588318,-0.1302533745765686, 0.9673596024513245
32,31393937,0.70285153,0.27097002,-0.6146548,0.23403975,9.71346378326416,0.9808216094970703,0.9456377029418945,0.6706237196922302,-0.06377562135457993, 0.8957081437110901
33,31410604,0.70277226,0.2710528,-0.6146347,0.2342344,9.708074569702148,0.9826996326446533,0.9331981539726257,0.6674093008041382,0.04071778804063797, 0.9118568301200867
34,31427271,0.70264304,0.2712732,-0.61454904,0.23459151,9.71059513092041,0.978500485420227,0.9474503993988037,0.82209712266922,0.09583631157875061, 0.9383019208908081
35,31443938,0.70252234,0.27147436,-0.6144824,0.23489499,9.727350234985352,0.9526199102401733,0.9490311741828918,0.9134577512741089,0.0070755090564489365, 0.8275014758110046
36,31460605,0.70263284,0.27106425,-0.6146904,0.23449318,9.726333618164062,0.9622633457183838,0.923625111579895,0.936137855052948,-0.04000703617930412, 0.8026188015937805
37,31477272,0.7026278,0.27092928,-0.6147895,0.23440446,9.717869758605957,1.0029479265213013,0.9474757313728333,0.9019832611083984,-0.14784932136535645, 0.8269252777099609
38,31493939,0.7024755,0.27114558,-0.6147472,0.23472138,9.703404426574707,0.9891291260719299,0.9700086116790771,0.8620529770851135,-0.2726728022098541, 0.8974112868309021
39,31510606,0.70229024,0.27141547,-0.61469316,0.23510522,9.708451271057129,0.9909558892250061,0.9477138519287109,0.8058971166610718,-0.3932829797267914, 0.9629285931587219
40,31527273,0.7023202,0.27114496,-0.6148639,0.23488164,9.732574462890625,1.001852035522461,0.9730752110481262,0.7486528158187866,-0.2874513268470764, 0.9655539989471436
41,31543940,0.70219004,0.2712604,-0.6148771,0.23510228,9.725454330444336,1.0031867027282715,0.9444116353988647,0.7705260515213013,-0.40915006399154663, 1.0319933891296387
42,31560607,0.7020836,0.27135044,-0.6148801,0.23530883,9.762415885925293,1.0124741792678833,1.0180003643035889,0.6545004844665527,-0.2380572259426117, 1.0295600891113281
43,31577274,0.7019856,0.27142486,-0.61487705,0.23552307,9.733306884765625,1.0008705854415894,0.9582615494728088,0.48108971118927,-0.16844190657138824, 1.1029917001724243
44,31593941,0.70199937,0.27119455,-0.6150054,0.23541254,9.731367111206055,0.9940041899681091,0.9515377283096313,0.22726787626743317,-0.1696329116821289, 1.1848114728927612
45,31610608,0.7018627,0.27135092,-0.6149599,0.23575829,9.720247268676758,0.9937686920166016,0.927017867565155,0.17547902464866638,-0.15143510699272156, 1.2447837591171265
46,31627275,0.7018427,0.27122152,-0.61504185,0.23575282,9.723204612731934,0.9826234579086304,0.9418967366218567,0.2164977341890335,-0.15653200447559357, 1.133304238319397
47,31643942,0.7017171,0.27136853,-0.6150025,0.23606004,9.732037544250488,0.975943386554718,0.9224217534065247,0.25629985332489014,-0.15977202355861664, 1.12611985206604
48,31660609,0.7016072,0.2714685,-0.61499316,0.23629582,9.702204704284668,0.9840242266654968,0.945762574672699,0.30017444491386414,-0.23098814487457275, 1.0722051858901978
49,31677276,0.70164895,0.27117968,-0.61515915,0.23607114,9.729310035705566,0.9979512691497803,0.9442004561424255,0.36720290780067444,-0.2611215114593506, 1.010120153427124
50,31693943,0.70152056,0.27129498,-0.6151555,0.23632987,9.737353324890137,0.994587779045105,0.9691722989082336,0.3386191129684448,-0.3386639356613159, 1.1490561962127686
51,31710610,0.70149153,0.27116317,-0.6152329,0.23636559,9.750492095947266,1.005885362625122,1.0225844383239746,-0.11885572224855423,-0.14898906648159027, 1.3040128946304321
52,31727277,0.7012092,0.27170196,-0.6150036,0.23718007,9.721336364746094,0.9918064475059509,0.9413038492202759,-0.17647148668766022,-0.07735034823417664, 1.3372199535369873
53,31743944,0.7013389,0.27122223,-0.6152031,0.23682843,9.719457626342773,0.9958981871604919,0.9172560572624207,-0.14897626638412476,0.10083077847957611, 1.2506872415542603
54,31760611,0.70110005,0.2717383,-0.6149518,0.23759496,9.717525482177734,0.9910489320755005,0.931647002696991,-0.23620030283927917,0.19248583912849426, 1.125863790512085
55,31777278,0.7010512,0.27176175,-0.61491615,0.23780477,9.70809268951416,0.9844436645507812,0.8823532462120056,-0.40940621495246887,0.19482940435409546, 1.1293857097625732
56,31793945,0.7012242,0.27122176,-0.61513335,0.23734865,9.700418472290039,0.975906252861023,0.8928155899047852,-0.2895515561103821,0.17901353538036346, 1.0416874885559082
57,31810612,0.7011742,0.2712787,-0.6150876,0.23754993,9.709789276123047,0.9851941466331482,0.9103941321372986,-0.0014086983865126967,0.20708507299423218, 0.9591636061668396
58,31827279,0.7010837,0.27147278,-0.6149512,0.23794796,9.758758544921875,0.992946982383728,1.0326173305511475,-0.3955240547657013,0.4332195818424225, 1.022273302078247
59,31843946,0.70111704,0.27135476,-0.6149402,0.2380131,9.68706226348877,0.9923841953277588,0.9149588942527771,-0.552299439907074,0.5095710754394531, 1.0818485021591187
60,31860613,0.701045,0.2715095,-0.61480045,0.23840968,9.700651168823242,0.983507513999939,0.9319214224815369,-0.6074308156967163,0.5801724791526794, 1.1528468132019043
61,31877280,0.7010237,0.27153236,-0.6147263,0.2386374,9.715859413146973,0.9580131769180298,0.8971474766731262,-0.2125726193189621,0.552139401435852, 1.1280410289764404
62,31893947,0.7009851,0.27159727,-0.61464787,0.23887865,9.709693908691406,0.9718794822692871,0.924590528011322,0.1252909153699875,0.4662984013557434, 1.0387036800384521
63,31910614,0.700998,0.27151826,-0.6146495,0.23892601,9.736983299255371,0.9832063913345337,0.9624934792518616,0.12320350110530853,0.3275928497314453, 0.9484447836875916
64,31927281,0.70091635,0.2716928,-0.61453503,0.23926176,9.730046272277832,0.987031102180481,0.977411687374115,0.11270227283239365,0.3592629134654999, 0.9329873323440552
65,31943948,0.7009791,0.27145895,-0.6146151,0.23913772,9.716900825500488,0.9950876832008362,0.9645605683326721,-0.026893336325883865,0.22341319918632507, 0.9990553855895996
66,31960615,0.70097995,0.27138487,-0.61462355,0.23919745,9.705292701721191,0.9998534321784973,0.9178641438484192,0.020893558859825134,0.2325953245162964, 1.0131678581237793
67,31977282,0.70090795,0.2714747,-0.6145724,0.23943791,9.707751274108887,0.9880049824714661,0.9231616854667664,0.22318264842033386,0.14501269161701202, 1.051048994064331
68,31993949,0.7007401,0.27180728,-0.61443824,0.23989564,9.730985641479492,0.9765971302986145,0.9278524518013,0.3676510751247406,-0.047037720680236816, 0.8581854701042175
69,32010616,0.7006732,0.27193898,-0.6143795,0.24009198,9.729674339294434,0.9890949726104736,0.9290978312492371,0.6535400152206421,0.09369765222072601, 0.6859400272369385
70,32027283,0.7004981,0.2723774,-0.6141594,0.2406686,9.716717720031738,0.9864060282707214,0.9452935457229614,0.6535912752151489,0.313467413187027, 0.7555426955223083
71,32043950,0.7004616,0.27244785,-0.6141075,0.24082735,9.713631629943848,0.9991583824157715,0.9276080131530762,0.6895771026611328,0.2714881896972656, 0.7895562052726746
72,32060617,0.7003699,0.27261567,-0.6140213,0.24112345,9.729925155639648,0.9960908889770508,0.9559837579727173,0.5742430090904236,0.1864156275987625, 0.9427842497825623
73,32077284,0.70047957,0.2722829,-0.61415076,0.24085136,9.72422981262207,0.9786098003387451,0.9350415468215942,0.708530604839325,0.2535337209701538, 0.952389121055603
74,32093951,0.70046556,0.27227184,-0.6141337,0.24094781,9.70149040222168,0.9953569173812866,0.9153404831886292,0.6730183959007263,0.2823864221572876, 0.9479579925537109
75,32110618,0.7004054,0.27239227,-0.61405575,0.24118526,9.713208198547363,0.9874573945999146,0.9264745712280273,0.7251147627830505,0.3129936158657074, 0.9055435061454773
76,32127285,0.70033336,0.27251306,-0.6139913,0.24142188,9.716333389282227,0.9933527112007141,0.935869038105011,0.7519312500953674,0.1999647617340088, 0.9523634910583496
77,32143952,0.7002968,0.27254742,-0.6139712,0.2415404,9.70189094543457,0.9910078048706055,0.9302907586097717,0.7918998003005981,0.1540667712688446, 0.885565459728241
78,32160619,0.7002536,0.27257663,-0.6139658,0.24164659,9.71921443939209,1.0012472867965698,0.9529668092727661,0.7417629361152649,0.04486704245209694, 0.8954134583473206
79,32177286,0.7003152,0.27234188,-0.61407334,0.24145918,9.727380752563477,0.9933134913444519,0.9498541355133057,0.6781538128852844,0.07366852462291718, 0.9184136986732483
80,32193953,0.700177,0.2725542,-0.61400354,0.24179779,9.713523864746094,0.9974056482315063,0.9299524426460266,0.6014693975448608,-0.1120939701795578, 1.0650720596313477
81,32210620,0.7001319,0.27256083,-0.6140073,0.2419115,9.725354194641113,0.9915717244148254,0.9488478302955627,0.6507482528686523,0.04507194831967354, 1.0640348196029663
82,32227287,0.7000349,0.27272695,-0.6139358,0.24218611,9.721007347106934,0.9944208860397339,0.9516366720199585,0.6627349853515625,0.0831836462020874, 0.9531446099281311
83,32243954,0.6998882,0.27301648,-0.61380357,0.24261881,9.727596282958984,0.9819018840789795,0.9513643383979797,0.5215193629264832,0.12087272852659225, 1.010837197303772
84,32260621,0.6998271,0.27311355,-0.6137523,0.2428156,9.709906578063965,0.9983924627304077,0.9531688690185547,0.539268970489502,0.15943263471126556, 0.9213207960128784
85,32277288,0.69977105,0.273164,-0.613735,0.24296363,9.718703269958496,1.0031757354736328,0.9501333832740784,0.4336550235748291,0.03631240501999855, 0.9831626415252686
86,32293955,0.6998184,0.27292883,-0.6138518,0.24279651,9.735631942749023,0.9982786178588867,0.9463008642196655,0.3183978796005249,-0.0320286825299263, 1.0534824132919312
87,32310622,0.6998072,0.27282006,-0.61392796,0.24275835,9.729113578796387,1.0029152631759644,0.9592977166175842,0.3098560571670532,-0.16704602539539337, 1.0365266799926758
88,32327289,0.699728,0.27289873,-0.61391324,0.2429355,9.715693473815918,1.0031088590621948,0.937294065952301,0.30752527713775635,-0.10411561280488968, 1.0261023044586182
89,32343956,0.6995171,0.2732946,-0.613779,0.24343666,9.725027084350586,1.0048397779464722,0.929479718208313,0.4406984746456146,-0.2755926549434662, 0.9346905946731567
90,32360623,0.6993749,0.2735379,-0.6137141,0.24373528,9.697646141052246,0.9975816607475281,0.9657334685325623,0.5478492379188538,-0.278256356716156, 0.8168209195137024
91,32377290,0.6992937,0.27362436,-0.61372936,0.24383262,9.716877937316895,0.9923332333564758,0.9144109487533569,0.6021994352340698,-0.36402052640914917, 0.7529429197311401
92,32393957,0.6991697,0.27381602,-0.61370814,0.24402608,9.724671363830566,1.013026237487793,0.9569029808044434,0.36251577734947205,-0.4701339304447174, 0.6547566652297974
93,32410624,0.69904244,0.27400267,-0.613674,0.2442671,9.72122573852539,1.023973822593689,0.9662644267082214,-0.065581314265728,-0.37817150354385376, 0.831689178943634
94,32427291,0.69894224,0.27414763,-0.6136376,0.24448282,9.723474502563477,1.0116897821426392,0.9307678937911987,-0.2419119030237198,-0.2179768681526184, 0.8627188801765442
95,32443958,0.6989039,0.27415252,-0.61364764,0.24456178,9.714276313781738,1.0092653036117554,0.9219577312469482,-0.28258490562438965,-0.0832284539937973, 0.9245991706848145
96,32460625,0.69882125,0.27428845,-0.61359936,0.24476612,9.7376708984375,0.9962616562843323,0.9605094194412231,-0.15356093645095825,-0.07444330304861069, 0.8289485573768616
97,32477292,0.6987814,0.27440864,-0.6135121,0.24496414,9.72101879119873,1.0155749320983887,0.9584271311759949,-0.27869176864624023,0.30568116903305054, 0.7252044081687927
98,32493959,0.698779,0.27444112,-0.61345464,0.24507847,9.733980178833008,0.9848527312278748,0.9337092638015747,-0.20884594321250916,0.3895627558231354, 0.7887365818023682
99,32510626,0.69878435,0.27449498,-0.61336505,0.24522725,9.728586196899414,0.9604743719100952,0.9373432993888855,-0.2322559356689453,0.5805438160896301, 0.765288233757019
100,32527293,0.69883025,0.27456015,-0.6132298,0.24536137,9.705009460449219,0.9949965476989746,0.9164078831672668,-0.19323502480983734,0.9280441999435425, 0.5013622045516968
101,32543960,0.69900143,0.27434006,-0.6131899,0.24522015,9.754472732543945,1.0157150030136108,1.0446566343307495,-0.4714273512363434,1.184132695198059, 0.6160814762115479
102,32560627,0.6990675,0.27442464,-0.6129662,0.24549623,9.760592460632324,1.038703441619873,1.0524687767028809,-0.636590838432312,1.5645709037780762, 0.7924889326095581
103,32577294,0.69920826,0.27437449,-0.61277866,0.2456196,9.70034122467041,1.0256096124649048,0.9466445446014404,-0.7931740283966064,1.7484573125839233, 0.7095037698745728
104,32593961,0.6993481,0.27426422,-0.6126619,0.2456355,9.694782257080078,0.9781476855278015,0.8899661898612976,-0.9356830716133118,1.3640106916427612, 0.6614927649497986
105,32610628,0.6994323,0.27430075,-0.6125156,0.24571995,9.702905654907227,0.9914740920066833,0.9378211498260498,-0.656069278717041,1.0856776237487793, 0.32953938841819763
106,32627295,0.6994394,0.27451977,-0.6123113,0.24596418,9.715394020080566,1.0173654556274414,0.9622224569320679,-0.7361346483230591,0.878675639629364, 0.16881969571113586
107,32643962,0.6995506,0.27449712,-0.6122058,0.24593574,9.73338794708252,1.0449308156967163,1.0021895170211792,-0.9488096833229065,0.9424641132354736, 0.1398773491382599
108,32660629,0.6997331,0.27426162,-0.61219347,0.24571031,9.705489158630371,1.0233041048049927,0.9747991561889648,-1.336662769317627,0.926622748374939, 0.331127405166626
109,32677296,0.69982785,0.27423704,-0.61209005,0.2457253,9.723543167114258,1.0234886407852173,0.9631862044334412,-1.6003838777542114,0.8737835884094238, 0.3218683898448944
110,32693963,0.69996953,0.27408126,-0.6120632,0.24556226,9.702154159545898,1.006615400314331,0.9382532238960266,-1.5552799701690674,0.727471113204956, 0.2571195065975189
111,32710630,0.7000237,0.2741353,-0.6119538,0.24562024,9.702864646911621,1.0227210521697998,0.9684365391731262,-1.1519695520401,0.666884183883667, 0.2506522536277771
112,32727297,0.7000984,0.27411118,-0.6119044,0.2455574,9.71017837524414,1.034793496131897,0.9433114528656006,-0.8522114157676697,0.4805903136730194, 0.21896938979625702
113,32743964,0.7000288,0.27434942,-0.6117943,0.24576396,9.70406723022461,1.027251124382019,0.988613486289978,-0.7232001423835754,0.010981444269418716, 0.2816820442676544
114,32760631,0.69994843,0.2745478,-0.61176413,0.24584632,9.696560859680176,1.0350438356399536,0.9887462258338928,-0.46700912714004517,-0.49438905715942383, 0.13939069211483002
115,32777298,0.6998661,0.27465808,-0.6118285,0.24579744,9.710799217224121,1.0231287479400635,1.0290610790252686,-0.4837854504585266,-0.9625636339187622, 0.1823175996541977
116,32793965,0.6997277,0.2748292,-0.61191434,0.24578637,9.706911087036133,1.0708608627319336,0.9856624603271484,-0.412902295589447,-1.3758116960525513, 0.20631666481494904
117,32810632,0.6995652,0.27498898,-0.61204684,0.24574059,9.706255912780762,1.024385929107666,0.9632633924484253,-0.34386324882507324,-1.7236193418502808, 0.25866901874542236
118,32827299,0.6993627,0.2752414,-0.61217856,0.24570635,9.69742488861084,1.0259913206100464,0.9678000807762146,-0.005621987394988537,-2.0415496826171875, -0.024882733821868896
119,32843966,0.69914854,0.27546906,-0.61236507,0.24559568,9.72092056274414,1.0536153316497803,0.9751713871955872,-0.019324783235788345,-2.414726734161377, -0.10694582015275955
120,32860633,0.6988865,0.27581683,-0.6125071,0.24559721,9.709860801696777,1.0640686750411987,0.9454304575920105,0.06851397454738617,-2.4897594451904297, -0.17852053046226501
121,32877300,0.69859153,0.2762357,-0.6126086,0.24571201,9.712841987609863,1.0376451015472412,0.925895094871521,0.11394448578357697,-2.415905237197876, -0.03228481113910675
122,32893967,0.69842887,0.2763593,-0.6128205,0.24550706,9.727471351623535,1.0615453720092773,0.9189956188201904,0.08772990852594376,-2.223874092102051, -0.019465653225779533
123,32910634,0.6982715,0.27655658,-0.61294425,0.24542366,9.731961250305176,1.0688356161117554,0.9087995290756226,-0.038623955100774765,-1.7671226263046265, -0.02330755814909935
124,32927301,0.6981931,0.27663568,-0.61306244,0.24526246,9.727806091308594,1.0635508298873901,0.9314507842063904,-0.17986519634723663,-1.2781250476837158, 0.05369061976671219
125,32943968,0.6981221,0.27675787,-0.6131125,0.24520163,9.711481094360352,1.0758419036865234,0.861786961555481,-0.2472521811723709,-0.8699225187301636, 0.14351435005664825
126,32960635,0.69805723,0.2769023,-0.61312735,0.24518645,9.717166900634766,1.073248028755188,0.8958830237388611,-0.36622315645217896,-0.6615503430366516, 0.15678171813488007
127,32977302,0.6979173,0.27729648,-0.61298835,0.24548632,9.713969230651855,1.076188087463379,0.9142967462539673,-0.20488877594470978,-0.29900264739990234, 0.1950855255126953
128,32993969,0.69785696,0.27750212,-0.61293995,0.24554616,9.72312068939209,1.0739350318908691,0.9022198915481567,-0.4839007258415222,-0.36837461590766907, 0.0712481290102005
129,33010636,0.6978271,0.277618,-0.61293715,0.24550708,9.701091766357422,1.07200026512146,0.8937872052192688,-0.4391169548034668,-0.40552589297294617, 0.1175558790564537
130,33027303,0.6977301,0.27791452,-0.61285377,0.24565533,9.70251178741455,1.0877106189727783,0.894538164138794,-0.4988585114479065,-0.42036840319633484, 0.03476283699274063
131,33043970,0.69772726,0.27796552,-0.61287814,0.24554457,9.708738327026367,1.0619230270385742,0.9237162470817566,-0.379721075296402,-0.37864530086517334, 0.14505110681056976
132,33060637,0.6976855,0.27813095,-0.6128689,0.24549942,9.709362983703613,1.0867164134979248,0.8877326846122742,-0.369962602853775,-0.5327185392379761, -0.10293743759393692
133,33077304,0.69761074,0.2783304,-0.61286837,0.2454874,9.702740669250488,1.076999545097351,0.9072409272193909,-0.37185800075531006,-0.7370310425758362, -0.038969725370407104
134,33093971,0.69752425,0.27857748,-0.6128448,0.24551149,9.705293655395508,1.0947986841201782,0.8740608096122742,-0.3120395243167877,-0.7212792038917542, -0.11874046921730042
135,33110638,0.69745195,0.27875185,-0.6128706,0.24545453,9.706875801086426,1.0783098936080933,0.8922450542449951,-0.3087739050388336,-0.8566167950630188, -0.04530886933207512
136,33127305,0.6973815,0.27896133,-0.6128804,0.2453923,9.706134796142578,1.118172526359558,0.8859140872955322,-0.1546366810798645,-0.8427219390869141, -0.24538247287273407
137,33143972,0.6972471,0.27934903,-0.61280364,0.24552484,9.710067749023438,1.0846939086914062,0.8700411319732666,-0.10259166359901428,-0.7912402749061584, -0.2878483235836029
138,33160639,0.6971972,0.27954915,-0.6128084,0.2454267,9.711408615112305,1.1069756746292114,0.875405490398407,-0.025574278086423874,-0.7491841912269592, -0.3713456690311432
139,33177306,0.6972443,0.279552,-0.61287487,0.24512327,9.712006568908691,1.0899349451065063,0.8457480072975159,0.001632809522561729,-0.5055946707725525, -0.3611006438732147
140,33193973,0.69722706,0.27980837,-0.6127802,0.24511689,9.714640617370605,1.1136486530303955,0.8488772511482239,-0.029838794842362404,-0.11826664954423904, -0.46905818581581116
141,33210640,0.6972532,0.279995,-0.612684,0.24506953,9.727931022644043,1.1345374584197998,0.8793070912361145,-0.3827305734157562,0.13466516137123108, -0.41691073775291443
142,33227307,0.69737077,0.2800202,-0.6125987,0.24491936,9.765198707580566,1.1468020677566528,1.0071700811386108,-0.5022009611129761,0.6595845818519592, -0.23412567377090454
143,33243974,0.6975182,0.27997127,-0.6125189,0.2447552,9.734402656555176,1.1310261487960815,0.9623889327049255,-0.9492706656455994,0.8527684807777405, -0.015367620624601841
144,33260641,0.6976504,0.27999565,-0.61237985,0.24469855,9.72158145904541,1.1173546314239502,0.895412802696228,-1.1360896825790405,1.049666166305542, 0.0066016740165650845
145,33277308,0.69776833,0.28011236,-0.6121773,0.24473579,9.7199125289917,1.1189370155334473,0.9532228708267212,-1.348406195640564,1.2112821340560913, -0.13424895703792572
146,33293975,0.69793564,0.2801077,-0.6120565,0.24456578,9.703076362609863,1.142656683921814,0.9277938008308411,-1.3831114768981934,0.9806270003318787, -0.3802717626094818
147,33310642,0.69807565,0.28016612,-0.6119141,0.24445586,9.677370071411133,1.1560219526290894,0.9112383127212524,-1.552078366279602,0.902815580368042, -0.421572208404541
148,33327309,0.69835484,0.27982858,-0.6119879,0.24385944,9.673271179199219,1.1412713527679443,0.8756123781204224,-1.584196925163269,0.601290225982666, -0.4665609300136566
149,33343976,0.6984806,0.27989864,-0.61188346,0.24368069,9.6926851272583,1.1325304508209229,0.8844974040985107,-1.3870044946670532,0.5498085618019104, -0.6441338062286377
150,33360643,0.6986091,0.28000093,-0.6117492,0.24353208,9.696224212646484,1.1409366130828857,0.9159241318702698,-1.2961050271987915,0.688232421875, -0.7120587229728699
151,33377310,0.6987523,0.28007892,-0.61162305,0.24334843,9.722128868103027,1.1775795221328735,0.9094884991645813,-1.352734923362732,0.707301139831543, -0.7559589147567749
152,33393977,0.6989016,0.280117,-0.61151534,0.24314614,9.70781135559082,1.165018081665039,0.9274912476539612,-1.3145718574523926,0.7097471356391907, -0.6102610230445862
153,33410644,0.69906217,0.280164,-0.6113816,0.24296714,9.704384803771973,1.1659702062606812,0.9130509495735168,-1.3547837734222412,0.8918792009353638, -0.6157933473587036
154,33427311,0.69927794,0.2800642,-0.6113161,0.24262533,9.678277015686035,1.1861714124679565,0.9161862730979919,-1.3257135152816772,0.8854374885559082, -0.5764906406402588
155,33443978,0.69943553,0.28012776,-0.6111819,0.24243587,9.696249961853027,1.1598881483078003,0.8944111466407776,-1.269314169883728,0.839168131351471, -0.7106372117996216
156,33460645,0.6995654,0.2802672,-0.6110266,0.24229148,9.688151359558105,1.1664079427719116,0.924224317073822,-1.0277096033096313,0.7478715777397156, -0.8396226763725281
157,33477312,0.699692,0.2804385,-0.6108408,0.24219637,9.720560073852539,1.171159267425537,0.9347450137138367,-1.160754680633545,0.8685458302497864, -0.8365876078605652
158,33493979,0.6999066,0.28042537,-0.6107182,0.24190034,9.708054542541504,1.1967824697494507,0.9500928521156311,-1.1938976049423218,1.046759009361267, -0.8548495173454285
159,33510646,0.70007724,0.2805263,-0.6105315,0.24176088,9.70695686340332,1.2187284231185913,0.9297893047332764,-1.1455280780792236,1.1496580839157104, -0.754716694355011
160,33527313,0.7002505,0.28061703,-0.61034834,0.24161625,9.708332061767578,1.2051013708114624,0.9600898623466492,-1.275025725364685,1.1458802223205566, -0.7301539778709412
161,33543980,0.70045084,0.28066874,-0.610163,0.24144357,9.723710060119629,1.1976895332336426,0.9639942049980164,-1.3037760257720947,1.311901569366455, -0.7113030552864075
162,33560647,0.70066804,0.2807244,-0.6099519,0.24128176,9.692723274230957,1.219345211982727,0.9631402492523193,-1.4942961931228638,1.4932910203933716, -0.7734907865524292
163,33577314,0.7009385,0.2806442,-0.60979325,0.24099025,9.708332061767578,1.2298779487609863,0.9558091759681702,-1.8141732215881348,1.5453102588653564, -0.7020056843757629
164,33593981,0.70119727,0.2805865,-0.6096133,0.24075986,9.704327583312988,1.2320784330368042,0.969573974609375,-2.3221118450164795,1.585970401763916, -0.6085193157196045
165,33610648,0.7014594,0.28056413,-0.6094086,0.24054094,9.691924095153809,1.237036943435669,0.9507242441177368,-2.530855178833008,1.6359153985977173, -0.793468713760376
166,33627315,0.7017335,0.28053984,-0.60919166,0.2403187,9.707369804382324,1.2379573583602905,1.0059823989868164,-2.609280824661255,1.7364579439163208, -0.843298077583313
167,33643982,0.7020101,0.2805447,-0.6089282,0.2401736,9.712807655334473,1.2605135440826416,0.985130786895752,-3.2507131099700928,1.9482752084732056, -0.8001664280891418
168,33660649,0.70235854,0.28038967,-0.6087057,0.23989944,9.704751968383789,1.2483590841293335,1.0246504545211792,-3.8886866569519043,2.1558656692504883, -0.6970368027687073
169,33677316,0.7027837,0.28008664,-0.6085471,0.23940912,9.681488990783691,1.2536967992782593,0.992983877658844,-4.6898393630981445,2.1020920276641846, -1.008154273033142
170,33693983,0.70315856,0.279839,-0.6084057,0.23895814,9.67981243133545,1.2613271474838257,0.9635314345359802,-4.640176296234131,1.7464596033096313, -0.9735515713691711
171,33710650,0.7035239,0.27956355,-0.60831344,0.23843932,9.66600227355957,1.249014973640442,0.9742398858070374,-3.799272298812866,1.5221178531646729, -0.9299586415290833
172,33727317,0.70385754,0.27931908,-0.60821784,0.23798475,9.697367668151855,1.2614771127700806,0.976229190826416,-3.425365686416626,1.4682673215866089, -0.708088755607605
173,33743984,0.70413345,0.2792052,-0.60805404,0.23772064,9.672804832458496,1.2862884998321533,0.9882695078849792,-3.4550893306732178,1.534450650215149, -0.5402615666389465
174,33760651,0.70437163,0.27911985,-0.6079105,0.23748167,9.68036937713623,1.2815015316009521,1.051572322845459,-3.4364047050476074,1.2519423961639404, -0.45792949199676514
175,33777318,0.70458287,0.27906203,-0.6077832,0.23724926,9.652877807617188,1.2711551189422607,1.0096427202224731,-2.9677560329437256,1.0561587810516357, -0.42984509468078613
176,33793985,0.70476043,0.27901098,-0.6077174,0.23694973,9.673962593078613,1.2792185544967651,1.0090975761413574,-2.701256275177002,0.5359393358230591, -0.5460883975028992
177,33810652,0.7048972,0.27902144,-0.60765517,0.23669024,9.680463790893555,1.2934811115264893,0.9935075640678406,-2.204024076461792,0.32111281156539917, -0.5328210592269897
178,33827319,0.7050431,0.27894697,-0.6076588,0.23633403,9.677497863769531,1.310196042060852,1.0215448141098022,-1.9039839506149292,0.12675084173679352, -0.39649736881256104
179,33843986,0.70516646,0.278845,-0.607713,0.23594618,9.656593322753906,1.3160748481750488,1.0297893285751343,-1.7006322145462036,-0.17332114279270172, -0.23936350643634796
180,33860653,0.7052391,0.2787592,-0.60781395,0.2355704,9.67010498046875,1.2940410375595093,1.0642616748809814,-2.054612398147583,-0.6693366765975952, -0.12269763648509979
181,33877320,0.70527416,0.2787391,-0.6079101,0.23524083,9.664154052734375,1.2868472337722778,1.021140217781067,-1.3461651802062988,-0.8102577924728394, -0.10362899303436279
182,33893987,0.7052866,0.27872503,-0.60803765,0.23489042,9.663962364196777,1.3022136688232422,1.0097482204437256,-1.0780513286590576,-1.071353554725647, -0.09289726614952087
183,33910654,0.70528513,0.2787089,-0.6081863,0.23452899,9.677186012268066,1.3155043125152588,1.0094449520111084,-0.7994877099990845,-1.2110581398010254, -0.03364228457212448
184,33927321,0.7052114,0.27886343,-0.6082715,0.23434597,9.6792631149292,1.3076515197753906,1.0464121103286743,-0.6698616743087769,-1.3210389614105225, -0.05902446061372757
185,33943988,0.7051461,0.2789598,-0.6084118,0.23406318,9.679686546325684,1.3157716989517212,1.0235590934753418,-0.3612671494483948,-1.530794382095337, -0.08480365574359894
186,33960655,0.7050101,0.27926168,-0.6084663,0.2339713,9.65624713897705,1.2949233055114746,1.0134199857711792,-0.4100337326526642,-1.6093740463256836, -0.2867085635662079
187,33977322,0.70489264,0.27950227,-0.60858506,0.23372929,9.656760215759277,1.3207281827926636,1.020004153251648,-0.11332337558269501,-1.881829023361206, -0.5178375244140625
188,33993989,0.7047436,0.27973944,-0.60875314,0.23345649,9.660642623901367,1.3476653099060059,1.031204104423523,-0.27086710929870605,-2.3071279525756836, -0.5010484457015991
189,34010656,0.7045582,0.27999932,-0.6089395,0.23321816,9.679305076599121,1.3600518703460693,1.0190086364746094,-0.013075282797217369,-2.5244643688201904, -0.33264490962028503
190,34027323,0.70433027,0.2803396,-0.60912865,0.2330041,9.658129692077637,1.3414387702941895,1.0310332775115967,0.022840123623609543,-2.8586719036102295, -0.5268020629882812
191,34043990,0.70411694,0.28067437,-0.60934186,0.23268844,9.670721054077148,1.3360419273376465,1.003268837928772,-0.05937023460865021,-3.054621458053589, -0.9223644733428955
192,34060657,0.70390093,0.28099775,-0.60959613,0.23228535,9.670645713806152,1.3365983963012695,0.9592658877372742,-0.6371159553527832,-3.4277093410491943, -1.2192797660827637
193,34077324,0.7037052,0.2812693,-0.6098996,0.23175237,9.673700332641602,1.3089982271194458,0.9309427738189697,-1.1459249258041382,-3.7031991481781006, -1.523724913597107
194,34093991,0.70352364,0.28153965,-0.61023635,0.23108803,9.662191390991211,1.313538670539856,0.9616499543190002,-1.3642350435256958,-4.006953716278076, -2.0695319175720215
195,34110658,0.7033346,0.28194356,-0.6105268,0.23040229,9.650914192199707,1.3258640766143799,0.9217893481254578,-1.460321068763733,-4.154252529144287, -2.8818771839141846
196,34127325,0.70313007,0.28252935,-0.61073977,0.22974442,9.651436805725098,1.321671485900879,0.8822142481803894,-1.4834108352661133,-4.2140703201293945, -3.7465107440948486
197,34143992,0.70300144,0.2830541,-0.6109975,0.2288044,9.661177635192871,1.3075973987579346,0.8903085589408875,-0.9087642431259155,-4.295044898986816, -4.669259548187256
198,34160659,0.70281637,0.2838309,-0.6111762,0.2279319,9.616143226623535,1.3746800422668457,0.8800068497657776,0.18829819560050964,-4.490265369415283, -5.527861595153809
199,34177326,0.7025884,0.28469592,-0.61139256,0.2269733,9.615538597106934,1.3585283756256104,0.900135338306427,0.08732010424137115,-5.180912494659424, -6.189476490020752
200,34193993,0.7022896,0.28572786,-0.6116376,0.22593907,9.636497497558594,1.452271580696106,0.9454455375671387,-0.3147289752960205,-6.149354934692383, -7.179114818572998
201,34210660,0.7020506,0.28633675,-0.61219925,0.22438489,9.681934356689453,1.5122638940811157,1.0899345874786377,-3.2224884033203125,-7.551702499389648, -7.205021381378174
202,34227327,0.70179576,0.28667754,-0.61299014,0.2225802,9.60031509399414,1.546219825744629,0.9116698503494263,-6.050439834594727,-8.835501670837402, -6.820537567138672
203,34243994,0.70143235,0.2870971,-0.61386967,0.22075364,9.59001350402832,1.5604560375213623,0.8657039403915405,-6.867191791534424,-10.04487133026123, -7.0120954513549805
204,34260661,0.7010924,0.28732193,-0.6149054,0.21864866,9.636584281921387,1.5735700130462646,0.9018957614898682,-7.6877851486206055,-10.748608589172363, -7.125189304351807
205,34277328,0.700642,0.28756955,-0.61600375,0.2166659,9.670801162719727,1.6228917837142944,1.0200392007827759,-10.37090015411377,-11.782648086547852, -6.609991550445557
206,34293995,0.7002741,0.28719568,-0.61748433,0.214122,9.57656478881836,1.663690447807312,0.8088693022727966,-14.571100234985352,-13.216071128845215, -5.89285135269165
207,34310662,0.6998535,0.28680336,-0.61905396,0.21147414,9.578766822814941,1.5518079996109009,0.6225340962409973,-15.727416038513184,-14.138235092163086, -6.096025466918945
208,34327329,0.6993617,0.286578,-0.62062925,0.20877206,9.571762084960938,1.5580899715423584,0.562910258769989,-14.325461387634277,-14.719525337219238, -6.901865005493164
209,34343996,0.69892323,0.286378,-0.6221515,0.20596546,9.585179328918457,1.5722911357879639,0.4464033246040344,-13.409099578857422,-14.295479774475098, -7.610849857330322
210,34360663,0.6985827,0.28640044,-0.6233748,0.20337409,9.619462013244629,1.5602940320968628,0.42821401357650757,-12.626590728759766,-12.532951354980469, -8.346946716308594
211,34377330,0.6984213,0.2864652,-0.6243267,0.2009026,9.614437103271484,1.6741530895233154,0.3755689263343811,-11.600554466247559,-10.236895561218262, -8.722490310668945
212,34393997,0.69835246,0.2865009,-0.6251519,0.19851078,9.558977127075195,1.7768774032592773,0.4950161576271057,-11.147515296936035,-8.987722396850586, -8.575523376464844
213,34410664,0.6982579,0.28647372,-0.6259855,0.19624195,9.54539680480957,1.8925822973251343,0.6878393888473511,-11.419868469238281,-8.892558097839355, -7.685929775238037
214,34427331,0.698102,0.28616643,-0.62702674,0.19390742,9.515792846679688,2.0074703693389893,0.41508859395980835,-13.059109687805176,-9.894414901733398, -6.284671306610107
215,34443998,0.69798964,0.28585938,-0.62796736,0.1917087,9.574479103088379,1.9134470224380493,0.5187099575996399,-12.307783126831055,-8.936483383178711, -5.868168830871582
216,34460665,0.697839,0.28546128,-0.62896526,0.18956643,9.581293106079102,2.04805326461792,0.5211006999015808,-12.485254287719727,-9.1478271484375, -5.0301079750061035
217,34477332,0.6977047,0.2848615,-0.6300226,0.18744063,9.620478630065918,2.038810968399048,0.5341188311576843,-13.562066078186035,-9.084424018859863, -3.97222638130188
218,34493999,0.6974255,0.28393435,-0.63141376,0.18519168,9.615167617797852,1.9887617826461792,0.5541867017745972,-15.774251937866211,-11.13454532623291, -2.289073944091797
219,34510666,0.69710445,0.2827936,-0.63297504,0.18280032,9.62255573272705,2.0788886547088623,0.5922179222106934,-17.59868049621582,-12.15488338470459, -1.6514581441879272
220,34527333,0.69672054,0.2814309,-0.6347488,0.18019824,9.620455741882324,1.8663609027862549,0.42936235666275024,-19.6588134765625,-13.580700874328613, -1.1870614290237427
221,34544000,0.6962429,0.2802779,-0.6364898,0.1776827,9.664382934570312,1.7740064859390259,0.38559603691101074,-18.05387306213379,-13.930990219116211, -1.632261872291565
222,34560667,0.6957081,0.27939922,-0.6381166,0.1753104,9.696246147155762,1.7418909072875977,0.2298358827829361,-15.861572265625,-13.699409484863281, -2.299025297164917
223,34577334,0.6952556,0.27874044,-0.6394827,0.17316422,9.730677604675293,1.8070772886276245,0.2831384241580963,-13.669205665588379,-11.92099666595459, -2.7869975566864014
224,34594001,0.69495296,0.2781089,-0.64062876,0.17114629,9.704397201538086,1.9021623134613037,0.1973683387041092,-12.988492012023926,-9.997451782226562, -2.8956971168518066
225,34610668,0.6946918,0.2775142,-0.64162934,0.16941471,9.703571319580078,1.8664205074310303,0.21625618636608124,-11.457465171813965,-8.613813400268555, -2.0140817165374756
226,34627335,0.69432145,0.27711707,-0.64254624,0.16810274,9.626483917236328,1.97691810131073,0.13928066194057465,-8.360077857971191,-8.125402450561523, -0.9143609404563904
227,34644002,0.69377977,0.27693343,-0.64341354,0.16732277,9.610138893127441,1.9338459968566895,0.13222670555114746,-4.601988792419434,-7.874882698059082, 0.7915415167808533
228,34660669,0.69310725,0.2769632,-0.64423436,0.16690215,9.565568923950195,1.903001070022583,0.1385987550020218,-1.6867371797561646,-7.787299633026123, 1.6269508600234985
229,34677336,0.69231653,0.27721047,-0.64503026,0.16669936,9.589020729064941,1.8578349351882935,0.18697473406791687,0.567430317401886,-8.024499893188477, 1.7919738292694092
230,34694003,0.6913778,0.27758965,-0.6459143,0.1665413,9.534605979919434,1.8806908130645752,0.18856945633888245,1.5745221376419067,-9.166800498962402, 1.7578707933425903
231,34710670,0.69022983,0.2780592,-0.6469703,0.1664206,9.51427936553955,1.910854697227478,0.22439134120941162,2.374586582183838,-10.946974754333496, 2.1040008068084717
232,34727337,0.68884236,0.2785996,-0.64826316,0.16623484,9.472902297973633,1.9475550651550293,0.2039329707622528,2.6064200401306152,-13.346016883850098, 2.210357904434204
233,34744004,0.6872179,0.27934635,-0.6497116,0.16605008,9.450116157531738,1.8780328035354614,0.28363242745399475,3.8695638179779053,-15.376984596252441, 1.8691333532333374
234,34760671,0.6853683,0.28033054,-0.65130675,0.16578661,9.469415664672852,1.8795883655548096,0.16678838431835175,4.9101715087890625,-17.507619857788086, 0.9782077670097351
235,34777338,0.6832575,0.28145728,-0.6531248,0.16543774,9.50688648223877,1.808474063873291,0.03443710505962372,5.453726768493652,-20.05999755859375, 0.6669365167617798
236,34794005,0.6807421,0.28299084,-0.65512663,0.16527581,9.53498649597168,1.798490285873413,0.005043588578701019,8.783733367919922,-22.843488693237305, 0.5327388048171997
237,34810672,0.67802,0.2847038,-0.6572344,0.16515592,9.55094051361084,1.8010413646697998,-0.1784234493970871,10.099579811096191,-24.395044326782227, 0.3601730465888977
238,34827339,0.67516136,0.28658077,-0.65935135,0.16518196,9.593343734741211,1.7491378784179688,-0.27592769265174866,11.785221099853516,-24.952943801879883, 0.470538467168808
239,34844006,0.6721362,0.28870058,-0.6614495,0.16543931,9.576397895812988,1.8197442293167114,-0.3506361246109009,14.311938285827637,-25.437074661254883, 0.5901504158973694
240,34860673,0.66895974,0.29100555,-0.66356766,0.16579351,9.574073791503906,1.9655593633651733,-0.38689881563186646,15.885027885437012,-26.2331485748291, 0.4064556360244751
241,34877340,0.66558504,0.29338956,-0.6657605,0.16638194,9.533512115478516,1.9334152936935425,-0.4491174817085266,17.639972686767578,-27.098478317260742, 1.503144383430481
242,34894007,0.6618835,0.29600745,-0.668084,0.16719481,9.4747896194458,1.9394214153289795,-0.48882460594177246,20.254634857177734,-29.005064010620117, 2.1006412506103516
243,34910674,0.657939,0.29862687,-0.6705829,0.16810027,9.539559364318848,1.8638741970062256,-0.3726373612880707,20.985654830932617,-30.731201171875, 3.155083656311035
244,34927341,0.6537245,0.3014879,-0.6731486,0.16917777,9.588203430175781,1.7464885711669922,-0.4586317539215088,23.3476505279541,-32.21519470214844, 3.270958662033081
245,34944008,0.6492868,0.30441976,-0.67581,0.1704025,9.687235832214355,1.6624009609222412,-0.6974524855613708,24.719911575317383,-33.46110916137695, 4.056954860687256
246,34960675,0.6446246,0.30760655,-0.6784304,0.17195997,9.631082534790039,1.7587507963180542,-0.8541054725646973,27.92654037475586,-33.92711639404297, 4.527055740356445
247,34977342,0.63950205,0.3112056,-0.68110365,0.17403099,9.575623512268066,1.950619101524353,-0.8105273246765137,33.04050064086914,-35.71357345581055, 5.536225318908691
248,34994009,0.6336901,0.31525385,-0.6840453,0.1764495,9.572373390197754,1.962190866470337,-0.8544018268585205,38.0350456237793,-39.88421630859375, 6.3377580642700195
249,35010676,0.62703717,0.31957787,-0.68758553,0.17866497,9.626116752624512,1.92655348777771,-0.980311393737793,38.99687576293945,-47.291324615478516, 6.53415060043335
250,35027343,0.6196894,0.32450986,-0.69125974,0.18121529,9.62428092956543,1.9541740417480469,-1.0272020101547241,44.72184753417969,-51.14915466308594, 6.238452911376953
251,35044010,0.611743,0.3296594,-0.695374,0.18316877,9.620811462402344,1.722112774848938,-1.1075655221939087,43.91312789916992,-57.43937301635742, 4.346702575683594
252,35060677,0.603334,0.33543968,-0.6995078,0.18481891,9.88718318939209,1.5580629110336304,-1.3438535928726196,46.01517868041992,-61.25082778930664, 0.7044981718063354
253,35077344,0.59483147,0.34155956,-0.7035901,0.18567227,10.235085487365723,1.3304990530014038,-1.5999752283096313,43.52268600463867,-63.8256950378418, -4.165903091430664
254,35094011,0.58610606,0.34764278,-0.7077958,0.186145,10.760923385620117,1.0001983642578125,-1.8586505651474,42.11418533325195,-66.24156951904297, -5.0329155921936035
255,35110678,0.5774227,0.35342368,-0.7120363,0.18622538,11.38577651977539,1.203660249710083,-1.3754472732543945,39.00819396972656,-66.72640228271484, -5.188026428222656
256,35127345,0.568479,0.35876277,-0.71668637,0.18569387,11.334599494934082,1.1121898889541626,-1.2822339534759521,34.26765060424805,-70.6210708618164, -4.1265645027160645
257,35144012,0.5596321,0.36381698,-0.72127384,0.18496981,11.394619941711426,1.1824427843093872,-1.5737296342849731,32.062042236328125,-70.08216094970703, -3.785534143447876
258,35160679,0.5513425,0.3684418,-0.72547823,0.18426615,11.578262329101562,1.2601662874221802,-1.1012071371078491,29.630849838256836,-65.31419372558594, -3.2775373458862305
259,35177346,0.5432307,0.37356004,-0.72927517,0.18306239,11.653035163879395,0.9910086393356323,-1.0358500480651855,29.074506759643555,-64.87606811523438, -8.912240982055664
260,35194013,0.5361001,0.3792509,-0.73205596,0.18127367,12.455084800720215,0.9178171753883362,0.32996976375579834,27.057661056518555,-58.493160247802734, -17.84905433654785
261,35210680,0.5302203,0.38576975,-0.73355913,0.17871696,12.450797080993652,0.8241525292396545,0.44558873772621155,24.59589958190918,-50.7036247253418, -29.777189254760742
262,35227347,0.5233926,0.39385107,-0.7348756,0.17578402,12.443880081176758,1.064719557762146,0.4525831937789917,31.166929244995117,-57.91072082519531, -38.40478515625
263,35244014,0.5119404,0.40383416,-0.73809046,0.17337283,11.465680122375488,0.6495760679244995,-0.7552742958068848,50.911808013916016,-89.18490600585938, -35.443031311035156
264,35260681,0.4953138,0.41583925,-0.7430204,0.17223015,11.685111999511719,3.5711801052093506,-2.3041906356811523,76.81565856933594,-120.51041412353516, -30.351028442382812
265,35277348,0.4769747,0.4266595,-0.7493754,0.16998254,12.025038719177246,5.9325947761535645,-3.8125534057617188,70.41046142578125,-135.9634552001953, -21.895992279052734
266,35294015,0.46039367,0.43489468,-0.75635344,0.16381277,12.070069313049316,6.4890546798706055,-3.8947458267211914,35.944950103759766,-137.49586486816406, -21.53859519958496
267,35310682,0.44579363,0.44133994,-0.7630721,0.15559207,11.055337905883789,4.545936107635498,-3.252869129180908,14.108695983886719,-130.57386779785156, -21.602994918823242
268,35327349,0.43288645,0.4478848,-0.768168,0.14807849,10.267194747924805,2.936659097671509,-0.12784308195114136,14.822285652160645,-114.7804946899414, -26.640169143676758
269,35344016,0.42595685,0.45323896,-0.7700459,0.14200501,10.097146034240723,1.78512442111969,5.249277114868164,3.8385300636291504,-68.18026733398438, -32.057777404785156
270,35360683,0.42556036,0.45731878,-0.76840895,0.13894679,7.648033142089844,1.4659852981567383,7.149685382843018,-0.765733540058136,-13.023770332336426, -33.841407775878906
271,35377350,0.43162888,0.4582938,-0.76468223,0.13756883,7.770869731903076,0.9429579973220825,5.509790420532227,-19.217985153198242,35.128963470458984, -25.28887176513672
272,35394017,0.44405964,0.45661408,-0.758628,0.13710904,7.962212562561035,2.0450901985168457,5.286909103393555,-40.060665130615234,80.57569885253906, -22.001333236694336
273,35410684,0.46220225,0.45105842,-0.7508976,0.13808952,7.99896764755249,0.14728538691997528,4.109324932098389,-60.67146301269531,123.3559341430664, -8.052299499511719
274,35427351,0.4846305,0.44325262,-0.7405397,0.14234358,8.501628875732422,0.26497676968574524,3.0457165241241455,-61.71847915649414,165.86138916015625, 1.6715091466903687
275,35444018,0.51113874,0.43235126,-0.7277088,0.14916475,8.942607879638672,0.42861780524253845,2.07670259475708,-68.99665832519531,205.51087951660156, 14.381507873535156
276,35460685,0.5408376,0.41796297,-0.7125775,0.15822656,9.654596328735352,0.7608015537261963,1.151803731918335,-77.20536804199219,239.61964416503906, 29.51936149597168
277,35477352,0.5731652,0.39940596,-0.6952683,0.1689948,10.715346336364746,1.0097981691360474,0.03872150182723999,-89.59636688232422,269.9041748046875, 47.09876251220703
278,35494019,0.606868,0.37675455,-0.67576414,0.18196261,12.012822151184082,0.9399006366729736,-0.8172213435173035,-96.53060913085938,295.8470764160156, 67.63719177246094
279,35510686,0.64080817,0.35093912,-0.6534979,0.19785723,13.462883949279785,1.1434210538864136,-1.496171474456787,-93.40400695800781,319.99017333984375, 87.01239013671875
280,35527353,0.6745443,0.3227599,-0.627805,0.21604979,14.954767227172852,2.6200385093688965,-1.9330978393554688,-88.46345520019531,342.9706726074219, 99.68729400634766
281,35544020,0.70777494,0.29185876,-0.5990436,0.23456387,16.261661529541016,3.775528907775879,-2.346698760986328,-94.15673828125,359.8782958984375, 106.83841705322266
282,35560687,0.7384604,0.25912154,-0.5691181,0.25226447,16.84779167175293,3.0444393157958984,-4.268935203552246,-99.60249328613281,356.5410461425781, 112.21102905273438
283,35577354,0.76112986,0.23489767,-0.5395629,0.27272087,16.277368545532227,3.1478304862976074,-7.3591742515563965,-32.06052017211914,313.6659240722656, 107.44709777832031
284,35594021,0.77881855,0.21464525,-0.51453424,0.28744355,13.018860816955566,8.320127487182617,-10.024626731872559,-33.12355422973633,255.19180297851562, 79.39080810546875
285,35610688,0.7910529,0.19734798,-0.4977188,0.29591435,8.291716575622559,4.2638468742370605,-14.398774147033691,-47.78732681274414,177.3501739501953, 58.578224182128906
286,35627355,0.7959572,0.19677489,-0.48554173,0.30328426,2.797791004180908,3.7576587200164795,-17.335058212280273,39.8114013671875,92.13392639160156, 16.68379020690918
287,35644022,0.7944878,0.21133134,-0.4798298,0.30641842,1.9019923210144043,5.10664701461792,-18.504919052124023,103.53993225097656,-1.163761854171753, -34.83177947998047
288,35660689,0.78831434,0.23116866,-0.48360446,0.30207416,4.355360984802246,7.916366100311279,-14.572941780090332,94.48001861572266,-89.84416961669922, -69.24185943603516
289,35677356,0.78401047,0.23240982,-0.4977683,0.28903374,12.315004348754883,2.966266393661499,11.759485244750977,-59.90811538696289,-114.594482421875, -41.66324234008789
290,35694023,0.78452647,0.21540329,-0.5124358,0.2748263,14.666369438171387,-8.96254825592041,20.525367736816406,-170.954833984375,-66.65434265136719, 5.786859035491943
291,35710690,0.7783696,0.21322942,-0.52723086,0.26589844,12.497220993041992,-3.4348578453063965,-2.74412202835083,-62.49190902709961,-111.54728698730469, -5.547544002532959
292,35727357,0.7738135,0.20580687,-0.5475281,0.24304305,18.160533905029297,0.18191690742969513,-2.537496566772461,-153.4342498779297,-145.78549194335938, -56.073368072509766
293,35744024,0.76440674,0.21440253,-0.56554884,0.22331327,18.48783302307129,9.432440757751465,-8.522969245910645,-45.74712371826172,-173.99124145507812, -94.89209747314453
294,35760691,0.761337,0.19833596,-0.58767235,0.18886642,11.900978088378906,-0.47723817825317383,-3.9173500537872314,-248.39141845703125,-154.32601928710938, -79.74246978759766
295,35777358,0.75545734,0.20431149,-0.59672046,0.17738695,8.221075057983398,-0.48333463072776794,-1.5099766254425049,-19.317176818847656,-94.29251098632812, -62.76564025878906
296,35794025,0.750528,0.21602088,-0.60048634,0.17163748,11.21323299407959,3.27297306060791,-1.3209450244903564,39.08316421508789,-61.794715881347656, -65.15444946289062
297,35810692,0.74682057,0.2278653,-0.6010224,0.17061315,10.136720657348633,4.018893241882324,-0.1697498857975006,61.25618362426758,-33.10408020019531, -47.5164909362793
298,35827359,0.7443851,0.2335944,-0.602201,0.16934784,10.134722709655762,3.5734760761260986,-0.11624683439731598,26.090259552001953,-24.281970977783203, -23.896638870239258
299,35844026,0.74362,0.23330204,-0.60405856,0.16647342,10.501595497131348,2.1554157733917236,0.6151720285415649,-14.879637718200684,-16.361181259155273, -7.995109558105469
300,35860693,0.7441406,0.22879073,-0.6063823,0.16189642,9.896364212036133,1.2370305061340332,0.9250268340110779,-46.11959457397461,-11.286519050598145, 0.11575111001729965
301,35877360,0.7445884,0.22665404,-0.60730106,0.15937982,10.03258991241455,0.5408106446266174,0.9158574342727661,-23.698556900024414,-3.799370050430298, -1.3810652494430542
302,35894027,0.745049,0.22854331,-0.60638183,0.15802377,9.869926452636719,0.6203069686889648,0.8054924607276917,3.75325608253479,3.0710227489471436, -15.167800903320312
303,35910694,0.74523383,0.23452708,-0.6037075,0.158624,9.362730979919434,1.1108263731002808,1.03092622756958,35.220062255859375,9.555119514465332, -24.720434188842773
304,35927361,0.7444843,0.24296245,-0.60029554,0.16235156,9.17829418182373,2.277592182159424,1.3552727699279785,63.06767272949219,11.839856147766113, -19.079803466796875
305,35944028,0.74293596,0.24990879,-0.59853923,0.16535686,8.890271186828613,3.2366068363189697,1.9288660287857056,51.945308685302734,0.5286962389945984, -12.975061416625977
306,35960695,0.7408518,0.25439057,-0.59902585,0.16610989,9.17538070678711,2.469785213470459,1.8279197216033936,28.45721435546875,-14.218127250671387, -9.840335845947266
307,35977362,0.7382925,0.2580152,-0.6008708,0.16524808,9.157686233520508,2.2507107257843018,1.7566673755645752,16.724506378173828,-24.95710563659668, -11.605195045471191
308,35994029,0.73524517,0.26120847,-0.60359555,0.16388254,8.907445907592773,3.1926639080047607,1.980857014656067,12.328374862670898,-31.86138916015625, -10.258699417114258
309,36010696,0.7321342,0.2629171,-0.60713273,0.16200124,8.937219619750977,2.974809169769287,1.4755287170410156,1.8914742469787598,-35.51595687866211, -5.135368824005127
310,36027363,0.7287527,0.2646211,-0.61086005,0.16045465,9.40340805053711,2.3706259727478027,1.18841552734375,3.552581548690796,-37.00975799560547, -2.7549283504486084
311,36044030,0.7251462,0.26685768,-0.6144989,0.15919057,9.559436798095703,1.8987700939178467,0.9127810001373291,7.925346851348877,-37.59425735473633, -3.480835437774658
312,36060697,0.7213734,0.26972026,-0.617991,0.15798481,9.5830717086792,1.9121280908584595,0.8552539348602295,11.768775939941406,-38.14564895629883, -5.931730270385742
313,36077364,0.717537,0.2727396,-0.62140834,0.1568623,9.648550033569336,2.048923969268799,0.7680586576461792,13.108624458312988,-38.06422805786133, -6.265043258666992
314,36094031,0.71365434,0.27574742,-0.6248516,0.15563352,9.592247009277344,2.0210745334625244,0.6484092473983765,12.666522026062012,-38.58134078979492, -6.648545265197754
315,36110698,0.709637,0.27854362,-0.62860185,0.15391232,9.824591636657715,1.3835350275039673,0.6494806408882141,9.448720932006836,-41.37940216064453, -7.436861038208008
316,36127365,0.70544344,0.28248668,-0.6320281,0.15195926,9.605278968811035,1.5715000629425049,0.4238276481628418,14.732991218566895,-42.22610855102539, -13.988571166992188
317,36144032,0.7009495,0.28747272,-0.63521624,0.15009968,9.514886856079102,1.9013310670852661,0.616749107837677,21.03733253479004,-43.289737701416016, -18.240598678588867
318,36160699,0.6960093,0.29341772,-0.6383148,0.1484313,9.52884578704834,2.0602097511291504,0.4775882959365845,27.47761344909668,-45.432254791259766, -21.240266799926758
319,36177366,0.6904659,0.2999066,-0.64169794,0.14675531,9.458415031433105,2.140727996826172,0.559643030166626,30.981969833374023,-50.02409362792969, -22.488290786743164
320,36194033,0.6840857,0.30749264,-0.6452732,0.14525132,9.537459373474121,1.9818229675292969,0.333312451839447,38.492156982421875,-55.39862060546875, -25.28590965270996
321,36210700,0.6771467,0.31628624,-0.64873415,0.14345679,9.323549270629883,2.5466701984405518,0.3947204351425171,44.18925476074219,-59.177940368652344, -31.71510887145996
322,36227367,0.66973037,0.32441014,-0.6530561,0.14049067,9.163202285766602,3.263883352279663,-0.004908360540866852,36.04768371582031,-67.22370910644531, -31.845928192138672
323,36244034,0.6622658,0.3317124,-0.65760154,0.13759169,9.465384483337402,3.2607927322387695,-0.5388676524162292,32.47271728515625,-67.54313659667969, -27.2866268157959
324,36260701,0.6547476,0.33851704,-0.66223425,0.13475233,9.345353126525879,2.944146156311035,-1.2426035404205322,30.529808044433594,-67.58273315429688, -24.5057315826416
325,36277368,0.64665365,0.34552574,-0.66697323,0.13265769,9.350678443908691,3.189087152481079,-1.6236411333084106,36.089908599853516,-69.13152313232422, -21.30219841003418
326,36294035,0.6378849,0.3527267,-0.6718664,0.13146283,9.73922061920166,3.07234263420105,-1.8554654121398926,42.54189682006836,-70.93623352050781, -17.19924545288086
327,36310702,0.6288322,0.3596478,-0.6767802,0.13112009,10.34499740600586,2.887115955352783,-1.6362894773483276,45.93021011352539,-70.00611877441406, -11.86963176727295
328,36327369,0.61938184,0.36700135,-0.6813901,0.13184923,10.807791709899902,2.8030757904052734,-1.4949387311935425,54.05664825439453,-68.2859878540039, -9.658989906311035
329,36344036,0.61020553,0.3738427,-0.68569964,0.13306917,11.477395057678223,2.9827303886413574,-0.9693603515625,53.76679992675781,-64.03746795654297, -6.201205253601074
330,36360703,0.6028022,0.3791319,-0.6889685,0.13495037,12.155755043029785,1.9601818323135376,-0.9618602991104126,46.78927230834961,-48.234886169433594, -0.43245163559913635
331,36377370,0.59601295,0.38412756,-0.6916453,0.13726565,12.296815872192383,1.760300874710083,-0.4226197600364685,46.5879020690918,-41.52585983276367, 0.5885430574417114
332,36394037,0.58931863,0.38933906,-0.6940911,0.13912873,12.190031051635742,1.155875563621521,0.25768715143203735,45.303489685058594,-41.60374450683594, -3.0501413345336914
333,36410704,0.58107084,0.3962032,-0.69693696,0.14021072,12.223342895507812,0.44519931077957153,0.4663792848587036,52.06282424926758,-54.41168212890625, -11.616748809814453
334,36427371,0.5706548,0.4051934,-0.7003039,0.14052154,12.374946594238281,-0.0420842245221138,0.9636426568031311,62.27580261230469,-71.1461410522461, -21.464269638061523
335,36444038,0.5578041,0.41624504,-0.70428133,0.13993846,12.55300235748291,-0.08348167687654495,0.9692855477333069,72.26289367675781,-89.88126373291016, -30.944503784179688
336,36460705,0.54511726,0.42883092,-0.7069184,0.13862899,13.074904441833496,1.9254021644592285,2.5798990726470947,75.45852661132812,-87.6466064453125, -45.251277923583984
337,36477372,0.5291853,0.44305247,-0.71073645,0.13609405,11.27509593963623,2.634732246398926,-0.9165441393852234,84.12433624267578,-113.21737670898438, -51.269588470458984
338,36494039,0.50929403,0.45786577,-0.71662974,0.13198729,12.570091247558594,4.747737884521484,-2.107156276702881,88.74580383300781,-145.5594940185547, -49.87329864501953
339,36510706,0.48898983,0.47032404,-0.7235601,0.12706469,14.311158180236816,4.248847961425781,-3.0245330333709717,76.88726043701172,-151.7491455078125, -37.46686553955078
340,36527373,0.46932125,0.4825165,-0.729672,0.120393015,14.302007675170898,5.915098667144775,-2.189065933227539,65.99177551269531,-151.36798095703125, -45.238121032714844
341,36544040,0.4534319,0.49244028,-0.73459095,0.11080935,12.505171775817871,4.83696174621582,-0.9228982925415039,32.591339111328125,-136.47817993164062, -50.320960998535156
342,36560707,0.44024915,0.5011431,-0.7379034,0.10264194,10.887842178344727,3.365199565887451,4.491450309753418,28.07857322692871,-112.22698211669922, -47.24005889892578
343,36577374,0.43608993,0.506443,-0.7373359,0.098374076,10.688239097595215,2.3261051177978516,9.800481796264648,9.31538200378418,-39.113407135009766, -37.93168640136719
344,36594041,0.4382861,0.50833005,-0.73434097,0.10124066,8.046828269958496,-1.0093945264816284,9.711647987365723,14.895718574523926,27.173294067382812, -12.029960632324219
345,36610708,0.4442044,0.51022243,-0.727941,0.11161482,8.177484512329102,1.00361168384552,7.473855495452881,42.246063232421875,82.14852142333984, -3.9885811805725098
346,36627375,0.45890287,0.5068775,-0.719396,0.122283205,7.6410064697265625,2.7584171295166016,7.0607147216796875,-1.3565133810043335,137.43527221679688, 8.848580360412598
347,36644042,0.480085,0.49803862,-0.70935863,0.13522881,7.68979024887085,0.9263898134231567,5.448968410491943,-28.680818557739258,186.5375518798828, 32.5803108215332
348,36660709,0.505274,0.48601398,-0.69659674,0.152453,8.300908088684082,0.44872361421585083,3.678926706314087,-29.490671157836914,232.49734497070312, 49.180931091308594
349,36677376,0.5340488,0.47072268,-0.6806174,0.17312568,9.201399803161621,1.0823936462402344,2.228527784347534,-32.94130325317383,275.65478515625, 62.29052734375
350,36694043,0.5660406,0.45146546,-0.6612122,0.1964078,10.864450454711914,1.6060281991958618,0.6194766759872437,-41.65636444091797,316.35736083984375, 75.52449798583984
351,36710710,0.59989995,0.42791718,-0.63876677,0.22132495,12.912656784057617,1.7904036045074463,-0.3938637971878052,-52.66740036010742,347.4949951171875, 89.4518814086914
352,36727377,0.63397515,0.4009577,-0.61304677,0.2479569,15.229920387268066,2.638688087463379,-1.1905577182769775,-54.930442810058594,372.1685485839844, 101.55098724365234
353,36744044,0.66859967,0.3702317,-0.58336335,0.27493757,17.653352737426758,4.799957275390625,-1.9719252586364746,-64.72593688964844,399.1836242675781, 107.10025024414062
354,36760711,0.7030649,0.33551815,-0.55115354,0.29892722,19.65804100036621,6.650909900665283,-3.1051712036132812,-89.98052978515625,410.1704406738281, 103.25650787353516
355,36777378,0.7351582,0.29836676,-0.5191057,0.31788293,19.52106285095215,5.523564338684082,-6.326481342315674,-115.824462890625,393.9271240234375, 93.46467590332031
356,36794045,0.757444,0.26897484,-0.49031934,0.33692497,16.6175537109375,4.346092700958252,-10.04466438293457,-63.38779830932617,325.8416442871094, 94.36176300048828
357,36810712,0.775388,0.241126,-0.46920595,0.34709984,10.290294647216797,9.346652030944824,-14.832559585571289,-95.11204528808594,251.61337280273438, 67.24333190917969
358,36827379,0.7866518,0.22094446,-0.45807436,0.35004404,3.455115795135498,3.904561758041382,-22.325149536132812,-90.45020294189453,146.98764038085938, 36.60287857055664
359,36844046,0.78867537,0.22477947,-0.4538525,0.348545,-0.28134068846702576,3.575192451477051,-25.130441665649414,22.778594970703125,16.516685485839844, -30.26998519897461
360,36860713,0.78846467,0.23961847,-0.45227906,0.34110206,2.953592300415039,7.741813659667969,-20.69403076171875,60.93601989746094,-39.79767990112305, -87.32059478759766
361,36877380,0.7835688,0.24014919,-0.46871123,0.32963416,10.94509220123291,-0.011633113026618958,5.36376428604126,-63.77264404296875,-124.5561752319336, -23.824228286743164
362,36894047,0.78274196,0.21842702,-0.48981866,0.31572586,20.56016731262207,-9.414552688598633,21.997093200683594,-208.83905029296875,-90.25209045410156, 33.234962463378906
363,36910714,0.77093744,0.23281693,-0.50578755,0.30924284,13.676941871643066,-5.749232769012451,-5.500147819519043,38.32398223876953,-167.09298706054688, -32.566200256347656
364,36927381,0.7652863,0.23466639,-0.5272321,0.2851235,17.989246368408203,6.975663661956787,-3.571505069732666,-110.9693603515625,-176.03501892089844, -86.9240493774414
365,36944048,0.75217384,0.25078717,-0.54888695,0.2646957,20.591175079345703,13.411386489868164,-12.586692810058594,-10.911847114562988,-225.99061584472656, -104.1205825805664
366,36960715,0.7525699,0.23143275,-0.5739617,0.22504641,12.201240539550781,1.7469654083251953,-4.500821113586426,-296.66082763671875,-160.8812255859375, -88.01982116699219
367,36977382,0.74702907,0.23451121,-0.5845066,0.2128489,7.173220634460449,-0.01919413171708584,-2.006930351257324,-40.22993469238281,-99.95629119873047, -48.337059020996094
368,36994049,0.74274594,0.24430886,-0.58834505,0.20613627,11.621984481811523,2.7347910404205322,-1.6132266521453857,24.098217010498047,-61.37283706665039, -59.8400993347168
369,37010716,0.73824877,0.25598073,-0.5893144,0.20535721,9.646550178527832,4.94905424118042,-0.2797727584838867,62.07292938232422,-40.1867561340332, -41.621063232421875
370,37027383,0.73575914,0.25833264,-0.5919093,0.20387895,11.02245807647705,2.356998920440674,-0.27451515197753906,6.09016227722168,-28.330875396728516, -7.308274269104004
371,37044050,0.7343092,0.26002932,-0.59330595,0.2028874,10.792671203613281,2.0222959518432617,-0.03371403366327286,4.581508636474609,-16.21509552001953, -5.755538463592529
372,37060717,0.7347101,0.25752684,-0.59463054,0.20073868,9.950298309326172,2.028083324432373,0.3210562467575073,-24.552772521972656,-4.485561847686768, 2.8270528316497803
373,37077384,0.7367039,0.2528296,-0.59528714,0.19742945,9.845582962036133,0.8800775408744812,0.40692877769470215,-42.2866096496582,6.385575771331787, 2.573023557662964
374,37094051,0.738789,0.24848932,-0.59549284,0.19450562,9.712132453918457,0.9860583543777466,1.6437020301818848,-38.45258331298828,9.235664367675781, 2.147963047027588
375,37110718,0.73932177,0.24790972,-0.59534097,0.19368467,9.300796508789062,0.5127514004707336,2.2464160919189453,-7.608575344085693,3.2406413555145264, -1.1136149168014526
376,37127385,0.73841196,0.25239098,-0.5943966,0.19426723,8.834131240844727,0.9045620560646057,2.555978775024414,27.380897521972656,-3.010207176208496, -14.15543270111084
377,37144052,0.73598534,0.2595874,-0.59377486,0.19588682,8.850642204284668,1.442662000656128,2.536414623260498,47.6102180480957,-12.705007553100586, -17.42978858947754
378,37160719,0.7328165,0.26633433,-0.5944728,0.1965919,9.195727348327637,1.6245248317718506,2.0774359703063965,41.15668487548828,-23.469738006591797, -16.885026931762695
379,37177386,0.72929657,0.27149555,-0.5968861,0.19530547,9.16020393371582,1.950896978378296,2.0507161617279053,23.35853385925293,-35.07200241088867, -16.83384895324707
380,37194053,0.72534484,0.27517867,-0.6010047,0.19221173,9.174016952514648,1.8651317358016968,1.9820973873138428,7.05672550201416,-46.80931091308594, -16.065963745117188
381,37210720,0.72072136,0.27805638,-0.60646313,0.18827698,9.34115982055664,1.4832063913345337,1.990555763244629,-0.9220170378684998,-56.822879791259766, -13.506891250610352
382,37227387,0.71522766,0.28234398,-0.6122244,0.18415461,9.213597297668457,1.5820879936218262,1.7016572952270508,6.568909645080566,-64.16792297363281, -18.617422103881836
383,37244054,0.7090206,0.2884685,-0.6177647,0.18011945,9.450167655944824,1.7377060651779175,1.2128535509109497,17.647722244262695,-68.26744079589844, -25.45458221435547
384,37260721,0.7024707,0.29627067,-0.6227485,0.175907,9.713608741760254,1.821182370185852,0.530189037322998,26.45189094543457,-69.45942687988281, -34.13298034667969
385,37277388,0.6957634,0.30477032,-0.6274567,0.17125115,9.852802276611328,1.7527642250061035,0.013353466987609863,28.579936981201172,-70.55594635009766, -39.644004821777344
386,37294055,0.6887866,0.31371638,-0.6321492,0.16596057,9.626782417297363,2.114313840866089,0.04382900893688202,28.55924415588379,-73.49945068359375, -44.33883285522461
387,37310722,0.68130255,0.3223679,-0.63744694,0.15989795,9.641977310180664,2.251075267791748,0.03315327316522598,24.21660804748535,-79.9051284790039, -44.84019088745117
388,37327389,0.67315185,0.3312098,-0.64304864,0.1538039,9.66405963897705,2.0819427967071533,-0.6510748267173767,26.117910385131836,-84.54243469238281, -44.42344665527344
389,37344056,0.66454303,0.34082988,-0.6481657,0.1486591,9.515960693359375,2.4317877292633057,-1.072117805480957,35.47179412841797,-82.9872817993164, -44.10621643066406
390,37360723,0.6555377,0.35100475,-0.6527961,0.14465019,9.322771072387695,2.8469886779785156,-1.61752450466156,44.49504852294922,-80.43189239501953, -42.13740921020508
391,37377390,0.6465486,0.36092064,-0.6571864,0.14077531,9.267599105834961,3.665074110031128,-1.811200737953186,44.12717819213867,-78.6842269897461, -40.97350311279297
392,37394057,0.6380125,0.37006924,-0.6610779,0.13771369,9.434017181396484,3.300568103790283,-2.1029298305511475,43.752315521240234,-71.6484146118164, -35.55952453613281
393,37410724,0.6300556,0.37878785,-0.6640987,0.13609909,9.60093879699707,3.50252103805542,-2.17264723777771,47.793296813964844,-61.09663772583008, -30.025686264038086
394,37427391,0.6227456,0.38627034,-0.6668662,0.13517787,9.428130149841309,3.5792524814605713,-2.1969003677368164,44.15915298461914,-54.07554244995117, -22.64693832397461
395,37444058,0.6158013,0.39248872,-0.66981196,0.13451232,9.424158096313477,3.7182071208953857,-2.0040600299835205,38.786720275878906,-51.304046630859375, -15.624601364135742
396,37460725,0.6094124,0.39736307,-0.6728813,0.13397911,9.78829574584961,3.3722729682922363,-2.0103204250335693,32.10378646850586,-47.67442321777344, -9.053877830505371
397,37477392,0.602915,0.4019125,-0.6760384,0.13391225,9.774399757385254,3.1897432804107666,-1.9311704635620117,33.1252326965332,-46.98024368286133, -5.26578950881958
398,37494059,0.59625673,0.40614176,-0.679318,0.13436629,10.08961009979248,3.0180487632751465,-1.8786104917526245,34.562984466552734,-46.51725769042969, -1.144055962562561
399,37510726,0.58961004,0.40990412,-0.6826241,0.1355124,10.719816207885742,2.8483548164367676,-1.764053225517273,35.836769104003906,-44.229000091552734, 3.919280767440796
400,37527393,0.58341867,0.41307068,-0.68567103,0.13729818,11.087137222290039,2.683068037033081,-1.6501257419586182,35.394901275634766,-38.713375091552734, 8.128890991210938
401,37544060,0.5773377,0.4161122,-0.6885588,0.13935246,11.195805549621582,2.260572671890259,-1.430347204208374,36.009735107421875,-36.71190643310547, 9.210037231445312
402,37560727,0.5712302,0.41934106,-0.69128776,0.14131884,11.558207511901855,1.7810379266738892,-1.0268158912658691,36.576515197753906,-36.68348693847656, 7.509223461151123
403,37577394,0.5643325,0.42310816,-0.69432515,0.14290343,12.06696605682373,1.2306872606277466,-0.6237993240356445,38.8654899597168,-43.333980560302734, 5.062955379486084
404,37594061,0.5555213,0.4283726,-0.6979777,0.14394721,12.594743728637695,1.1099786758422852,0.34559452533721924,47.06427764892578,-57.973915100097656, -0.5704444646835327
405,37610728,0.5453609,0.4358608,-0.701338,0.14398673,13.126213073730469,1.5274443626403809,2.2483198642730713,55.01603698730469,-68.59049987792969, -14.665179252624512
406,37627395,0.5345365,0.4461396,-0.7032193,0.14391989,13.025513648986816,1.8446099758148193,3.1530838012695312,68.45433807373047,-69.47111511230469, -32.3515510559082
407,37644062,0.52015364,0.46050522,-0.70478666,0.14370637,12.499085426330566,1.725237250328064,2.0275092124938965,94.0380630493164,-90.1801528930664, -50.144596099853516
408,37660729,0.5023496,0.47778636,-0.70584166,0.1454407,12.73164176940918,3.902705192565918,-2.1692750453948975,125.28258514404297,-101.78402709960938, -55.59745407104492
409,37677396,0.4803691,0.49427557,-0.710336,0.1426895,12.573577880859375,4.300510883331299,-3.157195568084717,111.09302520751953,-147.9559326171875, -51.782310485839844
410,37694063,0.45767525,0.5092119,-0.71601546,0.13623118,15.491568565368652,6.827612400054932,-1.6398929357528687,89.15365600585938,-166.4950714111328, -51.718711853027344
411,37710730,0.4392023,0.52023065,-0.7214969,0.12611134,14.148608207702637,3.9840357303619385,-0.9144184589385986,44.29043197631836,-154.36526489257812, -48.589569091796875
412,37727397,0.4221391,0.5311362,-0.7249379,0.11898853,11.862528800964355,2.602524518966675,1.1417372226715088,55.59822463989258,-130.52874755859375, -47.5255012512207
413,37744064,0.41065052,0.5409278,-0.7248493,0.11557311,11.325018882751465,3.475003719329834,8.028432846069336,53.42393493652344,-78.19483184814453, -48.69672393798828
414,37760731,0.41153908,0.5439922,-0.72278494,0.11086241,10.105013847351074,2.7333717346191406,11.485274314880371,-16.371580123901367,-10.6504487991333, -36.04069519042969
415,37777398,0.41592848,0.5451041,-0.71855253,0.11639584,7.866852760314941,-2.5641891956329346,7.665618896484375,17.696001052856445,52.40461349487305, -8.164060592651367
416,37794065,0.42449102,0.5463132,-0.7104795,0.1287185,8.345712661743164,3.104968786239624,7.2707695960998535,38.9636116027832,109.17544555664062, -7.024654388427734
417,37810732,0.4441459,0.54028577,-0.7009646,0.13955206,7.606855869293213,2.796722173690796,6.059664249420166,-29.726335525512695,168.19737243652344, 8.75825023651123
418,37827399,0.46932483,0.52957386,-0.68979824,0.15318152,9.960310935974121,1.3112719058990479,4.126873016357422,-49.42145538330078,214.59954833984375, 28.44870948791504
419,37844066,0.49902713,0.51519847,-0.6757692,0.16993836,7.97977876663208,0.6716893911361694,2.751016139984131,-59.843814849853516,260.40582275390625, 40.71595001220703
420,37860733,0.5310499,0.498021,-0.65837795,0.19104943,9.738896369934082,1.1558908224105835,1.1325998306274414,-53.511871337890625,301.3484802246094, 54.053741455078125
421,37877400,0.5655807,0.47650835,-0.63789284,0.21482898,11.708922386169434,1.5171478986740112,-0.33739739656448364,-61.814388275146484,338.7833557128906, 69.5491714477539
422,37894067,0.6018725,0.45053613,-0.6136965,0.24112982,14.081724166870117,1.9925898313522339,-1.3448810577392578,-68.41680908203125,375.7838439941406, 84.16645050048828
423,37910734,0.63898206,0.42001468,-0.5855801,0.26904625,16.909151077270508,3.741612195968628,-2.4222195148468018,-76.52176666259766,408.0321350097656, 96.5668716430664
424,37927401,0.6771692,0.38371956,-0.55414087,0.2951769,19.492298126220703,5.897408962249756,-3.613494396209717,-106.12435913085938,432.56866455078125, 100.4047622680664
425,37944068,0.7136353,0.34176442,-0.5226077,0.31749523,21.30202865600586,4.606318950653076,-6.483585357666016,-142.36302185058594,427.9712219238281, 107.50843048095703
426,37960735,0.73923755,0.30815524,-0.49173388,0.34171107,19.83580207824707,3.3364598751068115,-10.637018203735352,-70.54485321044922,372.0106201171875, 112.08634185791016
427,37977402,0.76024026,0.2772789,-0.46676633,0.35676435,14.9122314453125,12.0837984085083,-13.583342552185059,-91.86279296875,300.8239440917969, 79.56934356689453
428,37994069,0.77736634,0.2440764,-0.4526619,0.36225116,6.699108123779297,5.825161457061768,-20.662809371948242,-154.11595153808594,219.36851501464844, 67.41011810302734
429,38010736,0.78366613,0.2333635,-0.44618514,0.36376944,0.3367370665073395,3.281219959259033,-25.17707061767578,-47.16984176635742,82.59149169921875, 16.02219581604004
430,38027403,0.7867635,0.24082656,-0.44151166,0.3578741,1.2073551416397095,5.478917121887207,-26.06916618347168,28.546472549438477,6.123085975646973, -68.7525405883789
431,38044070,0.78270906,0.25157946,-0.44971204,0.34904733,2.3840739727020264,2.694737195968628,-13.931159973144531,17.501615524291992,-97.73624420166016, -55.610042572021484
432,38060737,0.78338796,0.22803296,-0.47146252,0.33470586,28.40047836303711,-6.4991865158081055,30.130090713500977,-224.935302734375,-83.02175903320312, 32.90279769897461
433,38077404,0.77091485,0.24550714,-0.4819981,0.33629566,11.882452011108398,-13.245259284973145,-6.011324882507324,94.22425079345703,-134.92959594726562, -1.7220549583435059
434,38094071,0.7661771,0.253499,-0.49838042,0.31674603,17.680105209350586,10.301833152770996,-1.1503183841705322,-52.67779541015625,-153.85226440429688, -90.64524841308594
435,38110738,0.75312406,0.2744929,-0.5163167,0.30145562,20.866140365600586,12.46573543548584,-11.870674133300781,41.461997985839844,-211.30506896972656, -91.77615356445312
436,38127405,0.7523752,0.2647534,-0.5417227,0.26528102,14.67546558380127,2.6596779823303223,-4.29158878326416,-230.70904541015625,-181.72421264648438, -102.01356506347656
437,38144072,0.74918103,0.26766786,-0.55240124,0.24886739,5.946555137634277,-0.2490876019001007,-1.9232656955718994,-60.32253646850586,-101.5816650390625, -69.1757583618164
438,38160739,0.743084,0.2806942,-0.5573102,0.24174882,11.878562927246094,2.498917579650879,-0.5943710803985596,42.25794982910156,-83.03846740722656, -65.36382293701172
439,38177406,0.7383364,0.2956689,-0.5567339,0.23976432,9.400790214538574,4.3372087478637695,-0.1878436654806137,78.36608123779297,-43.122154235839844, -59.4321403503418
440,38194073,0.734039,0.30490622,-0.5576533,0.23925373,9.986221313476562,4.27895975112915,0.33984529972076416,51.480690002441406,-36.5053825378418, -27.658645629882812
441,38210740,0.7302165,0.31078875,-0.5592057,0.2397581,10.547358512878418,1.9696601629257202,-0.042990051209926605,36.397064208984375,-30.210206985473633, -9.098127365112305
442,38227407,0.7273488,0.31465736,-0.5605912,0.24019289,10.204599380493164,2.9942073822021484,0.5723500847816467,24.2431583404541,-22.503620147705078, -3.648017644882202
443,38244074,0.72556293,0.3157437,-0.56224024,0.24031372,9.544232368469238,2.392273187637329,0.9847291111946106,6.341755390167236,-15.724329948425293, 4.300267696380615
444,38260741,0.724381,0.31624067,-0.5631726,0.24104165,9.120756149291992,2.7392287254333496,1.3783490657806396,5.62421178817749,-7.521671772003174, 7.058100700378418
445,38277408,0.72334087,0.31591138,-0.56421566,0.24215508,8.746729850769043,2.883129358291626,2.3317413330078125,2.5180695056915283,-5.323730945587158, 12.195552825927734
446,38294075,0.7220222,0.31604287,-0.56537586,0.24321125,8.790287971496582,2.1974122524261475,2.5303661823272705,5.01341438293457,-7.901882648468018, 10.858980178833008
447,38310742,0.72037023,0.317485,-0.5665016,0.24361122,8.815094947814941,2.141525983810425,2.439405679702759,9.764652252197266,-12.671831130981445, 2.9935317039489746
448,38327409,0.7181562,0.31920284,-0.5682888,0.24374065,9.111785888671875,1.9089305400848389,2.9552223682403564,10.210346221923828,-19.216367721557617, 2.968702554702759
449,38344076,0.715198,0.32071057,-0.5714708,0.24301897,9.44802188873291,1.6571786403656006,1.9018709659576416,5.1601762771606445,-30.56185531616211, 3.8951096534729004
450,38360743,0.71187586,0.3209279,-0.5766177,0.24031349,9.471269607543945,1.7436031103134155,1.4843223094940186,-11.449204444885254,-43.8911018371582, 4.149242877960205
451,38377410,0.7080922,0.32125494,-0.5826631,0.23644187,9.813995361328125,1.0626683235168457,0.8185145258903503,-15.990615844726562,-52.8880615234375, 0.7558836340904236
452,38394077,0.70374334,0.3229525,-0.5887245,0.23205802,10.023988723754883,0.704853355884552,0.8326160907745361,-10.14549732208252,-58.595455169677734, -6.282656669616699
453,38410744,0.69863987,0.32730165,-0.59404653,0.22778311,9.749345779418945,0.9052814841270447,0.5671313405036926,5.981415271759033,-62.06889343261719, -16.94478988647461
454,38427411,0.69317895,0.33324274,-0.59891266,0.2230612,9.688876152038574,1.157313346862793,0.7609789371490479,13.31729793548584,-64.84536743164062, -26.077457427978516
455,38444078,0.6870783,0.3406246,-0.6036563,0.21793987,9.434959411621094,2.3705291748046875,0.5148869156837463,20.192119598388672,-70.03387451171875, -33.228172302246094
456,38460745,0.68088675,0.34703156,-0.6089837,0.2123714,9.529560089111328,2.397352933883667,0.377885103225708,13.071882247924805,-72.76698303222656, -29.78542137145996
457,38477412,0.67416626,0.3534331,-0.61471075,0.20667855,9.44132137298584,2.2840073108673096,-0.3574365973472595,13.209450721740723,-77.1529769897461, -28.614051818847656
458,38494079,0.6672733,0.3596967,-0.6204139,0.20112601,9.327086448669434,2.6772234439849854,-0.6230531334877014,13.616354942321777,-77.2387924194336, -27.190988540649414
459,38510746,0.660259,0.36545894,-0.62613666,0.19608961,9.284329414367676,2.7679483890533447,-0.9289162755012512,13.795282363891602,-75.87850952148438, -22.460737228393555
460,38527413,0.65313417,0.37106845,-0.631585,0.19189745,9.186802864074707,2.7873501777648926,-1.0710021257400513,17.387422561645508,-72.7822494506836, -18.50408935546875
461,38544080,0.6459516,0.3765651,-0.6367414,0.1884305,9.11312198638916,2.9753615856170654,-1.2083772420883179,20.568517684936523,-69.72296142578125, -15.42038631439209
462,38560747,0.6389387,0.38125452,-0.64192575,0.18529427,9.300725936889648,2.9374213218688965,-1.3561688661575317,17.963274002075195,-67.20345306396484, -10.557855606079102
463,38577414,0.6323465,0.38523972,-0.6468749,0.1824329,9.512103080749512,2.416428327560425,-1.5803788900375366,15.287300109863281,-62.69761276245117, -7.389604091644287
464,38594081,0.62629575,0.38908586,-0.6512988,0.17937718,9.554057121276855,2.0677099227905273,-1.6779621839523315,13.045570373535156,-58.34935760498047, -9.689794540405273
465,38610748,0.61951244,0.39418733,-0.65532506,0.17711675,9.652304649353027,2.2699458599090576,-1.715519666671753,24.462181091308594,-59.343196868896484, -12.057538986206055
466,38627415,0.6121405,0.39969096,-0.65933067,0.17554156,9.935005187988281,2.4325945377349854,-1.6749359369277954,30.885173797607422,-60.54649353027344, -10.300409317016602
467,38644082,0.60476875,0.4056367,-0.66265553,0.17493385,10.21006965637207,2.290515422821045,-1.7355066537857056,37.95761489868164,-55.56425857543945, -10.116104125976562
468,38660749,0.5965411,0.41234696,-0.66600937,0.17475928,10.282586097717285,2.740356922149658,-1.5282281637191772,45.466121673583984,-59.30731964111328, -10.705196380615234
469,38677416,0.5877255,0.41882184,-0.66986275,0.17450292,10.902229309082031,2.357945442199707,-1.503961443901062,45.20351791381836,-64.01548767089844, -7.851794242858887
470,38694083,0.5786732,0.42477444,-0.67415774,0.17382738,11.155424118041992,1.8192890882492065,-1.4960094690322876,41.32440185546875,-67.4952163696289, -5.603606700897217
471,38710750,0.5703051,0.42968193,-0.67848843,0.17256749,11.47249984741211,1.5728578567504883,-1.7450206279754639,32.421485900878906,-64.95256805419922, -3.8237268924713135
472,38727417,0.56271327,0.4337611,-0.6825195,0.17138498,11.67598819732666,1.4785808324813843,-1.5755051374435425,27.59943389892578,-58.977542877197266, -1.490527629852295
473,38744084,0.5555023,0.43719536,-0.6866262,0.16977116,11.894402503967285,1.4213095903396606,-0.8883951902389526,21.85907554626465,-58.048316955566406, -0.3852842152118683
474,38760751,0.5480471,0.4405444,-0.69107103,0.16729024,12.323182106018066,1.5756418704986572,-0.07968585193157196,17.78845977783203,-63.0529670715332, -2.0236127376556396
475,38777418,0.5398762,0.44488636,-0.69552666,0.16386805,12.97288990020752,1.4410724639892578,0.9610506296157837,19.230348587036133,-70.55602264404297, -9.46280574798584
476,38794085,0.5306194,0.45222372,-0.6987807,0.16013335,13.757136344909668,0.9270473122596741,2.22127366065979,33.551151275634766,-75.71265411376953, -27.43514060974121
477,38810752,0.51846653,0.4643911,-0.7005853,0.1572066,14.464881896972656,0.7469515800476074,2.872342109680176,65.68070220947266,-87.26045227050781, -49.06458282470703
478,38827419,0.50343,0.4803427,-0.70128745,0.15500186,13.08079719543457,1.7014776468276978,2.2050528526306152,93.07515716552734,-99.14293670654297, -65.18171691894531
479,38844086,0.48509616,0.49680212,-0.70284486,0.15452878,13.51134967803955,2.678908586502075,-3.3558242321014404,113.19900512695312,-112.94578552246094, -55.33949279785156
480,38860753,0.4608934,0.51314986,-0.7074402,0.154219,13.86940860748291,4.433449745178223,-3.838284969329834,130.4484405517578,-150.8283233642578, -37.66498565673828
481,38877420,0.4387291,0.52509975,-0.7141045,0.14779136,14.607073783874512,7.056744575500488,-2.69869065284729,77.3911361694336,-164.44683837890625, -30.526256561279297
482,38894087,0.4227159,0.53236485,-0.7205955,0.13653356,13.389434814453125,4.425366401672363,-1.3029062747955322,17.588417053222656,-146.47755432128906, -28.96218490600586
483,38910754,0.4101429,0.53836423,-0.72507614,0.1273251,10.80329704284668,3.2139434814453125,2.4441394805908203,13.41305923461914,-114.9968490600586, -27.33875846862793
484,38927421,0.40499815,0.54276466,-0.7256304,0.1218356,10.303679466247559,3.957674741744995,8.901718139648438,3.4494025707244873,-51.845340728759766, -29.945878982543945
485,38944088,0.4122433,0.5396759,-0.7249385,0.115194924,9.163763046264648,1.1160396337509155,10.376298904418945,-68.2264633178711,15.231571197509766, -10.853572845458984
486,38960755,0.42023137,0.5376108,-0.7207899,0.12182941,6.496644020080566,-1.7072817087173462,6.85893440246582,0.9054727554321289,76.99015808105469, 8.202569007873535
487,38977422,0.43459678,0.5336239,-0.7134044,0.13200612,7.410833358764648,4.585942268371582,6.925715446472168,-7.930777072906494,132.52711486816406, 10.610666275024414
488,38994089,0.4597053,0.5218568,-0.70457566,0.14110357,7.155075550079346,2.37540340423584,5.4189934730529785,-74.47486877441406,192.5286407470703, 30.50632667541504
489,39010756,0.48833263,0.5065799,-0.69349486,0.15483296,9.016739845275879,1.0322738885879517,3.217855453491211,-73.51480102539062,236.6291961669922, 50.655601501464844
490,39027423,0.5194907,0.48884994,-0.67908645,0.17319703,7.795097827911377,0.925025999546051,1.8314175605773926,-64.89037322998047,278.5561828613281, 63.61867904663086
491,39044090,0.552664,0.46811318,-0.66093516,0.19646251,9.748283386230469,1.4885653257369995,0.3145560622215271,-55.054264068603516,321.3611145019531, 80.20458221435547
492,39060757,0.5872609,0.4443748,-0.6385505,0.22340389,12.019538879394531,2.126798629760742,-1.3084356784820557,-48.61809158325195,359.7981262207031, 92.2965316772461
493,39077424,0.62304336,0.41743365,-0.61143386,0.25241876,14.493513107299805,3.3772048950195312,-2.444627523422241,-48.82081604003906,395.3907470703125, 98.49503326416016
494,39094091,0.65966,0.38652873,-0.58016837,0.28080124,17.053564071655273,6.032605171203613,-3.3054022789001465,-63.69053268432617,421.7851257324219, 99.14797973632812
495,39110758,0.69645774,0.35030383,-0.5463403,0.30618078,20.133853912353516,8.262518882751465,-4.536004066467285,-95.38438415527344,436.4972229003906, 99.67221069335938
496,39127425,0.72773343,0.31216922,-0.51427853,0.32935148,20.954879760742188,1.7364044189453125,-9.821988105773926,-103.30343627929688,406.0311584472656, 112.24444580078125
497,39144092,0.7486801,0.28821346,-0.48198977,0.35227484,18.3259220123291,7.802802085876465,-12.154096603393555,-10.604316711425781,338.0851745605469, 83.72909545898438
498,39160759,0.7663906,0.2607995,-0.46090302,0.36359027,11.902695655822754,9.197981834411621,-16.738981246948242,-87.71949005126953,255.24993896484375, 65.53927612304688
499,39177426,0.77825034,0.23896585,-0.45020062,0.36679918,4.108280181884766,6.07744026184082,-21.013513565063477,-99.576171875,153.74398803710938, 38.47230529785156
500,39194093,0.78139293,0.23620921,-0.44691432,0.3659215,1.1724525690078735,0.882014811038971,-23.58650779724121,-14.622153282165527,32.533077239990234, -8.22409725189209
501,39210760,0.7786425,0.25347835,-0.44756472,0.35937536,2.3601458072662354,5.866463661193848,-20.51241683959961,75.11741638183594,-66.00611114501953, -79.02839660644531
502,39227427,0.7799811,0.25602108,-0.4549983,0.34505054,7.702901840209961,4.325662612915039,-2.8305606842041016,-51.64746856689453,-66.63785552978516, -73.57979583740234
503,39244094,0.77958125,0.24268885,-0.47326583,0.33071926,20.320384979248047,-7.039434432983398,23.67634391784668,-159.48721313476562,-92.46543884277344, -0.6898967623710632
504,39260761,0.77701735,0.23791505,-0.48374176,0.32501557,11.688162803649902,-10.305289268493652,3.213083505630493,-64.12042999267578,-62.98530578613281, 9.522773742675781
505,39277428,0.7712456,0.24049284,-0.50050575,0.3111883,17.72325897216797,1.3159794807434082,-3.7419910430908203,-60.67481994628906,-136.9464569091797, -41.04279327392578
506,39294095,0.7655773,0.2468301,-0.5168721,0.29293346,16.148574829101562,6.760744571685791,-2.656355381011963,-55.359825134277344,-149.71127319335938, -78.34014892578125
507,39310762,0.75989294,0.24810901,-0.53868043,0.26613602,16.108125686645508,8.591605186462402,-7.071228981018066,-123.34754943847656,-182.64244079589844, -95.97309875488281
508,39327429,0.75716454,0.24303783,-0.5568488,0.23990469,11.240303993225098,1.236972451210022,-3.0842068195343018,-152.87796020507812,-139.94256591796875, -80.97187042236328
509,39344096,0.75299466,0.2472959,-0.56614643,0.2265447,9.580692291259766,0.9494423270225525,-1.4345703125,-38.015098571777344,-93.0836181640625, -62.0921630859375
510,39360763,0.7491466,0.25533757,-0.5705904,0.21911013,10.852131843566895,2.42875075340271,-0.5732128024101257,11.621430397033691,-62.4827766418457, -54.89257049560547
511,39377430,0.74612194,0.2654252,-0.5708073,0.21686646,9.986295700073242,2.9235587120056152,-0.13461124897003174,47.41855239868164,-31.418426513671875, -44.837581634521484
512,39394097,0.74402404,0.27171555,-0.57070625,0.21654919,10.52851390838623,2.2947096824645996,0.19920089840888977,34.264102935791016,-16.9505615234375, -22.00672149658203
513,39410764,0.7423984,0.27766386,-0.5694873,0.2177892,10.879194259643555,1.7766289710998535,0.18581432104110718,39.391719818115234,-5.940711498260498, -15.49484634399414
514,39427431,0.7419841,0.28085375,-0.5684708,0.2177661,10.448511123657227,2.567209005355835,0.5906020402908325,17.733243942260742,-0.49287882447242737, -12.582939147949219
515,39444098,0.7423348,0.2816482,-0.5678576,0.21714386,9.861860275268555,1.4449529647827148,0.8521464467048645,1.0806574821472168,2.8787460327148438, -6.640476703643799
516,39460765,0.74246264,0.2827193,-0.567141,0.21718784,9.478087425231934,1.700976014137268,1.7681652307510376,5.670377254486084,3.4192636013031006, -4.198652267456055
517,39477432,0.74194247,0.28448674,-0.5666079,0.21804734,8.69201374053955,2.28759503364563,3.0466015338897705,13.390898704528809,0.4951642155647278, -1.432877779006958
518,39494099,0.74072874,0.28864765,-0.5652301,0.2202698,8.533575057983398,1.3221408128738403,3.5801870822906494,33.546836853027344,1.1561170816421509, -4.415109634399414
519,39510766,0.7384646,0.29741177,-0.561783,0.22498101,8.528060913085938,1.2079493999481201,3.207180976867676,71.89556884765625,5.553494930267334, -12.16542911529541
520,39527433,0.7354374,0.30726933,-0.55812085,0.2306929,8.544431686401367,2.168148994445801,3.5436668395996094,83.21577453613281,4.03082799911499, -10.595301628112793
521,39544100,0.7320442,0.31544995,-0.55650413,0.23432066,9.113012313842773,2.052468776702881,2.6606314182281494,64.28353118896484,-9.484373092651367, -9.809327125549316
522,39560767,0.72871274,0.3218797,-0.5569415,0.23492064,9.546745300292969,1.9090925455093384,2.7201335430145264,40.45199203491211,-23.349117279052734, -14.003373146057129
523,39577434,0.7246766,0.32858184,-0.5586966,0.23395799,9.638335227966309,1.644641399383545,1.3530207872390747,35.27170944213867,-36.566375732421875, -18.82954978942871
524,39594101,0.7202467,0.33506328,-0.561451,0.23184195,9.388551712036133,2.346060276031494,1.8452342748641968,29.02010154724121,-45.31329345703125, -20.849315643310547
525,39610768,0.7150997,0.34261122,-0.5644586,0.22942764,9.04114055633545,3.068305492401123,1.2648764848709106,34.40284729003906,-51.734615325927734, -24.717527389526367
526,39627435,0.70992666,0.34933627,-0.5681487,0.22622067,8.710533142089844,4.196833610534668,1.296899676322937,26.270526885986328,-55.76712417602539, -23.762100219726562
527,39644102,0.7047224,0.35411078,-0.57340705,0.22175844,9.15194320678711,3.449260950088501,0.6189640760421753,9.49689769744873,-63.53364944458008, -18.42597770690918
528,39660769,0.69897014,0.35810944,-0.57973653,0.2170354,9.514960289001465,2.5498151779174805,0.4009764790534973,4.418148994445801,-70.33955383300781, -13.168609619140625
529,39677436,0.6925206,0.36205536,-0.5866342,0.21258344,9.289814949035645,3.041966438293457,0.058464087545871735,6.117671966552734,-75.10676574707031, -9.210294723510742
530,39694103,0.6859757,0.36525732,-0.5936918,0.20869796,9.117820739746094,3.459318161010742,-0.04067652300000191,4.870662689208984,-73.7566146850586, -2.9623963832855225
531,39710770,0.6796537,0.36746308,-0.60089195,0.20486884,9.306561470031738,3.061925172805786,-0.2168581187725067,-0.3500167429447174,-71.94792175292969, 1.4258145093917847
532,39727437,0.6734185,0.3694572,-0.60791755,0.20111053,9.53272533416748,2.337759256362915,-0.504014253616333,-1.0106689929962158,-70.29812622070312, 2.0809719562530518
533,39744104,0.6671649,0.3719982,-0.61443514,0.19742897,9.722559928894043,1.9210941791534424,-0.6215315461158752,2.595268964767456,-68.58580017089844, -1.1128132343292236
534,39760771,0.66071504,0.3756747,-0.6202785,0.19385365,9.71756649017334,1.9421621561050415,-0.718477725982666,9.670087814331055,-67.59568786621094, -6.885128021240234
535,39777438,0.65384144,0.38044074,-0.625675,0.19049259,9.565452575683594,2.330634832382202,-0.5751525163650513,17.222768783569336,-68.27543640136719, -11.15426254272461
536,39794105,0.64630646,0.38596222,-0.63108176,0.18723679,9.329090118408203,2.9154233932495117,-0.4987291693687439,22.791948318481445,-71.88824462890625, -13.040488243103027
537,39810772,0.6379642,0.39196885,-0.6367902,0.18401296,9.313457489013672,2.9496448040008545,-0.5427704453468323,26.852561950683594,-77.27980041503906, -13.160173416137695
538,39827439,0.62887794,0.39862612,-0.6426174,0.18070228,9.407448768615723,2.621746063232422,-0.9457807540893555,31.194448471069336,-82.12557983398438, -15.12592887878418
539,39844106,0.61916226,0.40588492,-0.6484378,0.17727008,9.823945045471191,2.3660690784454346,-1.2727105617523193,35.00139236450195,-85.96696472167969, -17.5482177734375
540,39860773,0.6096031,0.41334826,-0.65337634,0.17500636,10.382182121276855,2.0252721309661865,-1.9079699516296387,41.72414016723633,-78.51141357421875, -16.145751953125
541,39877440,0.59986657,0.42075273,-0.6581202,0.17322108,10.463272094726562,2.493675947189331,-1.7627816200256348,44.36264419555664,-77.06859588623047, -14.23010540008545
542,39894107,0.5904674,0.42665124,-0.66329604,0.1713348,11.044596672058105,2.2613818645477295,-1.8769185543060303,36.208621978759766,-75.8322982788086, -6.995272159576416
543,39910774,0.5810475,0.43142906,-0.6689275,0.16967411,11.102302551269531,1.8220587968826294,-1.9892284870147705,32.21617126464844,-75.80851745605469, 0.37904495000839233
544,39927441,0.5722878,0.43476507,-0.674721,0.16798231,11.391961097717285,1.808685064315796,-1.8719584941864014,24.166990280151367,-71.84679412841797, 6.579620838165283
545,39944108,0.5645233,0.4368266,-0.68035144,0.16618761,11.822515487670898,1.6489017009735107,-1.7019912004470825,15.893675804138184,-65.44584655761719, 10.43272876739502
546,39960775,0.55779195,0.43823925,-0.6853288,0.16474034,12.153436660766602,1.386672854423523,-0.754886269569397,12.64880084991455,-56.321109771728516, 11.655234336853027
547,39977442,0.5501456,0.44110042,-0.68997747,0.16340657,12.392855644226074,0.8169435858726501,0.35186707973480225,21.877391815185547,-60.712615966796875, 5.286468982696533
548,39994109,0.5415673,0.4464551,-0.6938415,0.1611431,12.759848594665527,1.0055875778198242,1.5136381387710571,30.621204376220703,-67.84504699707031, -11.4252347946167
549,40010776,0.53162956,0.45469433,-0.6969411,0.15778702,13.517292022705078,0.3815169334411621,1.8797932863235474,41.19384002685547,-78.1062240600586, -30.13152313232422
550,40027443,0.51902515,0.46729508,-0.69880646,0.15465486,14.615373611450195,0.8665725588798523,3.46224308013916,67.90399932861328,-90.49150848388672, -51.22425079345703
551,40044110,0.50387144,0.48289743,-0.69999045,0.15145108,13.683466911315918,1.6826295852661133,2.411958932876587,87.22474670410156,-103.84029388427734, -65.43094635009766
552,40060777,0.48577595,0.49935463,-0.70086443,0.15315439,13.550990104675293,2.902052164077759,-3.5292770862579346,123.93539428710938,-101.61891174316406, -50.55072021484375
553,40077444,0.46123418,0.51446795,-0.7069729,0.1509156,13.480806350708008,5.177281379699707,-4.258761882781982,117.08442687988281,-162.33810424804688, -32.49677658081055
554,40094111,0.4393042,0.5252096,-0.7148842,0.14180061,14.888362884521484,8.361043930053711,-2.7366909980773926,58.72050857543945,-175.17982482910156, -29.387971878051758
555,40110778,0.42571333,0.53040624,-0.72208554,0.12661046,13.372542381286621,5.48192024230957,-0.7161129713058472,-17.22330665588379,-148.63157653808594, -31.17348861694336
556,40127445,0.41572872,0.5340585,-0.72732675,0.113787666,10.776432037353516,3.9436886310577393,3.110905408859253,-21.362001419067383,-115.08354187011719, -26.88736343383789
557,40144112,0.41471744,0.5348468,-0.7285887,0.10539182,10.980856895446777,3.3041977882385254,11.040590286254883,-37.16713333129883,-40.427734375, -21.581523895263672
558,40160779,0.42140883,0.53073925,-0.72798777,0.10375395,7.737181663513184,-1.9515641927719116,9.221227645874023,-44.13534927368164,31.7105770111084, 9.723241806030273
559,40177446,0.4263733,0.5312582,-0.72278905,0.11639115,6.86187744140625,0.4854157567024231,6.959652900695801,50.34490966796875,85.0558090209961, 12.321555137634277
560,40194113,0.44386247,0.5254144,-0.7149933,0.12534314,7.344316005706787,4.880109786987305,6.70053768157959,-30.244382858276367,146.44802856445312, 13.608528137207031
561,40210780,0.46893898,0.5130108,-0.70595413,0.13618149,7.7901129722595215,1.3215577602386475,4.391417980194092,-67.21015930175781,199.94354248046875, 40.573143005371094
562,40227447,0.49821123,0.49694344,-0.6942978,0.15094395,7.013707160949707,1.0566836595535278,3.140476703643799,-72.29493713378906,245.9611053466797, 57.85288619995117
563,40244114,0.5294135,0.47850838,-0.67935026,0.1709813,7.768678665161133,0.8029736876487732,1.3455605506896973,-58.36616134643555,286.8970642089844, 73.98802947998047
564,40260781,0.5622912,0.45758703,-0.6605218,0.19533089,9.763322830200195,1.5923802852630615,-0.16125920414924622,-48.22083282470703,325.9453430175781, 86.59173583984375
565,40277448,0.596939,0.4335419,-0.6371516,0.22303253,12.439016342163086,2.1843998432159424,-1.3617334365844727,-44.513427734375,366.30535888671875, 97.1096420288086
566,40294115,0.6335157,0.4055643,-0.60885894,0.25192583,15.124293327331543,4.677937984466553,-2.2730021476745605,-53.666080474853516,404.5760803222656, 101.6532974243164
567,40310782,0.6725311,0.37126675,-0.57656366,0.27827635,17.758329391479492,7.028103351593018,-2.8139543533325195,-91.75369262695312,436.1410827636719, 101.72427368164062
568,40327449,0.71096915,0.33078185,-0.54299146,0.30044484,20.666330337524414,5.253701686859131,-6.049498558044434,-133.07366943359375,440.9701843261719, 104.84951782226562
569,40344116,0.7373866,0.30051923,-0.5095617,0.32603145,20.079057693481445,1.089372992515564,-11.895954132080078,-43.3121337890625,382.0074462890625, 108.57928466796875
570,40360783,0.7558975,0.27914834,-0.481625,0.34457642,15.293673515319824,10.74196720123291,-14.545270919799805,-18.99031639099121,292.0352783203125, 70.74949645996094
571,40377450,0.77165526,0.24979503,-0.46759924,0.35142845,8.659707069396973,7.088056564331055,-20.21269416809082,-126.98806762695312,207.2535400390625, 69.72683715820312
572,40394117,0.7803757,0.23203348,-0.46281853,0.3506758,1.8141415119171143,2.5664212703704834,-23.72317886352539,-100.29426574707031,94.71333312988281, 25.01804542541504
573,40410784,0.7770984,0.2444193,-0.46194124,0.35069633,1.8427186012268066,0.7074272632598877,-24.329708099365234,73.54056549072266,-35.61827850341797, -31.63115692138672
574,40427451,0.77507985,0.26035833,-0.46242425,0.34297058,4.369309425354004,6.249529838562012,-15.442124366760254,62.39780044555664,-60.22304153442383, -85.1115493774414
575,40444118,0.7710053,0.25530156,-0.48086852,0.33035994,19.156787872314453,0.7695237398147583,22.017061233520508,-103.7944107055664,-121.55093383789062, -7.339303016662598
576,40460785,0.7682669,0.24372074,-0.49743536,0.32081884,11.333551406860352,-8.701610565185547,12.259886741638184,-126.23004150390625,-87.1110610961914, 24.206602096557617
577,40477452,0.75972384,0.2552521,-0.5092354,0.31360126,15.942526817321777,1.1385531425476074,-3.4013285636901855,24.078447341918945,-128.94927978515625, -37.855072021484375
578,40494119,0.7514271,0.26599526,-0.52663374,0.29540023,21.353679656982422,11.417208671569824,-10.283870697021484,-31.067317962646484,-174.8265380859375, -83.1933822631836
579,40510786,0.7474827,0.26100788,-0.55122787,0.26323545,15.423425674438477,7.711286544799805,-4.591712474822998,-185.60507202148438,-189.69595336914062, -93.94847106933594
580,40527453,0.7478961,0.24941918,-0.5693418,0.23300625,9.856851577758789,-3.1902637481689453,-5.318674564361572,-208.32492065429688,-124.36676025390625, -78.37977600097656
581,40544120,0.74274457,0.25767305,-0.57599324,0.22398055,9.826373100280762,0.9297693371772766,-1.2822465896606445,4.5831403732299805,-82.55178833007812, -57.781986236572266
582,40560787,0.73966604,0.26742727,-0.5781889,0.21696782,10.83255386352539,1.7502210140228271,-0.4683006703853607,23.3686580657959,-50.30814743041992, -64.53514099121094
583,40577454,0.7359084,0.2792174,-0.57797706,0.21545158,9.516585350036621,4.3692626953125,0.41472551226615906,60.384002685546875,-33.678672790527344, -48.09547424316406
584,40594121,0.7335339,0.2844147,-0.5788718,0.21434642,10.214864730834961,2.8485965728759766,0.9085606336593628,24.363422393798828,-23.216920852661133, -19.715953826904297
585,40610788,0.7313122,0.28934696,-0.5792379,0.21434724,10.418054580688477,2.1024014949798584,0.9853056073188782,27.905475616455078,-17.386516571044922, -14.33541488647461
586,40627455,0.7296583,0.29228687,-0.5800484,0.2138022,10.073562622070312,2.632399320602417,0.9463822841644287,13.925090789794922,-15.507902145385742, -9.100707054138184
587,40644122,0.72862875,0.29339817,-0.5809271,0.21340513,9.832484245300293,1.3469713926315308,0.7144397497177124,3.985318183898926,-10.372788429260254, -1.8407727479934692
588,40660789,0.72777617,0.29462576,-0.5813493,0.21347342,9.59411334991455,1.5759550333023071,1.3983056545257568,6.733535289764404,-6.609333038330078, -1.163085699081421
589,40677456,0.72658443,0.29694304,-0.58143353,0.21409188,9.231589317321777,1.7261028289794922,1.7683154344558716,15.568279266357422,-6.763309478759766, -2.9588589668273926
590,40694123,0.72470623,0.30187368,-0.5806693,0.21563105,9.131871223449707,1.8195774555206299,1.6097031831741333,34.95991897583008,-7.244382381439209, -9.534475326538086
591,40710790,0.722082,0.30929267,-0.5789508,0.2185224,8.82168197631836,1.8795281648635864,1.588226556777954,55.7221794128418,-6.356660842895508, -13.615974426269531
592,40727457,0.7189861,0.31651685,-0.5779816,0.22093846,9.22018051147461,2.3116354942321777,1.623551607131958,52.742637634277344,-12.678911209106445, -12.907647132873535
593,40744124,0.7156741,0.32203016,-0.5787155,0.2218019,8.95004940032959,3.2408106327056885,1.96087646484375,36.00668716430664,-22.743206024169922, -9.7523832321167
594,40760791,0.7123686,0.32476187,-0.5818075,0.22036646,8.847476959228516,3.2006020545959473,1.6917089223861694,9.578649520874023,-35.17903137207031, -4.772487640380859
595,40777458,0.70880187,0.3262661,-0.58617437,0.21806,9.117220878601074,2.6892616748809814,1.3022775650024414,-1.24852454662323,-42.5644645690918, -0.8686217665672302
596,40794125,0.70481575,0.32786077,-0.5910454,0.21542476,9.36497974395752,1.933580994606018,1.159952998161316,-1.9342478513717651,-47.592063903808594, -1.0635758638381958
597,40810792,0.70033616,0.33052468,-0.5958768,0.21263582,9.571165084838867,1.650236964225769,0.9561318159103394,3.8010306358337402,-51.34397888183594, -5.50953483581543
598,40827459,0.6954689,0.3341443,-0.600686,0.20939814,9.801065444946289,1.4936997890472412,0.9040218591690063,7.481907844543457,-55.249210357666016, -11.071125984191895
599,40844126,0.69013804,0.33882603,-0.605374,0.20598373,9.935412406921387,1.3750789165496826,0.4749048948287964,13.070905685424805,-58.529415130615234, -15.918060302734375
600,40860793,0.68447596,0.34449452,-0.60968226,0.202742,9.961405754089355,1.5151406526565552,0.40836215019226074,19.779491424560547,-59.108943939208984, -19.627819061279297
601,40877460,0.67852247,0.35118484,-0.6135269,0.1996542,9.81218433380127,1.9204825162887573,0.10795237869024277,26.568471908569336,-59.21598434448242, -23.886476516723633
602,40894127,0.6723096,0.35806942,-0.61735547,0.19661807,9.724527359008789,2.0311989784240723,-0.0018956959247589111,28.33993148803711,-60.383304595947266, -24.15142059326172
603,40910794,0.66550475,0.36588266,-0.6209863,0.19393215,9.436868667602539,2.4678425788879395,0.023980915546417236,35.84527587890625,-62.38216781616211, -26.164798736572266
604,40927461,0.65831244,0.37384114,-0.62476057,0.19116019,9.166698455810547,3.156426429748535,-0.040455274283885956,36.93170166015625,-65.11036682128906, -26.301010131835938
605,40944128,0.6509065,0.3809577,-0.6292243,0.18780085,9.138420104980469,3.520993709564209,-0.516546368598938,30.251684188842773,-69.56071472167969, -23.28211212158203
606,40960795,0.6431469,0.38770697,-0.634037,0.18450733,9.261723518371582,3.2455556392669678,-0.8555043935775757,29.38250160217285,-72.00958251953125, -20.01793098449707
607,40977462,0.63507944,0.39423954,-0.6389955,0.18147853,9.09679126739502,3.5434021949768066,-1.1290171146392822,30.226633071899414,-73.01939392089844, -17.11617088317871
608,40994129,0.62673026,0.40053532,-0.64405787,0.17880298,9.244017601013184,3.2984492778778076,-1.524799108505249,31.39126205444336,-73.45915985107422, -13.891395568847656
609,41010796,0.61780524,0.40715724,-0.64905524,0.17682563,9.71457576751709,2.439342737197876,-2.0327515602111816,37.564353942871094,-74.20893096923828, -11.792378425598145
610,41027463,0.60804874,0.4144758,-0.65386087,0.17593454,10.213379859924316,2.502582550048828,-1.7330180406570435,47.9304313659668,-74.91019439697266, -9.817138671875
611,41044130,0.5974282,0.42196867,-0.6589433,0.1755453,10.416289329528809,2.3527309894561768,-1.5903822183609009,53.04777526855469,-78.73658752441406, -6.676175594329834
612,41060797,0.586817,0.42875656,-0.66430753,0.17467007,11.031964302062988,1.776803731918335,-1.2835907936096191,47.58818054199219,-80.42023468017578, -4.680455684661865
613,41077464,0.5759251,0.4347071,-0.6702974,0.17332532,11.606274604797363,1.4818921089172363,-1.046682596206665,42.14679718017578,-84.62134552001953, -0.583629310131073
614,41094131,0.56514627,0.4391827,-0.67701834,0.17139088,12.128766059875488,1.4975361824035645,-0.35940152406692505,32.38836669921875,-87.0228500366211, 5.9116363525390625
615,41110798,0.5543285,0.44293904,-0.68427944,0.16818793,12.630536079406738,1.2485954761505127,-0.04942605644464493,23.186233520507812,-92.3182144165039, 5.988882064819336
616,41127465,0.5435058,0.44693482,-0.69132864,0.16406107,13.537839889526367,0.5880492329597473,0.6342051029205322,20.029285430908203,-94.66510009765625, 0.6795721054077148
617,41144132,0.53206193,0.4528815,-0.697247,0.16017327,14.775192260742188,-0.2043868452310562,1.685349702835083,31.657100677490234,-94.91142272949219, -10.505396842956543
618,41160799,0.51965946,0.46228698,-0.7010074,0.15758757,15.422347068786621,-0.49520501494407654,2.711780548095703,55.930076599121094,-91.4382095336914, -28.03148078918457
619,41177466,0.5041994,0.4765754,-0.70316494,0.15562366,14.769072532653809,1.1994712352752686,3.053680419921875,87.85757446289062,-103.8503189086914, -51.181915283203125
620,41194133,0.48463055,0.4920295,-0.70723814,0.15117836,11.692285537719727,3.7669260501861572,1.6464340686798096,91.36080169677734,-139.82655334472656, -54.78832244873047
621,41210800,0.46551013,0.5047947,-0.71134675,0.14989674,13.010527610778809,2.658097267150879,-4.804969310760498,96.28929138183594,-124.32476806640625, -31.532264709472656
622,41227467,0.4425897,0.5160377,-0.71833825,0.14768268,12.54765510559082,5.6422247886657715,-5.283923625946045,97.09246063232422,-153.83334350585938, -13.16640853881836
623,41244134,0.42183822,0.5230037,-0.7275907,0.13831767,13.519694328308105,6.929313659667969,-3.732088327407837,38.81119155883789,-171.04920959472656, -7.9876627922058105
624,41260801,0.4083698,0.5257658,-0.7358898,0.12357665,12.194753646850586,5.628815650939941,-0.6779457330703735,-25.495208740234375,-147.21954345703125, -12.911103248596191
625,41277468,0.39917338,0.52640754,-0.7426427,0.10971799,9.557336807250977,4.348385810852051,2.3589189052581787,-41.02738952636719,-116.32365417480469, -8.959574699401855
626,41294135,0.3966155,0.5255082,-0.7458143,0.101481795,9.23668098449707,3.5862514972686768,8.014608383178711,-37.79056167602539,-51.14439392089844, -3.671645402908325
627,41310802,0.40270182,0.52009094,-0.74694365,0.097017296,8.220597267150879,0.4947793483734131,8.430989265441895,-60.475547790527344,15.432985305786133, 16.31356430053711
628,41327469,0.4088891,0.51759326,-0.7442947,0.1045601,5.998185634613037,0.09323197603225708,5.148976802825928,11.505809783935547,67.30606079101562, 20.926624298095703
629,41344136,0.42344993,0.51275265,-0.7385698,0.11085983,7.943282127380371,5.342710018157959,5.171960830688477,-28.988239288330078,116.00286865234375, 12.429367065429688
630,41360803,0.44837284,0.50101066,-0.73106146,0.11618812,7.6065802574157715,1.954546570777893,4.114335060119629,-89.06806945800781,175.6064910888672, 30.438119888305664
631,41377470,0.4758665,0.48725453,-0.72104406,0.12739666,9.449048042297363,0.7338292598724365,2.3183093070983887,-72.50161743164062,218.08506774902344, 47.98500442504883
632,41394137,0.5071412,0.47081965,-0.707757,0.14218745,8.188278198242188,0.5649772882461548,1.8713349103927612,-73.2762222290039,261.84063720703125, 58.726219177246094
633,41410804,0.53963083,0.4525578,-0.691251,0.16174783,9.316617012023926,0.5249320268630981,0.6884910464286804,-57.15843963623047,296.1875305175781, 72.65218353271484
634,41427471,0.5737691,0.4323508,-0.6701008,0.18662083,10.940640449523926,1.0019927024841309,-0.8342717289924622,-39.075130462646484,339.94482421875, 85.37306213378906
635,41444138,0.60922325,0.40905643,-0.6449021,0.21359187,13.298316955566406,2.0917141437530518,-1.8552403450012207,-40.32243347167969,372.1835632324219, 94.21430969238281
636,41460805,0.6462755,0.38201794,-0.6148874,0.24146268,15.695300102233887,3.5160915851593018,-2.880565881729126,-49.4197883605957,407.5140686035156, 98.76432800292969
637,41477472,0.6846453,0.3497041,-0.5809808,0.2672636,18.355304718017578,5.519134521484375,-3.5411667823791504,-78.68916320800781,433.747314453125, 99.54403686523438
638,41494139,0.7204623,0.31179687,-0.547099,0.29051667,20.68440818786621,1.5650169849395752,-7.580384254455566,-109.16800689697266,427.6092224121094, 114.73889923095703
639,41510806,0.744613,0.28605035,-0.5125387,0.31785417,19.98910903930664,2.3808038234710693,-11.434532165527344,-7.251995086669922,371.5173034667969, 111.0721435546875
640,41527473,0.76394933,0.26260516,-0.48455215,0.33560318,15.786654472351074,10.477690696716309,-13.94169807434082,-34.32041931152344,297.0592346191406, 77.28954315185547
641,41544140,0.78036374,0.23308647,-0.4677902,0.34333068,7.745662689208984,7.539376258850098,-19.05580711364746,-120.37738800048828,224.4185791015625, 71.95540618896484
642,41560807,0.7866884,0.21742462,-0.46237245,0.3464969,1.3510818481445312,0.8321124315261841,-24.070457458496094,-71.4050064086914,91.22891235351562, 44.929779052734375
643,41577474,0.7838217,0.23020542,-0.461319,0.34614232,0.22159478068351746,3.06669020652771,-23.429773330688477,74.43437194824219,-34.40438461303711, -36.18751525878906
644,41594141,0.7822408,0.2432492,-0.46441087,0.33652982,2.9774529933929443,5.79822301864624,-13.07186222076416,34.44731903076172,-67.7447280883789, -83.45275115966797
645,41610808,0.7808485,0.23804154,-0.47829968,0.32379255,18.666461944580078,3.7457942962646484,23.979381561279297,-99.07880401611328,-88.09097290039062, -24.325117111206055
646,41627475,0.7797609,0.22703964,-0.48893213,0.318389,12.032444953918457,-8.646108627319336,11.805692672729492,-99.19982147216797,-44.83763122558594, 28.18510627746582
647,41644142,0.7719422,0.23876917,-0.4998685,0.31181154,15.454204559326172,-1.6669702529907227,-2.2920236587524414,28.58063316345215,-120.74845886230469, -39.41094970703125
648,41660809,0.7660695,0.24755913,-0.5133037,0.29727414,17.498897552490234,3.0721230506896973,-3.569779872894287,-23.013057708740234,-134.01539611816406, -71.68010711669922
649,41677476,0.754236,0.26794985,-0.52939564,0.2811969,20.587574005126953,14.409175872802734,-10.93562126159668,37.2994270324707,-195.31622314453125, -104.03160095214844
650,41694143,0.75388825,0.2585687,-0.55036837,0.24877729,13.18983268737793,-1.3882423639297485,-3.0728750228881836,-207.32208251953125,-151.23004150390625, -93.49773406982422
651,41710810,0.74977344,0.2669898,-0.55708605,0.23709033,6.389333248138428,1.491810917854309,-0.9437033534049988,-5.548890113830566,-85.11331939697266, -72.29304504394531
652,41727477,0.7455182,0.27673545,-0.5611432,0.22964934,11.9603910446167,3.537431001663208,-0.9256948828697205,22.12138557434082,-66.28988647460938, -60.118560791015625
653,41744144,0.7421093,0.28810346,-0.5609815,0.22709098,9.483901023864746,4.0778889656066895,-0.4598565697669983,54.286842346191406,-34.64911651611328, -50.70396041870117
654,41760811,0.7407128,0.2932989,-0.5603682,0.22651331,10.467595100402832,2.979806900024414,-0.10584104061126709,27.135095596313477,-11.006979942321777, -20.80881118774414
655,41777478,0.73957306,0.29854763,-0.5582606,0.22857513,11.131150245666504,0.7630506157875061,-0.11273612082004547,39.365779876708984,2.8457350730895996, -10.984225273132324
656,41794145,0.7385557,0.30492443,-0.5544226,0.23275012,10.916254043579102,1.2900292873382568,0.229485422372818,55.65256881713867,14.693663597106934, -8.3438081741333
657,41810812,0.7375751,0.31155068,-0.54951525,0.23864758,10.154457092285156,1.4389355182647705,0.7193059921264648,65.0950698852539,23.48764419555664, -2.877763509750366
658,41827479,0.7360701,0.3186063,-0.5439943,0.24649867,9.576459884643555,2.147122621536255,1.3578672409057617,76.76828002929688,28.10521697998047, 4.925124645233154
659,41844146,0.7341429,0.3248603,-0.53907824,0.25474524,9.169093132019043,2.2719924449920654,2.4020864963531494,74.08961486816406,25.693199157714844, 11.946097373962402
660,41860813,0.7313995,0.33232692,-0.533948,0.26365423,8.41588020324707,2.966663122177124,3.054914951324463,84.87364959716797,23.100563049316406, 11.730680465698242
661,41877480,0.7286431,0.33989576,-0.5288888,0.27171198,7.978024959564209,4.173889636993408,3.3709545135498047,82.18594360351562,20.55461883544922, 7.255795478820801
662,41894147,0.72586054,0.3463856,-0.5244622,0.2794338,8.374601364135742,3.1651360988616943,3.000967502593994,74.4745101928711,18.508888244628906, 11.03659725189209
663,41910814,0.72317445,0.35171807,-0.5212444,0.28568804,8.894765853881836,2.473931312561035,2.8318936824798584,60.87599563598633,11.543350219726562, 10.581527709960938
664,41927481,0.7204328,0.3563725,-0.51943594,0.2901067,9.196249008178711,2.145928382873535,2.426483631134033,48.30585861206055,1.2207690477371216, 7.39741325378418
665,41944148,0.7177207,0.36029097,-0.519032,0.29270068,9.164605140686035,2.511090040206909,2.2957372665405273,35.2797966003418,-8.640010833740234, 4.365480899810791
666,41960815,0.71505696,0.36318544,-0.52015215,0.29365295,9.084955215454102,2.8012259006500244,2.3852269649505615,21.19050407409668,-18.00041389465332, 3.599381685256958
667,41977482,0.71231985,0.36551145,-0.52254003,0.29317924,8.939995765686035,2.694082498550415,2.5613605976104736,10.931102752685547,-26.915746688842773, 1.9449635744094849
668,41994149,0.70949227,0.36777216,-0.5257437,0.29147625,8.868501663208008,2.523716688156128,2.6134426593780518,4.793238162994385,-34.20308303833008, -1.5968687534332275
669,42010816,0.7064772,0.3704517,-0.5294541,0.28867692,8.769182205200195,2.643223285675049,2.634786367416382,2.34688663482666,-40.975162506103516, -6.791159152984619
670,42027483,0.7033313,0.3732006,-0.5337188,0.28494024,8.712568283081055,2.780869722366333,2.308964967727661,-1.4789786338806152,-46.68383026123047, -9.910745620727539
671,42044150,0.70016605,0.3755994,-0.53871924,0.28013292,8.907858848571777,2.997713565826416,1.9603275060653687,-8.47732925415039,-52.38471984863281, -11.862262725830078
672,42060817,0.69671845,0.37698752,-0.54535913,0.27394825,9.140426635742188,3.036078691482544,1.293386459350586,-20.857135772705078,-62.943016052246094, -9.952329635620117
673,42077484,0.6925629,0.37746683,-0.55346066,0.2675019,9.808980941772461,2.251836061477661,0.719436764717102,-27.09696388244629,-71.5710220336914, -2.655771493911743
674,42094151,0.687162,0.37852874,-0.56207883,0.2619013,9.999099731445312,1.5480530261993408,0.46945706009864807,-18.8228759765625,-77.64939880371094, 2.795541763305664
675,42110818,0.68069905,0.38120136,-0.57032084,0.2570391,9.927152633666992,1.3317246437072754,0.6420490145683289,-4.923579216003418,-80.95703125, 0.9944552779197693
676,42127485,0.67338085,0.38545728,-0.5781449,0.25244766,9.247060775756836,2.4018712043762207,0.7779643535614014,6.524468898773193,-84.44868469238281, -3.532055139541626
677,42144152,0.66557604,0.38968176,-0.58639646,0.2475811,9.297490119934082,2.8561220169067383,0.5743095874786377,5.8437724113464355,-89.04388427734375, -2.692470073699951
678,42160819,0.6574295,0.3931586,-0.59531915,0.24250497,9.585137367248535,2.5026845932006836,0.22159014642238617,1.3671129941940308,-92.78740692138672, 1.7576162815093994
679,42177486,0.6491346,0.39620164,-0.6045686,0.23695096,9.583379745483398,2.3533525466918945,-0.06466711312532425,-2.682478666305542,-95.44548797607422, 2.5148189067840576
680,42194153,0.64027476,0.39972425,-0.61381966,0.23128857,9.525455474853516,1.9151469469070435,-0.4319326877593994,0.5537592768669128,-98.8838882446289, 0.9722723960876465
681,42210820,0.63085747,0.40421265,-0.62272114,0.2254989,9.73098087310791,1.6167737245559692,-0.8266541957855225,6.363663196563721,-101.58935546875, -3.7327523231506348
682,42227487,0.6207891,0.40993816,-0.63096815,0.22011605,9.911381721496582,1.7217882871627808,-1.0745928287506104,16.293712615966797,-102.33128356933594, -8.072405815124512
683,42244154,0.61055815,0.4159884,-0.63874114,0.21490136,9.92702865600586,2.371018648147583,-1.1122112274169922,19.585674285888672,-101.03548431396484, -9.852411270141602
684,42260821,0.6002131,0.42212203,-0.64597845,0.21040331,10.214807510375977,2.1534626483917236,-1.4821449518203735,24.211353302001953,-97.36788940429688, -8.569047927856445
685,42277488,0.58950716,0.42868108,-0.6525289,0.20717235,10.951552391052246,1.8038206100463867,-1.58306884765625,33.64250564575195,-93.08020782470703, -6.700284004211426
686,42294155,0.5786285,0.4351211,-0.6588358,0.20443742,11.624273300170898,1.871183156967163,-1.6795077323913574,36.2453727722168,-91.24589538574219, -4.631701946258545
687,42310822,0.5687265,0.44016162,-0.664802,0.2021056,12.102240562438965,0.8641729354858398,-1.2863942384719849,30.066322326660156,-82.3041763305664, 0.9119328260421753
688,42327489,0.5597705,0.44406185,-0.67047673,0.19981831,12.320937156677246,0.6301009058952332,-1.0840401649475098,23.350563049316406,-75.14196014404297, 4.0876007080078125
689,42344156,0.55171597,0.44664928,-0.6763441,0.1966543,12.416252136230469,0.6404507756233215,-0.37344789505004883,11.241071701049805,-72.62659454345703, 6.098480701446533
690,42360823,0.54426605,0.44935825,-0.6818739,0.1920935,12.675176620483398,0.6765895485877991,0.49687767028808594,3.814347267150879,-73.02091979980469, -1.637425184249878
691,42377490,0.53623974,0.45416704,-0.68661624,0.18638098,12.856597900390625,0.903689980506897,1.5858429670333862,9.111451148986816,-79.1510009765625, -17.483741760253906
692,42394157,0.5268282,0.46265408,-0.68991107,0.1800734,13.349328994750977,0.9509996175765991,2.1028683185577393,26.076431274414062,-86.98046112060547, -39.81245803833008
693,42410824,0.51654506,0.47500324,-0.6907129,0.174554,13.764254570007324,1.8037266731262207,2.7449536323547363,49.702049255371094,-84.42147064208984, -62.15959930419922
694,42427491,0.50134313,0.4902267,-0.6925971,0.16924095,11.047904014587402,2.3944754600524902,-0.9416033029556274,75.71208190917969,-114.47220611572266, -65.67304992675781
695,42444158,0.4800917,0.5056861,-0.6974486,0.16540647,12.01384449005127,3.2212116718292236,-4.0661749839782715,100.53759765625,-148.83950805664062, -44.67433547973633
696,42460825,0.45737246,0.5192014,-0.70384276,0.16076745,14.377670288085938,5.350235939025879,-3.80017352104187,93.62783813476562,-161.5755615234375, -30.979450225830078
697,42477492,0.438046,0.52917135,-0.7107087,0.15161467,13.259395599365234,6.350757598876953,-2.5865464210510254,48.05305862426758,-158.85997009277344, -30.09576416015625
698,42494159,0.42256388,0.5365268,-0.7168782,0.14023237,12.210741996765137,4.356165409088135,-0.9555986523628235,16.101716995239258,-143.39439392089844, -30.5948486328125
699,42510826,0.41089806,0.5424116,-0.7210511,0.13053031,11.260668754577637,3.7442567348480225,5.563860893249512,8.024175643920898,-111.2080078125, -29.5435848236084
700,42527493,0.4082009,0.5449517,-0.7216701,0.12486885,9.602815628051758,2.8884575366973877,10.804376602172852,-11.548480987548828,-38.71150588989258, -22.90825843811035
701,42544160,0.41120073,0.5439499,-0.72037905,0.12683445,7.876331806182861,-0.933185875415802,9.631077766418457,-3.2229437828063965,26.432661056518555, 3.948867082595825
702,42560827,0.41727662,0.54344875,-0.71533144,0.13727717,7.660490036010742,2.260328769683838,7.819684028625488,32.02092742919922,83.46298217773438, 8.64466667175293
703,42577494,0.4347902,0.53667915,-0.708591,0.14433447,8.234753608703613,5.285563945770264,7.274019241333008,-43.65932846069336,137.76927185058594, 12.607000350952148
704,42594161,0.46009696,0.523145,-0.70107126,0.15208453,7.510747909545898,2.0711822509765625,5.668143272399902,-88.34566497802734,187.2900848388672, 36.99646759033203
