PacketCounter,SampleTimeFine,Quat_W,Quat_X,Quat_Y,Quat_Z,Acc_X,Acc_Y,Acc_Z,Gyr_X,Gyr_Y,Gyr_Z 
1,48726460,0.49321115,0.39816877,-0.52740794,0.56572556,0,0,0,0,0, 0
2,48743127,0.49334797,0.39828783,-0.52756023,0.5653803,9.447734832763672,-1.9773958921432495,1.1778271198272705,-1.6486127376556396,-0.11696038395166397, -0.12192925810813904
3,48759794,0.49347052,0.39832777,-0.52798617,0.5648474,9.44846248626709,-1.9714689254760742,1.1889327764511108,-1.6151368618011475,-0.06550447642803192, -0.22382938861846924
4,48776461,0.4934857,0.39843515,-0.5282764,0.5644869,9.444967269897461,-1.9642475843429565,1.223788857460022,-1.7018359899520874,-0.10396195948123932, -0.28004926443099976
5,48793128,0.49377623,0.3982668,-0.52855945,0.5640865,9.45483112335205,-1.9619741439819336,1.2080516815185547,-1.7486560344696045,-0.02375577948987484, -0.2793577313423157
6,48809795,0.49402112,0.39810237,-0.5288113,0.563752,9.447978973388672,-1.9841506481170654,1.255110263824463,-2.577751636505127,-0.020208416506648064, -0.16567574441432953
7,48826462,0.49436256,0.39778444,-0.5291067,0.5633999,9.446030616760254,-1.97625732421875,1.2064324617385864,-3.7520298957824707,-0.0638524666428566, -0.28930824995040894
8,48843129,0.49457443,0.39759842,-0.52931434,0.56315017,9.457324028015137,-1.9615511894226074,1.1957529783248901,-3.6302289962768555,-0.038367822766304016, -0.4393474757671356
9,48859796,0.4947906,0.3974156,-0.52955496,0.562863,9.438366889953613,-1.966347336769104,1.189313292503357,-3.296149730682373,-0.21448074281215668, -0.35316070914268494
10,48876463,0.49504936,0.3971988,-0.5298219,0.5625374,9.455307006835938,-1.9739564657211304,1.2027994394302368,-2.9883229732513428,-0.1832972764968872, -0.37673717737197876
11,48893130,0.49526253,0.3970364,-0.53005916,0.5622407,9.45008659362793,-1.9777250289916992,1.2185683250427246,-2.994957447052002,-0.28157323598861694, -0.4867950677871704
12,48909797,0.49544498,0.3968887,-0.5302833,0.5619729,9.440203666687012,-1.9854158163070679,1.2002044916152954,-2.9639017581939697,-0.3579502999782562, -0.4369654953479767
13,48926464,0.4955354,0.3968116,-0.53044486,0.561795,9.44643783569336,-1.9734989404678345,1.2067227363586426,-2.7795157432556152,-0.32051733136177063, -0.3790039122104645
14,48943131,0.49565408,0.39672413,-0.5306119,0.5615943,9.45176887512207,-1.9497294425964355,1.2211850881576538,-2.6065402030944824,-0.3588979244232178, -0.46423014998435974
15,48959798,0.49568167,0.39672783,-0.5307163,0.5614685,9.447686195373535,-1.9740391969680786,1.2127169370651245,-2.765582323074341,-0.42353159189224243, -0.45087310671806335
16,48976465,0.49577168,0.3966639,-0.53087735,0.5612821,9.449748992919922,-1.9692953824996948,1.224461555480957,-2.9869272708892822,-0.4401029944419861, -0.4341992735862732
17,48993132,0.49596605,0.3964824,-0.5311774,0.56095475,9.448127746582031,-1.99848473072052,1.2482441663742065,-4.576669692993164,-0.5329107046127319, -0.4914437532424927
18,49009799,0.49627867,0.3961717,-0.5315893,0.5605072,9.451180458068848,-1.9655110836029053,1.2259525060653687,-5.312880516052246,-0.5690630078315735, -0.5204629302024841
19,49026466,0.49662206,0.3958397,-0.5320368,0.560013,9.451788902282715,-1.954911708831787,1.180166482925415,-5.607644557952881,-0.6756630539894104, -0.5876449942588806
20,49043133,0.49676806,0.3956918,-0.53233373,0.5597057,9.443289756774902,-1.9632236957550049,1.2113897800445557,-5.255239963531494,-0.6010532975196838, -0.5051465630531311
21,49059800,0.49710384,0.39534146,-0.53284466,0.5591686,9.453972816467285,-1.964508295059204,1.2209113836288452,-6.211938381195068,-0.8903999328613281, -0.4530375003814697
22,49076467,0.49727887,0.39512533,-0.5332653,0.5587648,9.443211555480957,-1.9627231359481812,1.2033133506774902,-6.614365100860596,-0.8955609798431396, -0.3714994490146637
23,49093134,0.49754697,0.39485404,-0.5337135,0.55828965,9.44429874420166,-1.9585139751434326,1.1615279912948608,-5.922220706939697,-0.9440970420837402, -0.5053642988204956
24,49109801,0.49774438,0.39467213,-0.5340559,0.55791485,9.435408592224121,-1.9479817152023315,1.1382941007614136,-4.7478132247924805,-0.8545932769775391, -0.5096926689147949
25,49126468,0.4978872,0.3945551,-0.5343021,0.55763435,9.442828178405762,-1.9486196041107178,1.134247064590454,-3.4323320388793945,-0.7209845781326294, -0.4350060820579529
26,49143135,0.49790344,0.39457825,-0.5344038,0.5575058,9.44379997253418,-1.958122730255127,1.183266282081604,-2.499786376953125,-0.56840980052948, -0.44690316915512085
27,49159802,0.4978364,0.39469734,-0.53440017,0.557485,9.456260681152344,-1.9630563259124756,1.167244553565979,-1.8906141519546509,-0.44046157598495483, -0.4840799570083618
28,49176469,0.49798414,0.39461774,-0.53452367,0.557291,9.447319030761719,-1.9567601680755615,1.1636779308319092,-1.5968494415283203,-0.3488321900367737, -0.5027260780334473
29,49193136,0.49791327,0.39474386,-0.53449243,0.5572951,9.456790924072266,-1.9469364881515503,1.159777283668518,-1.3745437860488892,-0.36700430512428284, -0.450309693813324
30,49209803,0.49783102,0.39486954,-0.53444,0.55732965,9.471874237060547,-1.9597467184066772,1.1935628652572632,-1.304173231124878,-0.2122780680656433, -0.36969372630119324
31,49226470,0.49791637,0.3948492,-0.5344771,0.55723226,9.449055671691895,-1.9532934427261353,1.1827203035354614,-1.0948020219802856,-0.12805069983005524, -0.44398337602615356
32,49243137,0.49787202,0.39494538,-0.5344059,0.5572719,9.458518028259277,-1.9503082036972046,1.1699403524398804,-0.8159823417663574,-0.023269139230251312, -0.3679008483886719
33,49259804,0.49782073,0.3950577,-0.53430986,0.5573302,9.449591636657715,-1.9420558214187622,1.154492735862732,-0.4169747233390808,-0.005711631383746862, -0.38285863399505615
34,49276471,0.49763617,0.39530593,-0.53410196,0.55751836,9.457780838012695,-1.9451849460601807,1.185133695602417,0.05791671574115753,-0.00929740909487009, -0.3787221610546112
35,49293138,0.49756992,0.39544678,-0.5339504,0.55762273,9.463871002197266,-1.9351251125335693,1.1791578531265259,0.39104828238487244,0.09053449332714081, -0.38335809111595154
36,49309805,0.49758914,0.39549246,-0.5338649,0.5576549,9.453757286071777,-1.9501773118972778,1.19157075881958,0.41970887780189514,0.11740220338106155, -0.2899869382381439
37,49326472,0.49750373,0.3956346,-0.5337038,0.55778444,9.433480262756348,-1.9665313959121704,1.190869927406311,0.3376842439174652,0.16103346645832062, -0.28045907616615295
38,49343139,0.4973234,0.39587077,-0.53349626,0.55797637,9.454876899719238,-1.9445483684539795,1.2243503332138062,0.010533221997320652,0.05028412863612175, -0.342928409576416
39,49359806,0.49720973,0.3960264,-0.5333621,0.5580954,9.465108871459961,-1.9493370056152344,1.2005292177200317,-0.16374199092388153,-0.03117065504193306, -0.25283578038215637
40,49376473,0.49720395,0.39606756,-0.53332436,0.55810744,9.454093933105469,-1.9380005598068237,1.2232773303985596,-0.45832645893096924,-0.05860186368227005, -0.21215000748634338
41,49393140,0.49722275,0.3960537,-0.53335005,0.5580761,9.453445434570312,-1.9551301002502441,1.2499134540557861,-1.2811344861984253,-0.06786084920167923, -0.09915957599878311
42,49409807,0.4973517,0.39591002,-0.5335404,0.5578811,9.460135459899902,-1.9745032787322998,1.2231051921844482,-2.9732627868652344,-0.24923717975616455, -0.12629622220993042
43,49426474,0.49750113,0.39575168,-0.53373957,0.5576696,9.456398963928223,-1.956468105316162,1.201306700706482,-3.5065832138061523,-0.1307656317949295, -0.23252488672733307
44,49443141,0.49759308,0.39564425,-0.53391284,0.557498,9.45624828338623,-1.9423081874847412,1.210326075553894,-3.391082763671875,-0.24412742257118225, -0.19213365018367767
45,49459808,0.49777514,0.39545593,-0.5341511,0.5572408,9.453312873840332,-1.9464689493179321,1.2050589323043823,-3.4509780406951904,-0.2732234597206116, -0.23237119615077972
46,49476475,0.49793044,0.39530924,-0.5343495,0.55701584,9.447277069091797,-1.9366555213928223,1.1803232431411743,-3.1088695526123047,-0.2789863348007202, -0.2981574535369873
47,49493142,0.49798074,0.39525223,-0.53445464,0.55691046,9.447806358337402,-1.9500609636306763,1.1919775009155273,-2.7453863620758057,-0.14694005250930786, -0.19096827507019043
48,49509809,0.49806204,0.39519107,-0.53456247,0.55677754,9.451349258422852,-1.95259428024292,1.2017043828964233,-2.519585371017456,-0.1902383267879486, -0.33044224977493286
49,49526476,0.49812797,0.39513144,-0.5347031,0.55662596,9.452047348022461,-1.9717999696731567,1.2636141777038574,-3.427837371826172,-0.2597896456718445, -0.3448878228664398
50,49543143,0.49835908,0.39488357,-0.53509873,0.5562145,9.443896293640137,-1.9755913019180298,1.258789300918579,-6.02309513092041,-0.6153579354286194, -0.43603062629699707
51,49559810,0.49867687,0.3945371,-0.5356611,0.5556339,9.45897388458252,-1.9690049886703491,1.208695411682129,-7.531595230102539,-1.0302326679229736, -0.498013436794281
52,49576477,0.49891677,0.39426833,-0.53615904,0.5551291,9.44407844543457,-1.9411447048187256,1.1524689197540283,-7.351743221282959,-1.0194624662399292, -0.5023036599159241
53,49593144,0.49920812,0.3939732,-0.5366326,0.5546188,9.466781616210938,-1.932054877281189,1.1734899282455444,-6.1151862144470215,-0.9421376585960388, -0.5208598971366882
54,49609811,0.49935967,0.39381343,-0.5369373,0.5543007,9.452510833740234,-1.9310741424560547,1.1424731016159058,-5.045125961303711,-0.6382941007614136, -0.4125309884548187
55,49626478,0.49951115,0.39367136,-0.537177,0.5540329,9.450850486755371,-1.9389125108718872,1.1474602222442627,-3.9581100940704346,-0.4637179374694824, -0.4082152545452118
56,49643145,0.49974614,0.39344275,-0.5374363,0.55373186,9.44798469543457,-1.9383794069290161,1.152385950088501,-3.5712814331054688,-0.20847459137439728, -0.3380236327648163
57,49659812,0.4998592,0.39332372,-0.53763443,0.553522,9.43733024597168,-1.9604957103729248,1.2033376693725586,-3.7660789489746094,-0.3118474781513214, -0.2991819679737091
58,49676479,0.49993905,0.3932355,-0.5378369,0.5533159,9.45090389251709,-1.9486279487609863,1.1993175745010376,-4.583226680755615,-0.35368582606315613, -0.3810786008834839
59,49693146,0.5001916,0.39295527,-0.53819066,0.55294245,9.442304611206055,-1.9356650114059448,1.1682261228561401,-5.159026145935059,-0.32410311698913574, -0.29227936267852783
60,49709813,0.5003293,0.39278704,-0.538461,0.5526743,9.45328426361084,-1.9575315713882446,1.1615842580795288,-5.0323710441589355,-0.3400982618331909, -0.2777569591999054
61,49726480,0.5005063,0.39257923,-0.5387451,0.5523848,9.461681365966797,-1.9313139915466309,1.169137716293335,-4.649857997894287,-0.30618709325790405, -0.23171812295913696
62,49743147,0.5006187,0.39243728,-0.5389515,0.5521823,9.438237190246582,-1.939876675605774,1.1449111700057983,-3.955754041671753,-0.2268773317337036, -0.17426884174346924
63,49759814,0.5006912,0.39236322,-0.5390675,0.55205595,9.456497192382812,-1.9374752044677734,1.1536821126937866,-3.2785534858703613,-0.05491362512111664, -0.28750255703926086
64,49776481,0.50075275,0.39230093,-0.539157,0.5519569,9.442978858947754,-1.948848009109497,1.185785174369812,-2.723820924758911,-0.034205757081508636, -0.2337670922279358
65,49793148,0.50082326,0.39224383,-0.53922576,0.5518663,9.449699401855469,-1.948855996131897,1.1617549657821655,-2.289890766143799,-0.000025612702302169055, -0.275503009557724
66,49809815,0.5008801,0.39220676,-0.5392781,0.55178994,9.446623802185059,-1.9338901042938232,1.1725810766220093,-1.9058918952941895,-0.0671180710196495, -0.274068683385849
67,49826482,0.50088966,0.39220342,-0.5392917,0.5517704,9.450764656066895,-1.9321401119232178,1.1612364053726196,-1.5983349084854126,-0.02666282281279564, -0.1598232537508011
68,49843149,0.5009253,0.39218032,-0.53929967,0.5517468,9.462140083312988,-1.9438689947128296,1.1604783535003662,-1.1801819801330566,0.03792600706219673, -0.1499367505311966
69,49859816,0.5009132,0.39221552,-0.53925854,0.5517729,9.459980010986328,-1.9506956338882446,1.1776437759399414,-1.0173108577728271,0.05354974791407585, -0.20652799308300018
70,49876483,0.5008796,0.39228165,-0.5391835,0.55182976,9.446518898010254,-1.9543901681900024,1.1516889333724976,-0.7661526799201965,0.08536072075366974, -0.24309013783931732
71,49893150,0.50086474,0.39232418,-0.5390875,0.5519068,9.466833114624023,-1.9407223463058472,1.1589630842208862,-0.38211584091186523,0.2955513596534729, -0.1730778068304062
72,49909817,0.5008083,0.39240822,-0.538934,0.552048,9.438151359558105,-1.9438188076019287,1.1573894023895264,-0.06351948529481888,0.4353710412979126, -0.1469784677028656
73,49926484,0.5007696,0.39250478,-0.53876,0.55218434,9.45242691040039,-1.9482605457305908,1.1613984107971191,0.3666650056838989,0.4323999583721161, -0.29042237997055054
74,49943151,0.5007045,0.39261818,-0.53856385,0.55235416,9.436585426330566,-1.9377150535583496,1.1989291906356812,0.7250250577926636,0.4315803647041321, -0.1948998123407364
75,49959818,0.5006046,0.39277014,-0.53833187,0.5525626,9.46484661102295,-1.9412992000579834,1.1711186170578003,0.9395186901092529,0.4394691288471222, -0.20234033465385437
76,49976485,0.5005131,0.3929159,-0.53811276,0.55275536,9.448803901672363,-1.9487234354019165,1.1990797519683838,0.895733654499054,0.38341569900512695, -0.21686270833015442
77,49993152,0.50045604,0.39302254,-0.5379506,0.5528891,9.443933486938477,-1.9257839918136597,1.194167137145996,0.6887830495834351,0.20576602220535278, -0.2009316086769104
78,50009819,0.5003942,0.3931165,-0.5378215,0.55300385,9.460376739501953,-1.9265638589859009,1.1979689598083496,0.3862074911594391,0.08364467322826385, -0.11940639466047287
79,50026486,0.500343,0.39319947,-0.53772604,0.55308396,9.453478813171387,-1.935539960861206,1.2149521112442017,0.14311736822128296,-0.06565815210342407, -0.13541434705257416
80,50043153,0.5002422,0.3933069,-0.53762656,0.5531955,9.466492652893066,-1.9275935888290405,1.2238067388534546,-0.08902974426746368,-0.12819156050682068, -0.0066080763936042786
81,50059820,0.5001858,0.3933667,-0.53757817,0.553251,9.44155216217041,-1.9273079633712769,1.1964023113250732,-0.3428516089916229,-0.2041972279548645, -0.0022539175115525723
82,50076487,0.5001391,0.3934288,-0.5375365,0.5532895,9.452398300170898,-1.9494657516479492,1.2160212993621826,-0.5467798709869385,-0.2304246574640274, -0.09840398281812668
83,50093154,0.50011784,0.39345717,-0.53752,0.5533047,9.445013999938965,-1.9460718631744385,1.2105389833450317,-0.7831467390060425,-0.18922662734985352, -0.06801452487707138
84,50109821,0.50011796,0.39347336,-0.5375186,0.5532943,9.445773124694824,-1.9436718225479126,1.2248553037643433,-1.0868749618530273,-0.17841805517673492, -0.15742845833301544
85,50126488,0.50013334,0.39348865,-0.53754073,0.55324805,9.461565017700195,-1.9283440113067627,1.236683964729309,-1.3431555032730103,-0.30493199825286865, -0.27072620391845703
86,50143155,0.5001711,0.39347312,-0.5376095,0.55315816,9.4537935256958,-1.9349708557128906,1.206376075744629,-1.5035039186477661,-0.46129754185676575, -0.2250332087278366
87,50159822,0.50018543,0.39347133,-0.5376434,0.5531136,9.454062461853027,-1.9483259916305542,1.1890228986740112,-1.4548269510269165,-0.28684940934181213, -0.16608554124832153
88,50176489,0.5002142,0.39345974,-0.53768176,0.55305827,9.45251750946045,-1.949903964996338,1.1886671781539917,-1.5996029376983643,-0.23987573385238647, -0.21221400797367096
89,50193156,0.50030535,0.39339656,-0.53775674,0.552948,9.436325073242188,-1.9487413167953491,1.2319000959396362,-1.8380438089370728,-0.1833740919828415, -0.29695358872413635
90,50209823,0.500338,0.39339453,-0.53779334,0.5528844,9.46508502960205,-1.9314262866973877,1.216686725616455,-1.9531090259552002,-0.21445512771606445, -0.33744731545448303
91,50226490,0.5003916,0.39338285,-0.53783715,0.5528015,9.449187278747559,-1.9332587718963623,1.190565824508667,-2.1517231464385986,-0.1804286688566208, -0.42897433042526245
92,50243157,0.5005252,0.3933234,-0.5378844,0.5526768,9.461352348327637,-1.9508745670318604,1.2118291854858398,-2.13356351852417,0.051782477647066116, -0.6247065663337708
93,50259824,0.50064415,0.39327547,-0.53790456,0.5525835,9.455012321472168,-1.9437164068222046,1.2077451944351196,-2.324544668197632,0.22849728167057037, -0.6338503360748291
94,50276491,0.5007849,0.39319983,-0.5379224,0.5524925,9.456869125366211,-1.9284672737121582,1.2370163202285767,-2.261652708053589,0.38291627168655396, -0.5901550054550171
95,50293158,0.50094384,0.39312527,-0.5379389,0.55238515,9.458260536193848,-1.9217575788497925,1.2213828563690186,-2.257797956466675,0.3772943317890167, -0.710086464881897
96,50309825,0.50107384,0.3930606,-0.5379766,0.55227673,9.444162368774414,-1.9283740520477295,1.2172091007232666,-2.4407877922058105,0.19532886147499084, -0.6058043241500854
97,50326492,0.5012859,0.3929071,-0.5380605,0.5521119,9.448081016540527,-1.9493621587753296,1.2310549020767212,-2.9365856647491455,0.43329647183418274, -0.6102867126464844
98,50343159,0.50153095,0.39272133,-0.5381545,0.5519296,9.434996604919434,-1.9390041828155518,1.2354806661605835,-3.40928053855896,0.6246616840362549, -0.6701690554618835
99,50359826,0.50181854,0.39249513,-0.5382839,0.5517031,9.444231986999512,-1.9294452667236328,1.2344117164611816,-3.8301239013671875,0.6601866483688354, -0.7245578169822693
100,50376493,0.5021263,0.39223203,-0.5384582,0.55144006,9.455222129821777,-1.941884160041809,1.2446482181549072,-4.821705341339111,0.7181608080863953, -0.7272085547447205
101,50393160,0.5026254,0.39175582,-0.5388821,0.5509098,9.451996803283691,-1.955820083618164,1.28169584274292,-7.134059429168701,0.4663880467414856, -0.8138051629066467
102,50409827,0.5031149,0.3912677,-0.5394,0.5503026,9.453636169433594,-1.9357894659042358,1.27226984500885,-8.393475532531738,0.057404473423957825, -0.816801905632019
103,50426494,0.5036222,0.3907469,-0.5400185,0.54960155,9.436909675598145,-1.9278595447540283,1.218787431716919,-9.245111465454102,-0.3703981637954712, -0.8131393790245056
104,50443161,0.50408304,0.39029735,-0.54054457,0.5489808,9.442087173461914,-1.926817536354065,1.2486010789871216,-8.21749210357666,-0.2830972969532013, -0.8716772794723511
105,50459828,0.50453186,0.38987792,-0.54106534,0.54835325,9.439398765563965,-1.9118415117263794,1.2274492979049683,-8.289346694946289,-0.40766459703445435, -0.9988057613372803
106,50476495,0.50491667,0.38952154,-0.5415313,0.5477921,9.446733474731445,-1.9196430444717407,1.2051951885223389,-7.947506427764893,-0.41971540451049805, -0.9640622138977051
107,50493162,0.50536084,0.38909626,-0.542088,0.5471337,9.465643882751465,-1.9358396530151367,1.2478872537612915,-8.449259757995605,-0.6430069804191589, -0.9565576314926147
108,50509829,0.50581,0.38866577,-0.5426459,0.5464712,9.477758407592773,-1.8793365955352783,1.1684446334838867,-8.472977638244629,-0.6342089772224426, -0.9633707404136658
109,50526496,0.5061936,0.38830954,-0.54312634,0.5458919,9.44014835357666,-1.9442890882492065,1.2232794761657715,-7.623186111450195,-0.6316220760345459, -0.9278842210769653
110,50543163,0.5065862,0.3879683,-0.5435843,0.545314,9.456520080566406,-1.8944027423858643,1.1462489366531372,-7.326398849487305,-0.6158831119537354, -1.0540140867233276
111,50559830,0.50693005,0.3876928,-0.543922,0.5448534,9.454544067382812,-1.9084974527359009,1.1636221408843994,-6.099690914154053,-0.31125834584236145, -1.0289901494979858
112,50576497,0.50719047,0.3875119,-0.5441331,0.54452896,9.460091590881348,-1.905983805656433,1.1242789030075073,-4.5297088623046875,-0.18436023592948914, -0.9275383949279785
113,50593164,0.5073489,0.38744465,-0.54418224,0.5443802,9.451905250549316,-1.8867427110671997,1.151648759841919,-3.2086565494537354,0.16545161604881287, -0.8555665612220764
114,50609831,0.50750154,0.38738048,-0.5441817,0.54428375,9.44614315032959,-1.9012378454208374,1.1693487167358398,-2.307025671005249,0.3404248058795929, -0.7381964325904846
115,50626498,0.50763166,0.3873568,-0.5441385,0.54422253,9.457847595214844,-1.898599624633789,1.180557370185852,-1.7195980548858643,0.32354602217674255, -0.7832491397857666
116,50643165,0.50774884,0.38735464,-0.5440763,0.544177,9.460504531860352,-1.9064199924468994,1.1925833225250244,-1.4234514236450195,0.28478118777275085, -0.8034191727638245
117,50659832,0.5078553,0.3873628,-0.5439905,0.54415756,9.449880599975586,-1.9017767906188965,1.204588770866394,-1.2628470659255981,0.3714161813259125, -0.7826600670814514
118,50676499,0.50793993,0.38738215,-0.54388,0.54417527,9.467879295349121,-1.8866233825683594,1.1842739582061768,-0.9198417663574219,0.42247509956359863, -0.6758423447608948
119,50693166,0.508029,0.38741058,-0.5437352,0.5442166,9.462027549743652,-1.8994542360305786,1.1805086135864258,-0.6795690059661865,0.5827081203460693, -0.7325872778892517
120,50709833,0.5081035,0.38745975,-0.54350203,0.544345,9.465649604797363,-1.8903042078018188,1.1809802055358887,0.033072397112846375,0.9969038963317871, -0.6911202669143677
121,50726500,0.50815165,0.38754314,-0.5431938,0.5445484,9.466273307800293,-1.8783257007598877,1.184824824333191,0.8597734570503235,1.212831735610962, -0.6480909585952759
122,50743167,0.5081881,0.38765252,-0.5428301,0.54479885,9.465082168579102,-1.8936073780059814,1.2238260507583618,1.4336389303207397,1.372552514076233, -0.6752020120620728
123,50759834,0.5082642,0.38771713,-0.5425461,0.5449649,9.456195831298828,-1.9036897420883179,1.2559655904769897,0.44483497738838196,1.2011395692825317, -0.7508363127708435
124,50776501,0.5083646,0.38773933,-0.54233146,0.5450691,9.451897621154785,-1.9069918394088745,1.2392778396606445,-0.3168034553527832,1.0459520816802979, -0.7211127877235413
125,50793168,0.50853235,0.38768375,-0.54225284,0.54503053,9.460288047790527,-1.909110426902771,1.2497751712799072,-1.7801593542099,0.7195183634757996, -0.8170194625854492
126,50809835,0.50871944,0.38761875,-0.5421985,0.54495615,9.450909614562988,-1.894408106803894,1.2523274421691895,-2.1037631034851074,0.642475426197052, -0.9174340963363647
127,50826502,0.50893146,0.3875597,-0.5421424,0.5448559,9.468923568725586,-1.887377381324768,1.239288330078125,-2.125431537628174,0.6193855404853821, -1.1147671937942505
128,50843169,0.5091328,0.3875046,-0.54208934,0.5447599,9.451153755187988,-1.8939579725265503,1.240714430809021,-2.2031147480010986,0.5843344330787659, -1.079677700996399
129,50859836,0.5093403,0.38743547,-0.54202425,0.54467994,9.46213436126709,-1.8901289701461792,1.232477068901062,-2.1807804107666016,0.7419677972793579, -1.0284522771835327
130,50876503,0.5095544,0.38739747,-0.5419537,0.5445766,9.474725723266602,-1.8851020336151123,1.254349708557129,-2.3729782104492188,0.6446397304534912, -1.2908800840377808
131,50893170,0.5097786,0.38732836,-0.5419087,0.5444606,9.467691421508789,-1.8714996576309204,1.2177395820617676,-2.4999148845672607,0.6386975049972534, -1.1709102392196655
132,50909837,0.50999796,0.38725638,-0.5418687,0.54434615,9.468421936035156,-1.8594450950622559,1.232540249824524,-2.4443352222442627,0.6006754636764526, -1.1148439645767212
133,50926504,0.51022404,0.38716704,-0.5418107,0.5442558,9.475677490234375,-1.8754303455352783,1.2520493268966675,-2.3649742603302,0.8120441436767578, -1.0365715026855469
134,50943171,0.5104451,0.38709116,-0.5417329,0.54418015,9.481297492980957,-1.8759807348251343,1.2416553497314453,-2.080660343170166,0.826195240020752, -1.0577020645141602
135,50959838,0.5106472,0.3870236,-0.541626,0.5441448,9.464323997497559,-1.8634945154190063,1.2642160654067993,-1.91510009765625,0.9635562300682068, -0.9734746217727661
136,50976505,0.5108523,0.38697234,-0.54147905,0.5441349,9.456555366516113,-1.8703489303588867,1.258633017539978,-1.6511868238449097,1.121291995048523, -1.065232276916504
137,50993172,0.51107466,0.3869095,-0.5413204,0.5441288,9.448203086853027,-1.8706945180892944,1.2699633836746216,-1.4246039390563965,1.2234740257263184, -1.074785828590393
138,51009839,0.5112591,0.3868998,-0.54112345,0.5441582,9.479127883911133,-1.8444572687149048,1.2485263347625732,-1.3009331226348877,1.1934175491333008, -1.159896731376648
139,51026506,0.5114886,0.38686636,-0.540925,0.54416364,9.464301109313965,-1.8546122312545776,1.2685163021087646,-1.1377674341201782,1.2976866960525513, -1.2732841968536377
140,51043173,0.51167595,0.38687205,-0.54069835,0.54420865,9.471810340881348,-1.847273349761963,1.2910505533218384,-0.833834171295166,1.2326302528381348, -1.2206499576568604
141,51059840,0.51189667,0.38686308,-0.5404813,0.54422295,9.46237564086914,-1.8686349391937256,1.292280912399292,-0.9673787951469421,1.2587169408798218, -1.352977991104126
142,51076507,0.51218826,0.38675466,-0.5403819,0.5441243,9.46802043914795,-1.8644134998321533,1.3596564531326294,-2.3704166412353516,1.1740540266036987, -1.335062026977539
143,51093174,0.51258355,0.3864911,-0.54049677,0.54382557,9.465176582336426,-1.858262538909912,1.3106536865234375,-5.0899481773376465,0.9119594097137451, -1.3242919445037842
144,51109841,0.5130917,0.38609552,-0.5407879,0.5433375,9.47775650024414,-1.8875213861465454,1.3411178588867188,-6.79555082321167,0.6105877161026001, -1.4042679071426392
145,51126508,0.5136166,0.3856743,-0.54117346,0.5427567,9.450183868408203,-1.8404345512390137,1.3197720050811768,-7.907294750213623,0.2354768067598343, -1.4849733114242554
146,51143175,0.51412505,0.38529277,-0.54151237,0.54220784,9.466203689575195,-1.8129879236221313,1.2795065641403198,-7.348464012145996,0.2512670159339905, -1.5717620849609375
147,51159842,0.51458323,0.38494813,-0.5418393,0.54169124,9.468890190124512,-1.8261233568191528,1.3149280548095703,-7.141319751739502,0.09340311586856842, -1.4636889696121216
148,51176509,0.51506007,0.38460788,-0.542133,0.54118556,9.460384368896484,-1.826540231704712,1.2691168785095215,-6.67190408706665,0.21931515634059906, -1.557815670967102
149,51193176,0.5154617,0.38437742,-0.5422657,0.5408339,9.477328300476074,-1.8107514381408691,1.2717961072921753,-5.192565441131592,0.5584401488304138, -1.5998975038528442
150,51209843,0.515818,0.38421577,-0.54229313,0.5405816,9.463418960571289,-1.8092774152755737,1.2633836269378662,-3.890364408493042,0.7305318713188171, -1.5915859937667847
151,51226510,0.5161328,0.3841003,-0.54222476,0.5404318,9.469734191894531,-1.8134608268737793,1.2781871557235718,-2.9447429180145264,1.0236819982528687, -1.5054118633270264
152,51243177,0.51644695,0.38400468,-0.54212046,0.540304,9.466221809387207,-1.829054832458496,1.3130278587341309,-2.628324031829834,1.1229054927825928, -1.5895112752914429
153,51259844,0.5167958,0.38388816,-0.5420408,0.540133,9.467040061950684,-1.8204349279403687,1.2941546440124512,-2.787045478820801,1.0717825889587402, -1.6980066299438477
154,51276511,0.517132,0.38376635,-0.5419666,0.53997236,9.470612525939941,-1.804714560508728,1.3270673751831055,-2.899728775024414,1.0746256113052368, -1.5973615646362305
155,51293178,0.51746297,0.38367596,-0.54186386,0.5398226,9.480441093444824,-1.7845849990844727,1.3049263954162598,-2.707864284515381,1.077839970588684, -1.7409719228744507
156,51309845,0.5177959,0.3836097,-0.54173183,0.53968304,9.46902084350586,-1.7913182973861694,1.3132424354553223,-2.4078497886657715,1.1077301502227783, -1.8678059577941895
157,51326512,0.51812583,0.3835442,-0.5416076,0.5395374,9.476996421813965,-1.8094905614852905,1.3294916152954102,-2.5466578006744385,1.0628693103790283, -1.8714302778244019
158,51343179,0.5185404,0.38336542,-0.54163295,0.53924084,9.48246955871582,-1.8225396871566772,1.353912115097046,-4.25251579284668,0.8535497784614563, -1.9019482135772705
159,51359846,0.5190252,0.38308346,-0.54179853,0.5388082,9.486551284790039,-1.7972385883331299,1.3606809377670288,-5.869521617889404,0.6396707892417908, -1.9000012874603271
160,51376513,0.5195542,0.3827571,-0.5420475,0.53828007,9.462896347045898,-1.7893333435058594,1.3658742904663086,-6.688450336456299,0.38855114579200745, -2.0051801204681396
161,51393180,0.5200957,0.3824342,-0.54233676,0.5376946,9.466047286987305,-1.7744641304016113,1.3152910470962524,-7.2741618156433105,0.15834413468837738, -2.1872735023498535
162,51409847,0.5206594,0.38206884,-0.5427209,0.53702104,9.477361679077148,-1.7793797254562378,1.3547694683074951,-8.119649887084961,-0.18630681931972504, -2.1707534790039062
163,51426514,0.52124244,0.38166413,-0.5431158,0.5363434,9.482677459716797,-1.7543085813522339,1.3232059478759766,-8.24148941040039,-0.049355681985616684, -2.065972089767456
164,51443181,0.52182996,0.38122734,-0.5435469,0.53564566,9.479145050048828,-1.7648911476135254,1.3099805116653442,-8.640766143798828,-0.08956761658191681, -1.9459377527236938
165,51459848,0.522484,0.38071045,-0.5440704,0.53484344,9.490678787231445,-1.773319125175476,1.3152955770492554,-9.674751281738281,-0.18624278903007507, -2.0043222904205322
166,51476515,0.5231304,0.38020867,-0.54454106,0.5340891,9.474137306213379,-1.762872338294983,1.2705975770950317,-9.384675025939941,0.06999312341213226, -2.0185372829437256
167,51493182,0.523747,0.37977034,-0.5449095,0.5334204,9.484817504882812,-1.736377239227295,1.294416904449463,-8.334029197692871,0.30532264709472656, -2.0990636348724365
168,51509849,0.5243179,0.37934947,-0.54524547,0.5328156,9.483368873596191,-1.7509305477142334,1.3388334512710571,-7.850536823272705,0.3606076240539551, -1.857100248336792
169,51526516,0.52490884,0.3788964,-0.54561603,0.5321763,9.493746757507324,-1.7474559545516968,1.2991989850997925,-8.18917465209961,0.3167458772659302, -1.8324992656707764
170,51543183,0.52546763,0.37848434,-0.54590046,0.53162605,9.482433319091797,-1.7043707370758057,1.2720544338226318,-7.360540866851807,0.594195544719696, -1.7774959802627563
171,51559850,0.5260058,0.3780783,-0.54617554,0.53109986,9.479092597961426,-1.7212873697280884,1.2905687093734741,-7.0111823081970215,0.5606043934822083, -1.6416972875595093
172,51576517,0.52649736,0.3776594,-0.5464829,0.5305945,9.507119178771973,-1.7130630016326904,1.3425301313400269,-7.15043830871582,0.3990778923034668, -1.2821590900421143
173,51593184,0.52701086,0.37716275,-0.54686767,0.53004134,9.492243766784668,-1.7244553565979004,1.285939335823059,-7.884026050567627,0.34234580397605896, -1.0319230556488037
174,51609851,0.52746755,0.3767576,-0.5471644,0.5295686,9.474830627441406,-1.7162545919418335,1.2617623805999756,-6.819434642791748,0.3266964852809906, -1.1081209182739258
175,51626518,0.5278675,0.37643418,-0.547382,0.52917504,9.476903915405273,-1.7174315452575684,1.2514612674713135,-5.727499008178711,0.29398900270462036, -1.1176998615264893
176,51643185,0.52822644,0.3761907,-0.54750645,0.5288613,9.497896194458008,-1.7431076765060425,1.2483437061309814,-4.7248005867004395,0.39871931076049805, -1.2227375507354736
177,51659852,0.5285786,0.3759634,-0.54758066,0.5285941,9.497795104980469,-1.719074010848999,1.2882295846939087,-4.273889064788818,0.6136098504066467, -1.2174612283706665
178,51676519,0.52888083,0.37579483,-0.54759544,0.5283962,9.477639198303223,-1.6838427782058716,1.2800805568695068,-3.5470774173736572,0.6213448643684387, -1.1681952476501465
179,51693186,0.52916574,0.37558502,-0.5476274,0.5282272,9.495118141174316,-1.7111833095550537,1.307315707206726,-3.5270609855651855,0.7011029124259949, -0.7868093848228455
180,51709853,0.52941823,0.37540108,-0.54761225,0.5281206,9.487372398376465,-1.6864392757415771,1.2965354919433594,-2.892263174057007,0.8040147423744202, -0.6530598402023315
181,51726520,0.52962303,0.37526932,-0.54753786,0.528086,9.478619575500488,-1.7144737243652344,1.282531976699829,-2.1913459300994873,0.852691650390625, -0.5765162706375122
182,51743187,0.5298206,0.37514207,-0.54743886,0.52808094,9.488131523132324,-1.6983287334442139,1.2898187637329102,-1.8163374662399292,0.946293294429779, -0.5040323138237
183,51759854,0.52998245,0.37504575,-0.54731023,0.5281201,9.498409271240234,-1.7028807401657104,1.3175723552703857,-1.3917558193206787,0.929555356502533, -0.4100721776485443
184,51776521,0.5301255,0.37497208,-0.54715884,0.5281857,9.497476577758789,-1.7086673974990845,1.303022861480713,-1.097107172012329,0.9287868738174438, -0.3899405300617218
185,51793188,0.5302524,0.3749403,-0.546965,0.5282817,9.483708381652832,-1.7231254577636719,1.3389346599578857,-0.6954232454299927,0.9580366015434265, -0.49342861771583557
186,51809855,0.53039074,0.37494677,-0.54671425,0.52839786,9.486842155456543,-1.7078845500946045,1.324953556060791,-0.28756657242774963,1.114683747291565, -0.748838484287262
187,51826522,0.53053284,0.37492183,-0.5465043,0.52848995,9.490662574768066,-1.7010308504104614,1.3175534009933472,-0.6861129999160767,1.0345673561096191, -0.6291888356208801
188,51843189,0.5306431,0.3749014,-0.5462791,0.5286266,9.48395824432373,-1.6986275911331177,1.3334686756134033,-0.3657621443271637,1.0687730312347412, -0.4062557816505432
189,51859856,0.5307279,0.37487677,-0.54604644,0.5287994,9.477141380310059,-1.6696584224700928,1.3390498161315918,-0.18163245916366577,1.110970139503479, -0.1870751678943634
190,51876523,0.53079396,0.3748625,-0.54577965,0.5290184,9.487960815429688,-1.6925885677337646,1.3310072422027588,0.15168482065200806,1.2530566453933716, -0.0801677480340004
191,51893190,0.53088707,0.37487173,-0.545463,0.529245,9.490081787109375,-1.733467936515808,1.2984684705734253,0.5001327395439148,1.4467909336090088, -0.35021525621414185
192,51909857,0.53104126,0.3748948,-0.54507375,0.5294749,9.490527153015137,-1.7360190153121948,1.312581181526184,0.6949942111968994,1.8950133323669434, -0.7965421080589294
193,51926524,0.5312316,0.37495086,-0.5445845,0.52974766,9.477340698242188,-1.7288497686386108,1.3191641569137573,1.1139411926269531,2.4098031520843506, -1.170615553855896
194,51943191,0.5314736,0.3750536,-0.5439724,0.5300612,9.49781608581543,-1.711927056312561,1.3208600282669067,1.7924602031707764,2.9799163341522217, -1.6970977783203125
195,51959858,0.5317552,0.3751919,-0.54321164,0.5304608,9.498303413391113,-1.7063909769058228,1.3219586610794067,2.6043827533721924,3.7784175872802734, -2.0539722442626953
196,51976525,0.5320575,0.37541652,-0.5423171,0.53091407,9.488819122314453,-1.7148438692092896,1.338246464729309,3.690258502960205,4.144768714904785, -2.5836427211761475
197,51993192,0.5324261,0.37570408,-0.5413192,0.53135914,9.471176147460938,-1.7274893522262573,1.3820914030075073,4.222043037414551,4.497149467468262, -3.341228723526001
198,52009859,0.53282875,0.37608835,-0.54027605,0.5317452,9.481298446655273,-1.7097989320755005,1.4599785804748535,4.130374431610107,4.337120532989502, -4.201507568359375
199,52026526,0.53331167,0.37648258,-0.5392916,0.5319814,9.492949485778809,-1.704967975616455,1.5179756879806519,3.1881606578826904,3.9910032749176025, -4.931239128112793
200,52043193,0.533913,0.3768451,-0.5383972,0.5320275,9.487617492675781,-1.683415174484253,1.5433520078659058,1.7373676300048828,3.7162179946899414, -5.713336944580078
201,52059860,0.53456265,0.37719324,-0.5376164,0.53191805,9.480386734008789,-1.672250747680664,1.558524489402771,0.3957098722457886,3.1498565673828125, -6.13954496383667
202,52076527,0.53535104,0.37740198,-0.53710103,0.5314978,9.493937492370605,-1.6291284561157227,1.5711201429367065,-2.448561906814575,2.357015371322632, -6.567724704742432
203,52093194,0.5362117,0.37750646,-0.53673905,0.5309209,9.479551315307617,-1.615311622619629,1.5383691787719727,-4.010001182556152,2.0015368461608887, -6.605477333068848
204,52109861,0.5370412,0.37772286,-0.5364138,0.5302571,9.482864379882812,-1.5830422639846802,1.5585986375808716,-4.49505615234375,1.1996158361434937, -7.205595970153809
205,52126528,0.5378361,0.37803435,-0.5362044,0.52944064,9.47320556640625,-1.5731379985809326,1.6094070672988892,-4.992568492889404,-0.11491138488054276, -7.686679840087891
206,52143195,0.5386115,0.37848082,-0.5361673,0.52836984,9.457757949829102,-1.6100095510482788,1.6804214715957642,-5.763730525970459,-2.027322769165039, -8.572291374206543
207,52159862,0.53931767,0.37921757,-0.53631556,0.526969,9.422104835510254,-1.6121832132339478,1.7274565696716309,-6.405074596405029,-4.895243167877197, -10.135527610778809
208,52176529,0.5398656,0.3803599,-0.5366992,0.5251909,9.425162315368652,-1.5647324323654175,1.8075189590454102,-6.790816307067871,-8.811775207519531, -11.85300350189209
209,52193196,0.54023653,0.38190535,-0.53743696,0.5229287,9.441326141357422,-1.5545023679733276,1.9056094884872437,-7.858423233032227,-13.531222343444824, -13.568962097167969
210,52209863,0.54042566,0.38387132,-0.53857464,0.5201157,9.43891716003418,-1.5787767171859741,1.9458084106445312,-9.485480308532715,-18.645767211914062, -15.490249633789062
211,52226530,0.54041874,0.3862478,-0.54022133,0.5166443,9.522235870361328,-1.4905579090118408,1.9479973316192627,-11.595476150512695,-24.519577026367188, -17.399938583374023
212,52243197,0.5402802,0.38897178,-0.5425628,0.5122733,9.598432540893555,-1.4675334692001343,2.003509283065796,-14.88955307006836,-31.376066207885742, -19.617387771606445
213,52259864,0.5398871,0.39217192,-0.54565924,0.5069312,9.799606323242188,-1.3825732469558716,2.043764114379883,-18.938114166259766,-39.414588928222656, -22.112924575805664
214,52276531,0.5397628,0.3949129,-0.54978496,0.50043625,10.12177848815918,-1.6360725164413452,2.4478204250335693,-30.187599182128906,-43.66172790527344, -22.915172576904297
215,52293198,0.539598,0.39778915,-0.5548254,0.49271363,10.33995246887207,-1.3447577953338623,2.440302610397339,-37.01570510864258,-51.1299934387207, -25.33379364013672
216,52309865,0.5392538,0.4016723,-0.5598481,0.48418477,10.920836448669434,-1.8392009735107422,2.90063738822937,-35.87678146362305,-57.437232971191406, -31.604589462280273
217,52326532,0.53865695,0.40628022,-0.5652941,0.4745819,10.95754623413086,-2.3242616653442383,2.6609301567077637,-38.10111618041992,-65.4631118774414, -36.385562896728516
218,52343199,0.5375834,0.4121342,-0.5705969,0.4642939,11.016680717468262,-2.051220417022705,2.040201187133789,-34.24806213378906,-72.88729858398438, -42.6495475769043
219,52359866,0.535988,0.41866857,-0.57574666,0.45381662,11.077025413513184,-2.1491832733154297,1.538275957107544,-30.576051712036133,-77.162353515625, -44.81928634643555
220,52376533,0.5342764,0.4251392,-0.5808327,0.4432143,10.86460018157959,-2.0528454780578613,0.7696955800056458,-29.728235244750977,-77.6988754272461, -44.916664123535156
221,52393200,0.5327455,0.43143636,-0.5856087,0.43255943,10.490117073059082,-2.074795961380005,-0.2520955801010132,-30.15537452697754,-75.50041198730469, -45.942386627197266
222,52409867,0.5300244,0.43838757,-0.5886718,0.42468357,10.064290046691895,-3.1046652793884277,-0.12384628504514694,-7.942506790161133,-67.71685791015625, -40.01083755493164
223,52426534,0.52658385,0.44486973,-0.5892789,0.4213678,9.140191078186035,-2.782008171081543,2.8463573455810547,18.137664794921875,-46.58123779296875, -26.91841697692871
224,52443201,0.52396816,0.44864422,-0.5884554,0.42177743,8.137430191040039,-2.667909860610962,4.701359748840332,25.03479766845703,-18.988162994384766, -9.326452255249023
225,52459868,0.5237608,0.44907185,-0.58647305,0.42433304,8.596025466918945,-1.8119195699691772,4.395089626312256,17.573673248291016,11.001087188720703, 1.2928861379623413
226,52476535,0.5249619,0.44639263,-0.5830529,0.43034655,7.614014625549316,-3.086732864379883,5.190850257873535,20.16053581237793,41.36292266845703, 17.67258644104004
227,52493202,0.52687335,0.44181275,-0.5776464,0.43992123,7.88784122467041,-2.7051336765289307,4.406564712524414,31.25006675720215,67.66989135742188, 29.839590072631836
228,52509869,0.52947795,0.43540165,-0.57046616,0.45237935,8.432449340820312,-2.405503511428833,3.923555850982666,39.308921813964844,90.92733764648438, 39.99586868286133
229,52526536,0.5323378,0.42753905,-0.561721,0.46722195,8.859655380249023,-2.3873684406280518,3.412637710571289,47.46305465698242,109.09194946289062, 48.84003448486328
230,52543203,0.5352895,0.41858172,-0.55158603,0.48374322,9.24752426147461,-2.259351968765259,2.9250142574310303,54.118900299072266,122.83748626708984, 54.79353332519531
231,52559870,0.53800243,0.40886366,-0.54040456,0.5013449,9.643392562866211,-2.342259407043457,2.469712495803833,59.569427490234375,131.31483459472656, 59.41816711425781
232,52576537,0.54026026,0.39855322,-0.5285512,0.5195266,10.286971092224121,-2.171067476272583,1.8974121809005737,63.117244720458984,135.7124786376953, 63.43406295776367
233,52593204,0.54292613,0.38650098,-0.5167579,0.53741014,11.257523536682129,-1.5570273399353027,1.217164158821106,54.22211837768555,142.3607940673828, 67.36811828613281
234,52609871,0.5457794,0.37289432,-0.5053488,0.5547049,11.772612571716309,-1.4111204147338867,0.49399805068969727,44.40216064453125,145.81686401367188, 71.05902099609375
235,52626538,0.5480669,0.35850376,-0.49429935,0.5716346,11.40108585357666,-1.2702429294586182,0.06043387949466705,40.26727294921875,144.66421508789062, 75.54004669189453
236,52643205,0.5496652,0.34402645,-0.4841767,0.5874412,10.829771041870117,-1.0960838794708252,-0.40484318137168884,34.177772521972656,136.54861450195312, 76.6513442993164
237,52659872,0.5500817,0.3307858,-0.47536838,0.6016777,10.38890266418457,-1.0212619304656982,-0.74997878074646,31.11320686340332,119.11720275878906, 74.54426574707031
238,52676539,0.5492707,0.31981102,-0.46746114,0.61441255,9.861237525939941,-0.6587085723876953,-1.0990219116210938,33.847469329833984,99.11170959472656, 68.65575408935547
239,52693206,0.5477758,0.31138664,-0.4608104,0.6250071,9.392705917358398,-0.3180423080921173,-1.3939563035964966,32.80473327636719,76.91008758544922, 58.112117767333984
240,52709873,0.54586935,0.30599365,-0.45549583,0.63318104,8.958902359008789,0.15282832086086273,-1.823076844215393,31.70491600036621,52.59910583496094, 44.119529724121094
241,52726540,0.54396254,0.30348867,-0.4520308,0.6384887,8.668886184692383,0.4430682361125946,-2.071303606033325,25.530841827392578,27.302509307861328, 28.323734283447266
242,52743207,0.5420276,0.30346274,-0.45077834,0.6410269,8.485493659973145,0.49765321612358093,-2.1831178665161133,16.556838989257812,2.534234046936035, 15.121373176574707
243,52759874,0.53978795,0.30465662,-0.45242187,0.6411926,9.605327606201172,-0.6442011594772339,-1.709937572479248,1.6408482789993286,-19.273895263671875, 10.001627922058105
244,52776541,0.5370592,0.30841985,-0.45732665,0.6381983,8.128968238830566,1.2881897687911987,-3.365278720855713,-11.970963478088379,-50.59321594238281, -0.6501076817512512
245,52793208,0.5363947,0.3098525,-0.46517938,0.63236094,11.086538314819336,-2.7892017364501953,3.5116305351257324,-46.806758880615234,-50.509788513183594, -6.488369464874268
246,52809875,0.53429693,0.31218284,-0.46935526,0.62990034,7.946004390716553,-4.60651969909668,8.40212631225586,-13.645589828491211,-38.190494537353516, 1.5059648752212524
247,52826542,0.5341631,0.31445423,-0.4751727,0.6244994,9.680691719055176,0.014132093638181686,4.867873668670654,-34.6961784362793,-44.13806915283203, -14.178359031677246
248,52843209,0.53261393,0.31784016,-0.48166624,0.61911047,11.113136291503906,-1.9541219472885132,3.4609270095825195,-30.456401824951172,-56.0405158996582, -10.127717971801758
249,52859876,0.53148973,0.32266602,-0.48952156,0.6113708,11.08355712890625,-1.5366445779800415,2.4613397121429443,-39.69630813598633,-70.85404205322266, -22.292724609375
250,52876543,0.52703935,0.3296812,-0.49771276,0.6048322,10.386382102966309,-3.4969236850738525,0.7113448977470398,-21.68216896057129,-89.75473022460938, -10.483993530273438
251,52893210,0.5219464,0.33767822,-0.5043842,0.5992847,9.87110424041748,-1.5656611919403076,2.08805251121521,-6.910922527313232,-88.17527770996094, -11.05134391784668
252,52909877,0.5167822,0.34511092,-0.50992906,0.59481674,9.40569019317627,-2.042874336242676,1.4977000951766968,-0.38159939646720886,-79.51123809814453, -7.498170852661133
253,52926544,0.5112567,0.35235983,-0.51454884,0.59135354,9.471473693847656,-2.7252941131591797,1.1486659049987793,7.142120361328125,-74.3111343383789, -3.9825587272644043
254,52943211,0.5066737,0.3593402,-0.51831543,0.5877974,9.75439167022705,-2.3006110191345215,1.4731225967407227,7.0750532150268555,-67.06237030029297, -9.26941204071045
255,52959878,0.5024361,0.36601394,-0.5220966,0.58395815,9.17251205444336,-2.8425986766815186,1.534359097480774,4.096219062805176,-65.31217193603516, -10.515314102172852
256,52976545,0.49897867,0.37255815,-0.5252756,0.57991934,9.903185844421387,-2.319780111312866,1.3694287538528442,3.398768663406372,-60.39992904663086, -15.408823013305664
257,52993212,0.49654153,0.37786755,-0.5283274,0.575789,9.839301109313965,-1.7882742881774902,1.076511263847351,-3.2660367488861084,-51.56963348388672, -15.652875900268555
258,53009879,0.49417996,0.38203958,-0.5311931,0.57242113,9.871956825256348,-1.450538992881775,1.0009652376174927,-3.834146022796631,-44.15203857421875, -9.6787109375
259,53026546,0.49169546,0.3851715,-0.53390145,0.56993663,9.790457725524902,-1.6224950551986694,0.9893725514411926,-3.1963653564453125,-37.63257598876953, -2.7730491161346436
260,53043213,0.4891988,0.38754103,-0.53646564,0.56806797,9.639921188354492,-1.8748714923858643,1.0532761812210083,-2.9131226539611816,-32.55541229248047, 1.7979222536087036
261,53059880,0.48672646,0.38949373,-0.5388041,0.5666412,9.461784362792969,-2.066389322280884,0.9391463398933411,-1.8648662567138672,-28.892288208007812, 4.13839054107666
262,53076547,0.48426318,0.3913844,-0.54060453,0.56573343,9.340456008911133,-2.1693644523620605,0.7737895846366882,1.9250614643096924,-25.4189453125, 4.633494853973389
263,53093214,0.4818587,0.39336714,-0.5418194,0.56524897,9.286392211914062,-2.355769634246826,0.8586658835411072,5.929856777191162,-22.458179473876953, 3.8950140476226807
264,53109881,0.47979063,0.39530393,-0.542775,0.5647399,9.28240966796875,-2.4509103298187256,0.9808316826820374,5.787589073181152,-20.228891372680664, 1.967385172843933
265,53126548,0.47806528,0.39724678,-0.54367495,0.5639737,9.291559219360352,-2.49973201751709,0.9720414280891418,4.133760929107666,-19.490333557128906, -0.3969974219799042
266,53143215,0.4767322,0.39932352,-0.5444515,0.5628853,9.339800834655762,-2.5444040298461914,0.887690007686615,2.778078556060791,-19.021013259887695, -3.8286936283111572
267,53159882,0.47577927,0.40172574,-0.54523045,0.56122583,9.368992805480957,-2.5143063068389893,0.8987864255905151,0.6558718681335449,-20.434934616088867, -8.397355079650879
268,53176549,0.47492316,0.40461552,-0.5461745,0.55895257,9.442815780639648,-2.4204928874969482,0.8144130110740662,-0.9532174468040466,-24.192689895629883, -12.164578437805176
269,53193216,0.47437504,0.40769753,-0.5469148,0.55644906,9.467141151428223,-2.32612943649292,0.7114662528038025,-1.2626582384109497,-23.7528076171875, -15.399650573730469
270,53209883,0.47390348,0.41087183,-0.5475205,0.5539146,9.548425674438477,-2.118178606033325,0.47849681973457336,-0.7769123315811157,-23.467731475830078, -16.52647590637207
271,53226550,0.4735022,0.41390234,-0.54801565,0.55150664,9.505332946777344,-2.110349178314209,0.36769214272499084,-0.5449627041816711,-21.932693481445312, -16.15426254272461
272,53243217,0.47323874,0.41666165,-0.548521,0.54914767,9.49075984954834,-2.0745999813079834,0.3973372280597687,-1.671872854232788,-20.27178382873535, -15.469657897949219
273,53259884,0.47315672,0.41921017,-0.5489761,0.5468189,9.501993179321289,-2.032914876937866,0.40213191509246826,-2.573620557785034,-18.538856506347656, -15.408055305480957
274,53276551,0.47325426,0.42152816,-0.54952425,0.54439664,9.516483306884766,-1.8959240913391113,0.4162452816963196,-4.5418701171875,-17.564762115478516, -15.25372314453125
275,53293218,0.47349796,0.42367175,-0.5501164,0.54191697,9.511147499084473,-1.8733255863189697,0.3883756101131439,-5.913830757141113,-16.67106819152832, -15.20080852508545
276,53309885,0.47387335,0.42557865,-0.55088216,0.539311,9.49548053741455,-1.7983418703079224,0.3682447671890259,-8.193402290344238,-16.225879669189453, -14.702509880065918
277,53326552,0.47426286,0.42736155,-0.55175257,0.53666216,9.513895988464355,-1.7892100811004639,0.32014793157577515,-9.189827919006348,-16.183183670043945, -14.118156433105469
278,53343219,0.47466835,0.4291162,-0.55266994,0.5339526,9.531331062316895,-1.7144436836242676,0.3338693380355835,-9.732025146484375,-16.35247230529785, -14.130821228027344
279,53359886,0.47507086,0.43080592,-0.5537207,0.5311381,9.562507629394531,-1.5754690170288086,0.17700448632240295,-10.824256896972656,-16.876705169677734, -13.821358680725098
280,53376553,0.47552505,0.43235382,-0.5548877,0.5282483,9.557672500610352,-1.5705528259277344,0.11349526047706604,-12.15180492401123,-16.766096115112305, -13.367232322692871
281,53393220,0.47599745,0.43381178,-0.5562227,0.5252148,9.582104682922363,-1.5964317321777344,0.09964920580387115,-13.657913208007812,-17.347753524780273, -13.057485580444336
282,53409887,0.47662175,0.43514818,-0.5577425,0.52192074,9.591655731201172,-1.720599889755249,0.08890870213508606,-16.172374725341797,-17.712894439697266, -13.441143989562988
283,53426554,0.47734138,0.4362883,-0.55954194,0.5183733,9.594738006591797,-1.5801044702529907,0.07469651848077774,-19.07626724243164,-18.32192039489746, -13.028962135314941
284,53443221,0.4781517,0.43732345,-0.5616599,0.514449,9.549558639526367,-1.5265734195709229,0.2818276882171631,-22.277690887451172,-19.78031349182129, -13.231161117553711
285,53459888,0.4787215,0.43869781,-0.5644476,0.5096755,9.393383979797363,-1.6122660636901855,0.5120167136192322,-26.08924102783203,-26.680349349975586, -14.468374252319336
286,53476555,0.4791155,0.4408104,-0.5677147,0.5038202,9.216384887695312,-1.6738241910934448,0.5504803657531738,-29.010358810424805,-34.8171501159668, -18.838581085205078
287,53493222,0.47905222,0.4440488,-0.5712462,0.496999,9.117444038391113,-1.6489627361297607,0.5364025831222534,-28.605167388916016,-44.3311882019043, -24.04127311706543
288,53509889,0.47870755,0.4483002,-0.57489365,0.4892479,9.266833305358887,-1.4638127088546753,0.40652909874916077,-28.461130142211914,-52.152671813964844, -29.78060531616211
289,53526556,0.47799695,0.45341793,-0.5788074,0.48053464,9.717266082763672,-1.1075944900512695,0.4181317389011383,-29.18205451965332,-60.38851547241211, -34.32879638671875
290,53543223,0.47734502,0.45948586,-0.5831982,0.4699944,10.730940818786621,-1.6835448741912842,0.7588045001029968,-35.08993148803711,-70.59844207763672, -42.8193359375
291,53559890,0.47705778,0.46687105,-0.5874656,0.45752782,12.159811019897461,-2.4871716499328613,1.6121145486831665,-39.24861145019531,-79.13756561279297, -56.01010513305664
292,53576557,0.47709522,0.47489744,-0.59293956,0.44190025,13.852187156677246,-2.944675922393799,3.9818015098571777,-54.76005935668945,-94.05364227294922, -66.16716766357422
293,53593224,0.47618985,0.48397124,-0.6014912,0.4209799,15.238057136535645,-2.4501993656158447,5.0124335289001465,-79.1934814453125,-128.66831970214844, -74.96074676513672
294,53609891,0.47263476,0.4945073,-0.61218226,0.3966258,15.617605209350586,-1.6894536018371582,4.720108985900879,-85.99504852294922,-162.55783081054688, -77.5352554321289
295,53626558,0.46742514,0.50633967,-0.62353575,0.3692388,15.638481140136719,-1.0467867851257324,3.8428890705108643,-90.73202514648438,-185.7978515625, -86.14961242675781
296,53643225,0.46031052,0.5205061,-0.633134,0.34107092,15.240246772766113,-4.954193115234375,0.8892929553985596,-75.47543334960938,-197.2296600341797, -100.00399780273438
297,53659892,0.45252705,0.53627837,-0.64004856,0.3129907,15.697542190551758,-4.514878749847412,-4.37733793258667,-61.35005569458008,-195.2744140625, -114.95606231689453
298,53676559,0.44708997,0.5505377,-0.6444516,0.28583473,14.853099822998047,-1.6043082475662231,-4.471760272979736,-65.28148651123047,-170.4988250732422, -119.92513275146484
299,53693226,0.44175515,0.5606988,-0.64772415,0.26631388,11.198623657226562,-3.810065984725952,1.715067744255066,-42.22940444946289,-129.64862060546875, -82.87703704833984
300,53709893,0.43940207,0.56593394,-0.650009,0.25324544,7.237288475036621,-3.866959810256958,6.385412693023682,-38.18024826049805,-79.66787719726562, -50.77653503417969
301,53726560,0.4420748,0.56577474,-0.6513701,0.24532865,6.593249320983887,-4.156039237976074,5.287461757659912,-49.41883087158203,-25.25088119506836, -23.611637115478516
302,53743227,0.44583726,0.56308943,-0.6515829,0.2441302,5.087024211883545,-5.259658336639404,4.503177165985107,-29.339067459106445,13.28880500793457, 1.6468960046768188
303,53759894,0.4509724,0.5582827,-0.65028226,0.24915388,6.471668720245361,-3.5917208194732666,2.2714903354644775,-10.790074348449707,51.5484733581543, 21.879484176635742
304,53776561,0.4574282,0.5513257,-0.6476347,0.25955585,6.426736831665039,-2.978994131088257,2.01609206199646,3.796147584915161,85.8217544555664, 40.606868743896484
305,53793228,0.46403962,0.5427743,-0.64377534,0.27498546,6.664718151092529,-3.023885726928711,1.1252632141113281,22.72264862060547,112.1026840209961, 58.547977447509766
306,53809895,0.4704034,0.5330331,-0.6383902,0.29505038,7.506039142608643,-2.8106272220611572,0.26048293709754944,43.23209762573242,135.31900024414062, 73.29426574707031
307,53826562,0.47695166,0.5219209,-0.6312955,0.31871977,8.053749084472656,-2.6581623554229736,-0.3930402994155884,57.39522171020508,157.56105041503906, 84.26648712158203
308,53843229,0.48399335,0.50915533,-0.62245536,0.3450521,8.442832946777344,-2.3380188941955566,-0.9653324484825134,65.57833099365234,178.53970336914062, 92.7830810546875
309,53859896,0.4918832,0.4943801,-0.61197805,0.37299132,9.125102996826172,-2.1681745052337646,-1.6971739530563354,66.68497467041016,197.96817016601562, 98.95803833007812
310,53876563,0.4998803,0.47794577,-0.5998874,0.40227252,9.935598373413086,-2.1632676124572754,-2.3333590030670166,70.504638671875,212.6810302734375, 104.70284271240234
311,53893230,0.5072199,0.46029583,-0.5861333,0.43278596,10.872471809387207,-2.0161125659942627,-2.6840741634368896,78.19377899169922,223.11643981933594, 110.30232238769531
312,53909897,0.51315343,0.44210818,-0.57061374,0.4643427,11.713017463684082,-1.6568892002105713,-2.726226329803467,90.25757598876953,228.5477294921875, 114.72451782226562
313,53926564,0.5168396,0.4243907,-0.5532345,0.49669018,12.427254676818848,-1.9213594198226929,-2.658308982849121,107.8216781616211,227.24697875976562, 117.24800872802734
314,53943231,0.5185801,0.4069384,-0.534783,0.5286621,13.298129081726074,-1.8014861345291138,-3.017181396484375,116.70785522460938,221.7198486328125, 118.49103546142578
315,53959898,0.5192476,0.38893455,-0.51603544,0.5593026,13.972149848937988,-1.0800957679748535,-3.4028520584106445,113.9543228149414,217.21420288085938, 118.93323516845703
316,53976565,0.519238,0.3696529,-0.49788916,0.588095,14.280272483825684,-0.5007333755493164,-3.577702760696411,102.36117553710938,212.78604125976562, 121.19950866699219
317,53993232,0.51943344,0.34822696,-0.48154554,0.6140368,14.629024505615234,0.16339822113513947,-4.198666095733643,77.15888214111328,208.6702423095703, 122.2476577758789
318,54009899,0.5196357,0.32657287,-0.4674761,0.63623536,13.248544692993164,1.756551742553711,-5.026670455932617,54.354827880859375,192.81439208984375, 115.1930160522461
319,54026566,0.52025926,0.3070863,-0.45586297,0.65361893,12.286661148071289,3.1972360610961914,-5.759891033172607,34.94593811035156,165.37828063964844, 94.86359405517578
320,54043233,0.52128196,0.29101548,-0.44761023,0.6657481,11.376564025878906,2.839169979095459,-6.545470714569092,14.758720397949219,128.4725799560547, 70.86105346679688
321,54059900,0.5204025,0.28085512,-0.44255847,0.6741245,10.00416374206543,2.3168046474456787,-8.192070960998535,13.567473411560059,76.91327667236328, 54.51373291015625
322,54076567,0.51993513,0.2758312,-0.44360083,0.6758722,9.99821662902832,3.724647283554077,-9.799439430236816,-17.22410774230957,20.117008209228516, 25.179100036621094
323,54093234,0.51934004,0.2760805,-0.45078397,0.67146087,9.825064659118652,2.9506747722625732,-10.77528190612793,-45.413230895996094,-38.00883102416992, -0.4927560091018677
324,54109901,0.5186173,0.2829004,-0.46018037,0.6627503,10.761543273925781,3.246126174926758,-8.112186431884766,-45.191898345947266,-84.38961791992188, -31.24745750427246
325,54126568,0.5187737,0.28776112,-0.4714488,0.6525366,12.551931381225586,-3.173055410385132,8.405562400817871,-67.14338684082031,-81.9336166381836, -30.583158493041992
326,54143235,0.5143867,0.29685524,-0.47606364,0.64857304,7.212987899780273,-3.8127312660217285,8.883849143981934,7.016103267669678,-79.62628173828125, -14.75428295135498
327,54159902,0.511755,0.3061376,-0.48277023,0.6413423,11.77436351776123,-2.505256175994873,4.582169055938721,-15.961999893188477,-88.94401550292969, -30.517459869384766
328,54176569,0.5078452,0.319629,-0.4881635,0.6337408,12.019193649291992,-1.7595508098602295,0.5415529608726501,6.084579944610596,-107.9052505493164, -42.88287353515625
329,54193236,0.5012098,0.3353644,-0.49579564,0.6249053,14.204118728637695,-3.934235095977783,-4.038698196411133,6.028822422027588,-137.26263427734375, -37.87154769897461
330,54209903,0.49184865,0.35400045,-0.4988381,0.61962056,11.100099563598633,-1.124125599861145,1.278328776359558,54.205177307128906,-134.7804412841797, -34.392887115478516
331,54226570,0.4845318,0.36882257,-0.50155866,0.6145227,9.877832412719727,-0.05056990683078766,-0.43335670232772827,38.34362030029297,-109.92281341552734, -30.128562927246094
332,54243237,0.4813216,0.37777403,-0.50475985,0.6089617,10.62842082977295,-1.4279221296310425,-0.16971364617347717,4.7481794357299805,-73.65311431884766, -27.49493408203125
333,54259904,0.47989583,0.38316485,-0.50761336,0.6043292,9.743613243103027,-2.4917654991149902,0.9283434748649597,-6.982861042022705,-48.92642593383789, -20.405498504638672
334,54276571,0.47886342,0.38694325,-0.51035637,0.60041785,9.57726764678955,-2.387608766555786,1.2850245237350464,-10.357880592346191,-38.56971740722656, -14.326092720031738
335,54293238,0.47741047,0.39064288,-0.5128235,0.59706753,9.25140380859375,-2.3691318035125732,1.0321134328842163,-6.387918949127197,-37.3137092590332, -11.201889991760254
336,54309905,0.4727541,0.3975351,-0.5152919,0.5940908,9.293148040771484,-2.488711357116699,1.1919610500335693,14.012625694274902,-60.70710372924805, -8.085734367370605
337,54326572,0.47231662,0.40127236,-0.51688385,0.59053266,9.582534790039062,-1.7890650033950806,1.2713581323623657,-6.251692295074463,-31.613134384155273, -18.437952041625977
338,54343239,0.47190046,0.4043423,-0.51864654,0.58721656,9.542511940002441,-2.080566883087158,1.45823335647583,-8.314414978027344,-28.72015953063965, -14.884496688842773
339,54359906,0.47123298,0.4071266,-0.52087915,0.5838429,9.666171073913574,-2.1022534370422363,1.3672908544540405,-10.647806167602539,-30.16073989868164, -11.729114532470703
340,54376573,0.4702964,0.40948778,-0.5236717,0.580439,9.561972618103027,-2.2559828758239746,1.1427421569824219,-13.623594284057617,-31.337051391601562, -7.661866188049316
341,54393240,0.46960503,0.41160595,-0.526559,0.5768775,9.518570899963379,-2.280552625656128,0.7721770405769348,-16.045747756958008,-30.24485969543457, -8.011187553405762
342,54409907,0.46924976,0.41385078,-0.52927965,0.5730582,9.531818389892578,-2.3099637031555176,0.9373422861099243,-16.85957145690918,-29.72468376159668, -11.110800743103027
343,54426574,0.4692323,0.41632056,-0.53190535,0.56883675,9.75794506072998,-2.0388059616088867,0.8444241285324097,-18.18557357788086,-30.228395462036133, -14.83225154876709
344,54443241,0.4690422,0.4184419,-0.5347072,0.5647959,9.88182258605957,-1.7102969884872437,0.5097864866256714,-18.845142364501953,-29.556438446044922, -11.793410301208496
345,54459908,0.46856806,0.41994324,-0.53777015,0.5611553,9.70586109161377,-1.7570223808288574,0.3301627039909363,-19.569936752319336,-27.886491775512695, -6.357507705688477
346,54476575,0.46826366,0.42121476,-0.5406746,0.5576547,9.567790031433105,-2.1070501804351807,0.3254261910915375,-19.670408248901367,-25.457799911499023, -6.160671234130859
347,54493242,0.46840608,0.42253488,-0.5434885,0.5537876,9.531352043151855,-2.095720052719116,0.43134331703186035,-21.822084426879883,-24.75591468811035, -9.498239517211914
348,54509909,0.46880096,0.42400384,-0.5462369,0.5496106,9.493969917297363,-2.0115156173706055,0.4357922673225403,-22.986005783081055,-25.076396942138672, -12.205570220947266
349,54526576,0.46934918,0.4255261,-0.5491345,0.5450602,9.44797420501709,-1.9894412755966187,0.40493983030319214,-25.22988510131836,-26.282188415527344, -13.754079818725586
350,54543243,0.46988997,0.42736936,-0.55226904,0.5399612,9.396747589111328,-2.0425541400909424,0.35334256291389465,-27.133657455444336,-29.894023895263672, -16.016176223754883
351,54559910,0.4704835,0.4296436,-0.5553328,0.53446937,9.343074798583984,-2.063993215560913,0.2716051936149597,-27.127321243286133,-32.2320556640625, -19.328989028930664
352,54576577,0.4712041,0.4323101,-0.5585458,0.52830076,9.167601585388184,-2.1360297203063965,0.28041547536849976,-29.370393753051758,-35.683380126953125, -23.047290802001953
353,54593244,0.47216094,0.4353406,-0.56203634,0.52120835,9.233558654785156,-2.1592419147491455,0.1439373791217804,-33.45259094238281,-39.759117126464844, -27.481033325195312
354,54609911,0.47351596,0.43860257,-0.5655603,0.5133738,9.325927734375,-2.142376661300659,-0.15720751881599426,-36.885562896728516,-41.39436340332031, -32.12249755859375
355,54626578,0.47523126,0.44210148,-0.56897545,0.50494444,9.564652442932129,-2.0347304344177246,-0.03134046494960785,-39.134742736816406,-42.28012466430664, -36.591861724853516
356,54643245,0.47664776,0.44628415,-0.5722799,0.49611825,9.543611526489258,-1.575439453125,-0.16226908564567566,-37.16716003417969,-46.68441390991211, -39.872440338134766
357,54659912,0.47773668,0.45125446,-0.5752156,0.48709807,9.582318305969238,-1.3427733182907104,-0.009166941046714783,-33.09235382080078,-50.06320571899414, -43.62413024902344
358,54676579,0.4782615,0.45760956,-0.5778124,0.47748604,9.517923355102539,-1.4131625890731812,0.4613091051578522,-28.005695343017578,-57.67835235595703, -50.20784378051758
359,54693246,0.47804198,0.46567178,-0.5805027,0.4665221,9.459555625915527,-1.2026026248931885,0.7434045076370239,-25.736610412597656,-70.8404769897461, -58.704978942871094
360,54709913,0.47704,0.4751699,-0.58376104,0.45372882,9.834202766418457,-1.6055289506912231,1.2332978248596191,-27.644086837768555,-86.3443603515625, -66.12811279296875
361,54726580,0.4756395,0.48553059,-0.58789015,0.43864873,11.989587783813477,-1.8878763914108276,1.7891342639923096,-35.41872024536133,-101.03214263916016, -73.02413177490234
362,54743247,0.47340667,0.49679562,-0.5930591,0.42114305,14.871856689453125,-1.9525326490402222,2.8797860145568848,-42.63439178466797,-118.72161102294922, -78.66117858886719
363,54759914,0.46907052,0.50979346,-0.60067666,0.3990883,15.971558570861816,-3.096330165863037,5.691403388977051,-55.460609436035156,-155.97731018066406, -86.12100219726562
364,54776581,0.46168575,0.52488667,-0.61225784,0.36943358,17.05771827697754,-3.388087272644043,7.8275837898254395,-80.30093383789062,-213.9974365234375, -97.11534881591797
365,54793248,0.45206636,0.54187584,-0.6257749,0.33228412,18.324134826660156,-1.9099041223526,6.335498332977295,-102.70740509033203,-261.7554931640625, -116.34554290771484
366,54809915,0.4398286,0.56062496,-0.63631237,0.29556265,16.652637481689453,-5.783347129821777,0.42018043994903564,-78.81539916992188,-266.48370361328125, -127.80327606201172
367,54826582,0.4289904,0.5793314,-0.6397667,0.2665358,17.53424644470215,-3.0828781127929688,-7.925882339477539,-36.31150817871094,-209.32237243652344, -134.6637725830078
368,54843249,0.41658908,0.5967485,-0.64005214,0.24632978,16.52001190185547,-2.0655088424682617,-6.619523525238037,10.670255661010742,-169.35504150390625, -112.83855438232422
369,54859916,0.40583515,0.60927093,-0.64013356,0.23305868,12.544913291931152,-2.990464448928833,-3.2570841312408447,20.706083297729492,-124.83072662353516, -75.15079498291016
370,54876583,0.39777997,0.6179206,-0.6394383,0.2259748,7.366156578063965,-4.126270294189453,2.043076276779175,27.014413833618164,-78.75727844238281, -48.51454544067383
371,54893250,0.39676103,0.6222949,-0.6366484,0.22362667,5.41674280166626,-3.904560089111328,4.425516128540039,9.461098670959473,-15.469318389892578, -36.69660568237305
372,54909917,0.40387735,0.62061125,-0.6331057,0.22561562,3.444697618484497,-4.482374668121338,5.828148365020752,-21.747316360473633,49.91464614868164, -14.175389289855957
373,54926584,0.410705,0.61683166,-0.6286147,0.23597452,3.935831069946289,-4.404429912567139,3.099355459213257,11.55749225616455,90.11432647705078, 14.488581657409668
374,54943251,0.41773024,0.6104307,-0.6238989,0.25224257,5.282338619232178,-2.3284695148468018,1.6416553258895874,29.197341918945312,120.81903839111328, 41.139747619628906
375,54959918,0.4253933,0.60160774,-0.6180606,0.2740624,5.690849781036377,-2.0295820236206055,1.3164448738098145,45.32708740234375,154.19815063476562, 61.60681915283203
376,54976585,0.43321148,0.59023786,-0.61118305,0.30067044,6.217486381530762,-2.272535562515259,0.5231720805168152,59.54904556274414,182.42425537109375, 81.80729675292969
377,54993252,0.44162822,0.57627755,-0.6029363,0.33066112,7.043055057525635,-1.3434284925460815,0.048985645174980164,66.44921875,208.03872680664062, 95.93994903564453
378,55009919,0.45224983,0.5585416,-0.59375465,0.36187991,7.840297222137451,-0.9539044499397278,-0.2816292643547058,53.47270202636719,233.4192352294922, 106.587890625
379,55026586,0.46417823,0.5372855,-0.5834377,0.39428908,8.786431312561035,-1.1817628145217896,-0.9297950267791748,45.207611083984375,255.5814208984375, 117.03926849365234
380,55043253,0.47644448,0.5133029,-0.5713093,0.4279335,10.002433776855469,-0.4058293104171753,-1.706446886062622,45.14115524291992,274.6629638671875, 124.29965209960938
381,55059920,0.48940238,0.4862228,-0.55786806,0.46136335,11.273691177368164,0.020509131252765656,-2.488832950592041,35.59592056274414,290.05419921875, 129.1046905517578
382,55076587,0.50174755,0.45682195,-0.5434938,0.49414366,12.5095853805542,-0.715225875377655,-3.2382164001464844,30.32680892944336,296.0793151855469, 134.67007446289062
383,55093254,0.5117566,0.42707056,-0.5276166,0.5266278,13.877974510192871,-1.3314095735549927,-4.101192951202393,40.4873046875,292.86968994140625, 138.1936492919922
384,55109921,0.5184151,0.3990735,-0.50967044,0.55876875,15.007118225097656,-1.1797527074813843,-4.114883899688721,62.78534698486328,280.73968505859375, 136.70437622070312
385,55126588,0.5219945,0.37359285,-0.48962167,0.59010273,15.935198783874512,-0.8588498830795288,-3.6789727210998535,85.49575805664062,265.6855773925781, 131.12379455566406
386,55143255,0.5233728,0.35000476,-0.46787965,0.6202149,16.34307861328125,-1.2227808237075806,-3.7437801361083984,100.73957824707031,253.6768341064453, 125.03224182128906
387,55159922,0.52314687,0.32824385,-0.4456894,0.64802366,16.17165756225586,-0.04981260001659393,-4.71901798248291,105.7152328491211,236.95697021484375, 116.71475219726562
388,55176589,0.5234767,0.30753997,-0.42688808,0.6701927,15.04664421081543,2.6232385635375977,-5.823217868804932,75.90702819824219,209.23004150390625, 98.46749877929688
389,55193256,0.5255243,0.28814447,-0.41419527,0.68501085,13.459052085876465,3.996790647506714,-7.024453163146973,27.27004051208496,170.95083618164062, 73.31636047363281
390,55209923,0.5279528,0.27121696,-0.40858012,0.69337565,10.97938060760498,3.392509937286377,-8.130531311035156,-16.273359298706055,122.32255554199219, 55.359092712402344
391,55226590,0.53041196,0.25830263,-0.4099345,0.6956271,9.640846252441406,4.430419445037842,-9.217253684997559,-52.147823333740234,66.8526382446289, 34.878055572509766
392,55243257,0.5340806,0.24935716,-0.41935495,0.69044966,9.054994583129883,3.9771106243133545,-8.948922157287598,-99.32830810546875,8.949423789978027, 5.291865348815918
393,55259924,0.53536093,0.24643463,-0.4334894,0.6817227,9.844882011413574,-1.0840439796447754,-6.013531684875488,-105.71636962890625,-49.6661491394043, -5.54044771194458
394,55276591,0.53398407,0.2531686,-0.44417936,0.673403,10.143346786499023,1.6140602827072144,-1.6725950241088867,-48.26011276245117,-89.26599884033203, -26.142908096313477
395,55293258,0.5338159,0.256159,-0.4565824,0.6640453,11.473861694335938,-6.053305149078369,8.485267639160156,-75.21527099609375,-76.2093276977539, -21.023466110229492
396,55309925,0.5313285,0.26279795,-0.46341938,0.65868825,7.208158493041992,-3.910870313644409,6.062244415283203,-19.767526626586914,-72.71854400634766, -17.029626846313477
397,55326592,0.5301575,0.27082255,-0.46947902,0.6520567,10.249180793762207,-2.2569146156311035,3.84578013420105,-17.634428024291992,-74.31134033203125, -33.48885726928711
398,55343259,0.52697164,0.2821121,-0.47347388,0.646944,12.169983863830566,-2.6857492923736572,4.210716724395752,12.170129776000977,-85.08184051513672, -33.27583694458008
399,55359926,0.5240414,0.29421464,-0.4796806,0.6393164,13.142316818237305,-0.1281740665435791,2.1912899017333984,-3.4124841690063477,-100.73674774169922, -41.85414505004883
400,55376593,0.5198078,0.30538008,-0.48838815,0.6308885,11.408668518066406,-1.4005392789840698,1.1193640232086182,-17.792951583862305,-111.48971557617188, -30.776309967041016
401,55393260,0.5144827,0.3159585,-0.49729404,0.6230385,11.02305793762207,-1.8029924631118774,-0.08447182178497314,-16.509647369384766,-112.04843139648438, -21.544649124145508
402,55409927,0.5097828,0.325045,-0.5050987,0.6159082,10.152643203735352,-1.6251318454742432,1.367920160293579,-15.948999404907227,-97.99142456054688, -18.93655776977539
403,55426594,0.5051864,0.33303374,-0.5118616,0.60981417,9.689726829528809,-2.3768982887268066,0.5677252411842346,-12.008771896362305,-86.98934173583984, -14.2316312789917
404,55443261,0.50083387,0.34054786,-0.5173837,0.6045718,9.330986022949219,-3.62054705619812,0.6484137177467346,-6.001495838165283,-77.846923828125, -13.459066390991211
405,55459928,0.49692228,0.34839657,-0.5211859,0.60004467,8.947701454162598,-3.789794445037842,1.250786542892456,3.825448989868164,-70.04544830322266, -18.069311141967773
406,55476595,0.49421194,0.3559504,-0.52399606,0.59538436,9.622368812561035,-2.8854026794433594,1.4285706281661987,3.562211751937866,-61.44459915161133, -24.830028533935547
407,55493262,0.4917797,0.3632967,-0.52639127,0.5908307,9.100024223327637,-2.825767993927002,1.2073123455047607,4.259663105010986,-57.91693115234375, -25.884044647216797
408,55509929,0.48918098,0.3709015,-0.5286178,0.58625716,9.695034980773926,-2.1186537742614746,1.4191641807556152,6.162463188171387,-59.04451370239258, -26.64474105834961
409,55526596,0.48894566,0.37653726,-0.5315842,0.5801468,9.65735149383545,-1.9001024961471558,1.4729787111282349,-15.058782577514648,-48.928016662597656, -32.291534423828125
410,55543263,0.48884502,0.3811799,-0.5346271,0.574375,9.765291213989258,-1.9851677417755127,1.0036933422088623,-17.819751739501953,-43.863033294677734, -27.851469039916992
411,55559930,0.48856282,0.3855845,-0.5373684,0.5690927,9.617074012756348,-2.144937753677368,1.004440188407898,-15.156874656677246,-41.295257568359375, -25.396411895751953
412,55576597,0.48795557,0.39008602,-0.5398725,0.5641545,9.544191360473633,-2.109649419784546,0.962833821773529,-11.774477005004883,-41.17148971557617, -23.953855514526367
413,55593264,0.4873508,0.3945167,-0.5421195,0.55942154,9.62110424041748,-2.1332077980041504,0.873032808303833,-10.262333869934082,-39.48014831542969, -23.700780868530273
414,55609931,0.48678964,0.3989863,-0.5441771,0.55472285,9.67674732208252,-2.0550668239593506,0.7239649891853333,-9.397692680358887,-38.74520492553711, -24.413776397705078
415,55626598,0.4862539,0.40316752,-0.5463318,0.5500319,9.584650993347168,-2.0077428817749023,0.5078186988830566,-10.777966499328613,-37.8603401184082, -23.139665603637695
416,55643265,0.4858753,0.40705156,-0.5486711,0.54515547,9.536358833312988,-2.0567502975463867,0.4935554563999176,-13.604398727416992,-37.28112030029297, -22.727352142333984
417,55659932,0.48576635,0.41091666,-0.5510789,0.5398992,9.584352493286133,-1.9733107089996338,0.4514370560646057,-16.115127563476562,-37.490840911865234, -24.74660301208496
418,55676599,0.48577717,0.41491285,-0.55356735,0.5342579,9.576875686645508,-1.940682053565979,0.47831255197525024,-17.77857208251953,-38.88819885253906, -26.747772216796875
419,55693266,0.48583862,0.4191339,-0.55626965,0.5280646,9.613329887390137,-1.7742596864700317,0.4074292778968811,-20.062728881835938,-41.82091522216797, -29.024850845336914
420,55709933,0.4858072,0.42366555,-0.55927575,0.521258,9.640588760375977,-1.8225070238113403,0.33247220516204834,-22.21118927001953,-46.09715270996094, -31.048707962036133
421,55726600,0.4857788,0.42852846,-0.56222934,0.51408255,9.720993995666504,-1.749240517616272,0.2829974591732025,-22.348928451538086,-48.18468475341797, -33.72037124633789
422,55743267,0.48590726,0.4335456,-0.5653554,0.5062665,9.900859832763672,-1.717801809310913,0.04428085684776306,-25.387571334838867,-50.600730895996094, -36.5047607421875
423,55759934,0.48658067,0.43813753,-0.56856245,0.4980076,10.074862480163574,-1.6032620668411255,-0.09563989192247391,-30.441320419311523,-48.60554504394531, -37.98916244506836
424,55776601,0.48760468,0.44261405,-0.57150275,0.4896113,10.091638565063477,-1.4837591648101807,0.2244558185338974,-31.513957977294922,-46.374698638916016, -40.00251007080078
425,55793268,0.48937055,0.44626355,-0.57589287,0.47928378,9.963885307312012,-1.9684841632843018,0.8575400114059448,-49.01970291137695,-51.43656921386719, -41.31171798706055
426,55809935,0.4914218,0.44989517,-0.58168,0.4666347,9.704081535339355,-1.6079072952270508,0.23625776171684265,-63.76206970214844,-62.11109924316406, -45.71489715576172
427,55826602,0.4931215,0.45432734,-0.5872861,0.4533357,9.758903503417969,-1.0682075023651123,-0.22391578555107117,-61.99568176269531,-67.51517486572266, -50.547996520996094
428,55843269,0.4942124,0.4603098,-0.5921178,0.43962038,10.085532188415527,-0.9140532612800598,0.005532458424568176,-54.11113739013672,-73.50509643554688, -58.738807678222656
429,55859936,0.49391827,0.4684138,-0.5964439,0.42530987,10.384734153747559,-0.5481186509132385,0.5120267271995544,-43.419132232666016,-85.7552261352539, -66.81239318847656
430,55876603,0.49175203,0.4786015,-0.60083514,0.41002196,10.842087745666504,-0.3011576533317566,1.1689878702163696,-34.51695251464844,-102.94208526611328, -72.99308013916016
431,55893270,0.48765,0.4904747,-0.6059058,0.39307827,12.029314994812012,-0.8024542927742004,2.1729841232299805,-31.203214645385742,-123.5027847290039, -77.86465454101562
432,55909937,0.48251432,0.5030209,-0.6123261,0.37310448,14.604757308959961,-2.2007737159729004,3.8059744834899902,-41.73172378540039,-144.4685516357422, -83.50198364257812
433,55926604,0.47571027,0.51673853,-0.62070477,0.34843534,15.566892623901367,-3.925462484359741,4.41259765625,-56.87321853637695,-177.3845977783203, -93.01284790039062
434,55943271,0.46708858,0.5316054,-0.62980914,0.3202577,16.483076095581055,-4.672983646392822,2.650434970855713,-63.38222885131836,-202.911376953125, -102.55508422851562
435,55959938,0.45743358,0.54819924,-0.6365265,0.2916616,17.31630516052246,-4.901198387145996,-2.95855975151062,-50.63836669921875,-205.20513916015625, -117.94000244140625
436,55976605,0.44867054,0.56464595,-0.6400367,0.2649962,18.36543846130371,-0.8649988174438477,-6.343454360961914,-39.6250114440918,-183.70828247070312, -125.21724700927734
437,55993272,0.44003394,0.57830125,-0.64329314,0.24106416,15.990607261657715,-1.7905513048171997,-4.787694454193115,-36.26700973510742,-166.70677185058594, -105.77050018310547
438,56009939,0.43337262,0.58732677,-0.6462314,0.22275737,11.590007781982422,-5.08816385269165,1.2885009050369263,-32.755374908447266,-127.01900482177734, -72.8830337524414
439,56026606,0.4312347,0.59144086,-0.6478277,0.21107842,7.9821929931640625,-5.337587356567383,5.696829319000244,-34.19831466674805,-68.75627899169922, -43.77362823486328
440,56043273,0.4339834,0.59028834,-0.6486712,0.20601939,5.573620796203613,-6.230490684509277,4.776610851287842,-39.13717269897461,-10.353163719177246, -10.951725006103516
441,56059940,0.43474615,0.5883432,-0.6480803,0.21175565,5.014466285705566,-5.5950493812561035,2.958303928375244,16.692241668701172,29.88430404663086, 21.674863815307617
442,56076607,0.43740943,0.58400726,-0.6460351,0.22416028,5.652911186218262,-2.473431348800659,2.0667316913604736,33.64820861816406,73.06599426269531, 43.51787185668945
443,56093274,0.44212714,0.57651776,-0.6432314,0.24167056,5.949806213378906,-2.5510804653167725,1.8343935012817383,39.75690460205078,109.75627899169922, 66.61942291259766
444,56109941,0.4470772,0.5668777,-0.63918835,0.2649724,6.54920768737793,-3.0384318828582764,1.0464563369750977,59.96530532836914,141.00962829589844, 88.39265441894531
445,56126608,0.45355308,0.554782,-0.63353723,0.29178342,7.610690116882324,-1.7447799444198608,0.5236037969589233,64.81197357177734,170.7483673095703, 100.87554931640625
446,56143275,0.46253663,0.53917193,-0.6266535,0.32040504,8.595806121826172,-1.3718736171722412,0.0057153403759002686,54.652217864990234,199.41921997070312, 112.06510925292969
447,56159942,0.47410387,0.51981306,-0.6186157,0.349764,9.531039237976074,-0.9363168478012085,-0.6228975057601929,38.872657775878906,225.17245483398438, 120.56755065917969
448,56176609,0.4872612,0.49700743,-0.6092581,0.37995422,10.23306655883789,-1.105461835861206,-1.6308567523956299,28.686241149902344,247.4775390625, 129.37594604492188
449,56193276,0.500214,0.472077,-0.5980798,0.41137603,10.637428283691406,-0.21158519387245178,-2.2943711280822754,32.198463439941406,262.48211669921875, 136.6989288330078
450,56209943,0.512498,0.44533908,-0.5849251,0.44371396,11.773248672485352,0.22388166189193726,-2.992084264755249,37.537498474121094,274.6397705078125, 142.76553344726562
451,56226610,0.5238293,0.4171028,-0.57028276,0.47582135,12.909917831420898,0.23215247690677643,-3.5499632358551025,38.81824493408203,279.95648193359375, 146.35235595703125
452,56243277,0.53302556,0.38878876,-0.554156,0.5075813,13.763651847839355,-0.2288431078195572,-3.9500834941864014,48.18767547607422,276.2461853027344, 148.1674041748047
453,56259944,0.53975254,0.36138648,-0.5367536,0.5384819,14.30354118347168,0.08204598724842072,-3.9179577827453613,59.3432731628418,266.10552978515625, 146.78973388671875
454,56276611,0.54433906,0.33505476,-0.5187295,0.5677617,14.624730110168457,-0.28087127208709717,-3.746426582336426,64.98819732666016,252.60821533203125, 143.25814819335938
455,56293278,0.546299,0.31140056,-0.49999174,0.59547937,15.046252250671387,-1.1708984375,-4.065056800842285,78.30668640136719,231.955078125, 136.52964782714844
456,56309945,0.54636955,0.29075047,-0.48130998,0.6207138,14.974538803100586,0.1431516706943512,-4.363006591796875,84.90267181396484,207.74636840820312, 124.78287506103516
457,56326612,0.54585475,0.27218798,-0.46293676,0.6431535,14.355220794677734,2.1401617527008057,-4.114319324493408,83.38207244873047,190.28948974609375, 110.57242584228516
458,56343279,0.54565406,0.25546375,-0.44625863,0.66170496,13.118940353393555,3.258211612701416,-4.457278728485107,69.83708190917969,169.661865234375, 92.02111053466797
459,56359946,0.54522717,0.2413711,-0.43408233,0.6753076,11.178266525268555,2.677273750305176,-5.847253799438477,44.450035095214844,131.55874633789062, 74.43595886230469
460,56376613,0.5446476,0.23114507,-0.42832536,0.6829853,9.781070709228516,3.695984125137329,-7.482612609863281,11.725289344787598,79.41516876220703, 52.14662170410156
461,56393280,0.54563063,0.22453576,-0.43140393,0.68246746,8.697291374206543,4.337924957275391,-7.7900800704956055,-42.823699951171875,21.102859497070312, 17.618783950805664
462,56409947,0.54635876,0.22424667,-0.43929878,0.6769214,8.437616348266602,1.9939005374908447,-6.282747268676758,-56.22348403930664,-34.966064453125, -11.242809295654297
463,56426614,0.5461412,0.23071408,-0.44805056,0.6691425,9.222335815429688,1.888230562210083,-5.047060966491699,-40.10029983520508,-75.7807846069336, -34.23456573486328
464,56443281,0.5448505,0.23743719,-0.45577458,0.6625944,11.297578811645508,-3.246725559234619,3.6295511722564697,-28.9052791595459,-74.31477355957031, -27.011579513549805
465,56459948,0.5425543,0.2427221,-0.46312493,0.6574469,9.321418762207031,-5.816614151000977,8.996589660644531,-26.55474090576172,-67.19318389892578, -13.264467239379883
466,56476615,0.54018617,0.24776933,-0.47009256,0.652551,7.763081073760986,-3.2530786991119385,3.6703872680664062,-24.79770278930664,-64.5598373413086, -11.908333778381348
467,56493282,0.5379865,0.25403008,-0.4770837,0.64686227,9.533201217651367,-3.113964319229126,2.124284267425537,-23.2435245513916,-70.89848327636719, -19.491865158081055
468,56509949,0.53405744,0.26420006,-0.48065838,0.64338845,11.651494026184082,-3.2416906356811523,5.412074565887451,16.70401954650879,-77.41976928710938, -22.392627716064453
469,56526616,0.52933115,0.2763767,-0.48526683,0.6387026,12.51089859008789,-1.2425285577774048,3.762533664703369,16.935495376586914,-94.93267059326172, -28.059476852416992
470,56543283,0.5261109,0.28781325,-0.49338025,0.6300376,12.45546817779541,0.45384976267814636,1.9536519050598145,-17.292522430419922,-106.95878601074219, -39.97956466674805
471,56559950,0.52281886,0.29755893,-0.50391847,0.6198273,10.609525680541992,-2.0570271015167236,1.6098880767822266,-39.01369094848633,-111.67411804199219, -34.65087127685547
472,56576617,0.5177952,0.307591,-0.5128765,0.6117468,10.336726188659668,-3.1604247093200684,0.4219413995742798,-20.31915283203125,-108.83155822753906, -23.815879821777344
473,56593284,0.51305956,0.31707627,-0.51964223,0.6051487,9.753605842590332,-1.759234070777893,0.8329397439956665,-8.411171913146973,-94.53831481933594, -22.45775032043457
474,56609951,0.50851727,0.32510224,-0.5251952,0.5999077,9.535569190979004,-3.1227943897247314,0.1982986181974411,-4.076741695404053,-80.51578521728516, -15.889355659484863
475,56626618,0.50469583,0.3323032,-0.52965045,0.5952541,9.628531455993652,-3.2953085899353027,0.33387723565101624,-1.9128034114837646,-69.33087158203125, -16.291223526000977
476,56643285,0.5014486,0.3386782,-0.533054,0.59135467,9.492831230163574,-2.724062442779541,0.8902167081832886,0.9673975706100464,-58.46306610107422, -15.429428100585938
477,56659952,0.49853843,0.34419578,-0.5361005,0.5878649,9.846426010131836,-2.4134981632232666,0.8150384426116943,0.18384340405464172,-51.54536819458008, -13.080191612243652
478,56676619,0.49642453,0.34829086,-0.5389885,0.58459204,9.58702278137207,-2.464324951171875,1.0311293601989746,-5.131948471069336,-41.79417419433594, -10.683257102966309
479,56693286,0.49477956,0.35170007,-0.54165107,0.5814763,9.492101669311523,-2.4648141860961914,1.3228962421417236,-7.106075286865234,-36.15082931518555, -10.02761459350586
480,56709953,0.49366826,0.35484996,-0.5441406,0.5781734,9.388912200927734,-2.728412628173828,1.4013880491256714,-9.28353214263916,-32.99335861206055, -12.248894691467285
481,56726620,0.49296412,0.3581584,-0.54646397,0.5745315,9.337762832641602,-2.87621808052063,1.370110273361206,-10.347723007202148,-32.36992263793945, -16.01858139038086
482,56743287,0.49242142,0.36151668,-0.5485426,0.5709012,9.383657455444336,-2.7729623317718506,1.2333358526229858,-9.569477081298828,-31.108684539794922, -17.412277221679688
483,56759954,0.49221078,0.36476335,-0.55040115,0.5672173,9.333176612854004,-2.688321113586426,1.0072940587997437,-10.11498737335205,-28.813072204589844, -19.027629852294922
484,56776621,0.49236348,0.36768967,-0.5521023,0.56352973,9.578629493713379,-2.546142339706421,1.0822515487670898,-11.513238906860352,-25.66868019104004, -19.642629623413086
485,56793288,0.49264562,0.37055546,-0.55390054,0.5596279,9.593779563903809,-2.454012870788574,1.003383755683899,-13.238493919372559,-25.820236206054688, -20.394969940185547
486,56809955,0.4929747,0.37326956,-0.5559615,0.55547535,9.477971076965332,-2.4907734394073486,1.088973045349121,-15.840787887573242,-26.592437744140625, -20.17742156982422
487,56826622,0.49349236,0.3759828,-0.5580969,0.5510267,9.459010124206543,-2.362107038497925,0.9512898325920105,-17.748571395874023,-26.889013290405273, -21.707687377929688
488,56843289,0.49404135,0.37853268,-0.56056625,0.5462617,9.526634216308594,-2.148364305496216,0.9828738570213318,-20.86691665649414,-28.110498428344727, -21.4090633392334
489,56859956,0.4945081,0.3809317,-0.56357944,0.5410466,9.51548957824707,-2.178520917892456,0.8713607788085938,-24.94614028930664,-30.890432357788086, -20.628360748291016
490,56876623,0.49484822,0.38330227,-0.5670831,0.5353707,9.437348365783691,-2.1469624042510986,0.8835061192512512,-28.32395362854004,-34.160926818847656, -20.326034545898438
491,56893290,0.49506363,0.38605714,-0.57110983,0.5288722,9.371658325195312,-2.2883450984954834,0.7066200375556946,-31.823593139648438,-40.02193069458008, -22.78326988220215
492,56909957,0.49524024,0.38964948,-0.57498163,0.52183044,9.398747444152832,-2.499253511428833,0.5756648182868958,-30.44327735900879,-44.14685821533203, -28.191545486450195
493,56926624,0.49566594,0.39371726,-0.57898945,0.513881,9.449225425720215,-2.414278984069824,0.6012913584709167,-33.5721435546875,-47.773902893066406, -33.69574737548828
494,56943291,0.4963105,0.3980613,-0.5831068,0.5051831,9.383283615112305,-2.3988852500915527,0.32848262786865234,-36.59674835205078,-50.29255676269531, -37.826873779296875
495,56959958,0.4971719,0.4023839,-0.5879059,0.49525186,9.461322784423828,-2.1454010009765625,0.17106172442436218,-44.58161163330078,-55.0630989074707, -40.84051513671875
496,56976625,0.4982293,0.40641156,-0.593309,0.48433685,9.541168212890625,-1.9832723140716553,-0.0549117773771286,-52.171512603759766,-58.06691360473633, -42.00873947143555
497,56993292,0.49921584,0.4105936,-0.59871316,0.47301105,9.555414199829102,-1.322812795639038,-0.29569169878959656,-53.12944030761719,-60.0350341796875, -43.80558395385742
498,57009959,0.50009626,0.41565716,-0.6031196,0.46193075,9.809664726257324,-1.2983149290084839,-0.23249360918998718,-45.551971435546875,-59.23271179199219, -49.05544662475586
499,57026626,0.5005363,0.4223079,-0.6065275,0.4508264,9.9813871383667,-1.0878089666366577,-0.10481053590774536,-35.768714904785156,-62.74967956542969, -57.170806884765625
500,57043293,0.49993762,0.43051335,-0.60956204,0.43949425,10.00355339050293,-0.6607432961463928,-0.1791703999042511,-27.199115753173828,-71.29605102539062, -62.299373626708984
501,57059960,0.49821284,0.43991676,-0.61245894,0.4279622,10.022356033325195,-0.6039702892303467,-0.037754952907562256,-20.172677993774414,-79.77317810058594, -65.0074691772461
502,57076627,0.49564567,0.44975734,-0.61588985,0.4156127,10.818129539489746,-0.9113947153091431,0.547195553779602,-21.14212417602539,-88.93260955810547, -65.55368041992188
503,57093294,0.49270225,0.45915666,-0.6207564,0.40135002,12.590144157409668,-1.0555894374847412,1.5568294525146484,-33.68765640258789,-100.11302947998047, -64.69483184814453
504,57109961,0.4889961,0.4687088,-0.6277676,0.3835401,14.343205451965332,-2.1375203132629395,3.2776153087615967,-51.81940460205078,-122.31878662109375, -68.49803161621094
505,57126628,0.48352367,0.4791372,-0.6371128,0.3615524,15.765552520751953,-2.4055590629577637,4.936758518218994,-67.36943817138672,-153.66835021972656, -74.176025390625
506,57143295,0.47537407,0.4913995,-0.6486627,0.33433983,16.183469772338867,-3.023414134979248,6.061817169189453,-80.81905364990234,-194.64332580566406, -85.70556640625
507,57159962,0.46363124,0.50625145,-0.6602316,0.30471334,16.637781143188477,-6.209752082824707,3.0145304203033447,-71.02013397216797,-225.00953674316406, -96.8819808959961
508,57176629,0.45294395,0.5215154,-0.6682318,0.27627903,16.807897567749023,-5.352398872375488,-5.594196319580078,-60.512969970703125,-205.67172241210938, -109.68668365478516
509,57193296,0.44500437,0.5359193,-0.6726035,0.24973333,17.139942169189453,-2.3778436183929443,-6.708080768585205,-57.521976470947266,-173.35696411132812, -118.1650161743164
510,57209963,0.43751374,0.5483414,-0.6750379,0.22853361,15.268521308898926,-1.5529601573944092,-5.026632308959961,-37.220218658447266,-142.26889038085938, -100.60121154785156
511,57226630,0.43165255,0.556906,-0.67687964,0.21299326,9.21847152709961,-5.07308292388916,-0.4047969877719879,-27.791240692138672,-105.56268310546875, -70.51322174072266
512,57243297,0.42956817,0.5625694,-0.6758989,0.20529976,7.306332111358643,-4.911177635192871,4.8542890548706055,-10.259206771850586,-45.37700653076172, -50.1317138671875
513,57259964,0.434011,0.5629928,-0.67340547,0.2029752,3.8077359199523926,-3.589780330657959,5.655867099761963,-23.92017364501953,17.477140426635742, -25.06163215637207
514,57276631,0.43971315,0.5610167,-0.6696158,0.20863283,3.852686643600464,-5.222616672515869,3.6876492500305176,2.8083481788635254,61.33268737792969, 3.0396981239318848
515,57293298,0.44437647,0.5579199,-0.6644216,0.22315757,4.803447723388672,-3.931321859359741,2.4615402221679688,46.236907958984375,96.53770446777344, 31.01801109313965
516,57309965,0.45014662,0.5526387,-0.65776914,0.24351302,5.132269859313965,-2.455836534500122,2.0427753925323486,64.17713928222656,131.7097625732422, 51.4725341796875
517,57326632,0.45740628,0.5442032,-0.6500077,0.26853803,5.687685489654541,-2.6629395484924316,1.31949782371521,71.72586059570312,164.85162353515625, 73.4573745727539
518,57343299,0.46560323,0.53306204,-0.6406673,0.29766476,6.556310653686523,-2.3811259269714355,0.6204445362091064,80.9576644897461,194.3097381591797, 90.78335571289062
519,57359966,0.47670603,0.51786685,-0.62990594,0.3283051,7.653848648071289,-1.3383334875106812,0.22771558165550232,66.89642333984375,225.47251892089844, 102.30963134765625
520,57376633,0.49127075,0.49741334,-0.61850524,0.35872653,8.909477233886719,-1.0917943716049194,-0.37690696120262146,37.83195114135742,253.6311492919922, 114.2614974975586
521,57393300,0.5079911,0.47189292,-0.6067704,0.38870546,10.226253509521484,-1.4297866821289062,-1.5700156688690186,12.286870956420898,274.9054870605469, 127.84268951416016
522,57409967,0.52390045,0.4435681,-0.5939475,0.41952634,11.189253807067871,-1.0600168704986572,-2.6113033294677734,11.55024528503418,285.5612487792969, 141.10401916503906
523,57426634,0.5380399,0.41353527,-0.57969856,0.45105624,12.924656867980957,-0.46260666847229004,-3.791079044342041,17.817623138427734,290.5894470214844, 151.38250732421875
524,57443301,0.5493037,0.38334715,-0.56451684,0.48231888,14.336392402648926,-1.030754804611206,-4.395504474639893,27.261951446533203,282.3425598144531, 157.28330993652344
525,57459968,0.5561668,0.35575476,-0.5474089,0.51425767,15.501870155334473,-1.5640372037887573,-4.764854907989502,57.70315933227539,265.7671813964844, 159.2860870361328
526,57476635,0.55934006,0.3314582,-0.52851975,0.54584014,16.060068130493164,-0.5902172327041626,-4.715219020843506,84.31045532226562,246.23597717285156, 154.2200164794922
527,57493302,0.56032676,0.30963272,-0.509128,0.57528305,16.157608032226562,-0.6080554127693176,-4.688963413238525,92.93222045898438,226.15354919433594, 144.10675048828125
528,57509969,0.5607069,0.29118708,-0.48961622,0.6009112,15.132530212402344,0.8146541714668274,-4.456605911254883,94.38553619384766,203.0925750732422, 119.75762939453125
529,57526636,0.5610671,0.27571166,-0.47225624,0.6214187,13.017953872680664,0.6363930106163025,-4.613712787628174,79.76537322998047,172.2989501953125, 94.46411895751953
530,57543303,0.56172794,0.26253062,-0.45900688,0.6362801,12.198501586914062,2.0616722106933594,-4.39509391784668,52.16770553588867,137.01194763183594, 71.79121398925781
531,57559970,0.5635606,0.24829833,-0.45237648,0.6450608,11.1427583694458,2.901881694793701,-3.897603750228882,-2.138967990875244,108.87608337402344, 58.51556396484375
532,57576637,0.5663943,0.23271345,-0.45224258,0.64847434,9.982633590698242,2.193065643310547,-3.7017693519592285,-54.5850715637207,83.75888061523438, 48.65914535522461
533,57593304,0.5694889,0.21828449,-0.45679423,0.64759076,9.162187576293945,1.9989224672317505,-3.6412055492401123,-84.73939514160156,54.388790130615234, 34.74034881591797
534,57609971,0.5719937,0.2071926,-0.4642511,0.6437126,8.96420955657959,1.6817024946212769,-3.6557788848876953,-93.11904907226562,21.899446487426758, 19.59249496459961
535,57626638,0.5729717,0.20109157,-0.4732835,0.6381761,8.77463150024414,1.6069374084472656,-3.5814359188079834,-83.57109832763672,-13.53468132019043, 6.211819171905518
536,57643305,0.5706466,0.20175461,-0.48129594,0.6340444,9.38045597076416,-0.46884050965309143,-3.9134521484375,-43.29835510253906,-47.91950607299805, 2.8850762844085693
537,57659972,0.56942475,0.20913562,-0.48880357,0.6269683,10.650786399841309,3.532499074935913,-0.680777907371521,-25.993906021118164,-75.56916809082031, -36.36579132080078
538,57676639,0.56695366,0.21469817,-0.49627537,0.6214334,9.748285293579102,-5.012389659881592,8.437456130981445,-25.984941482543945,-69.51568603515625, -18.792617797851562
539,57693306,0.5638141,0.22226448,-0.50022745,0.61845386,7.501650333404541,-3.397876262664795,6.817042350769043,6.563207149505615,-62.9083251953125, -18.01581382751465
540,57709973,0.56206775,0.23009616,-0.50431204,0.61384475,9.966862678527832,-2.2950825691223145,4.639503479003906,-0.7140429615974426,-62.2886962890625, -30.970338821411133
541,57726640,0.5587261,0.24033275,-0.5079862,0.609931,11.736479759216309,-4.72126579284668,4.023409843444824,15.243425369262695,-75.2901840209961, -30.521106719970703
542,57743307,0.5547106,0.25183833,-0.5143933,0.6035508,13.252338409423828,-1.417166829109192,1.0735615491867065,1.1600244045257568,-97.5313949584961, -37.09242630004883
543,57759974,0.5505099,0.262478,-0.5242529,0.5943091,11.433938026428223,-1.9606462717056274,0.8481343388557434,-26.26009178161621,-112.67635345458984, -38.15851593017578
544,57776641,0.5457579,0.2733631,-0.5336017,0.5853977,10.732906341552734,-1.9670661687850952,0.5266768932342529,-21.046140670776367,-113.10537719726562, -36.43734359741211
545,57793308,0.54168975,0.2820484,-0.5419731,0.5773096,9.724286079406738,-2.015063524246216,1.2544502019882202,-23.62093734741211,-96.49961853027344, -29.847021102905273
546,57809975,0.538584,0.28855607,-0.549721,0.5696227,9.562746047973633,-2.2447755336761475,0.47637882828712463,-29.61992073059082,-81.1584701538086, -25.252729415893555
547,57826642,0.5356242,0.2947786,-0.55576307,0.5633295,9.475309371948242,-3.6231307983398438,0.5945910215377808,-19.010072708129883,-70.39143371582031, -22.960233688354492
548,57843309,0.5331988,0.30131316,-0.56005543,0.5578958,9.365777015686035,-3.279747486114502,1.0892971754074097,-8.877888679504395,-61.35950469970703, -26.612651824951172
549,57859976,0.53062034,0.30826238,-0.56323105,0.55334204,9.542912483215332,-2.5730888843536377,0.98246830701828,0.6329948902130127,-57.615875244140625, -26.718000411987305
550,57876643,0.5293385,0.31368232,-0.5658106,0.54887414,9.240479469299316,-2.8878798484802246,0.6612098217010498,-5.09406852722168,-44.41468811035156, -26.679824829101562
551,57893310,0.528478,0.31829545,-0.5679425,0.54483074,9.4690523147583,-2.4026286602020264,0.8308966159820557,-5.598104476928711,-37.178810119628906, -24.556720733642578
552,57909977,0.52784896,0.32182002,-0.5702512,0.5409446,9.414349555969238,-2.433197021484375,1.4232535362243652,-10.108657836914062,-32.493614196777344, -20.212488174438477
553,57926644,0.527679,0.32471094,-0.5728106,0.53666174,9.388335227966309,-2.6886870861053467,1.4180876016616821,-15.91301441192627,-30.131290435791016, -20.318511962890625
554,57943311,0.5278352,0.32763153,-0.5753838,0.53196,9.392802238464355,-2.727386236190796,1.1606252193450928,-18.235828399658203,-29.948932647705078, -23.129138946533203
555,57959978,0.52803284,0.33068416,-0.5776291,0.52742237,9.627500534057617,-2.3386523723602295,0.760998547077179,-16.00530242919922,-28.713090896606445, -23.948793411254883
556,57976645,0.5280287,0.33375186,-0.57954997,0.52337146,9.648638725280762,-2.297447681427002,0.6845059394836426,-12.383492469787598,-27.287109375, -22.24599266052246
557,57993312,0.5281142,0.336712,-0.5810478,0.5197157,9.802495956420898,-2.1641347408294678,0.5987550616264343,-9.883916854858398,-24.100507736206055, -21.675413131713867
558,58009979,0.5283853,0.33950302,-0.5821679,0.5163599,9.703326225280762,-2.218263626098633,0.42984700202941895,-8.382156372070312,-20.69036865234375, -21.446022033691406
559,58026646,0.52879417,0.3420755,-0.58297795,0.5133209,9.567100524902344,-2.1798479557037354,0.5710744261741638,-7.129609107971191,-17.496417999267578, -20.6341609954834
560,58043313,0.5294226,0.3444286,-0.5836895,0.5102821,9.472188949584961,-2.2652828693389893,0.7151802778244019,-8.098565101623535,-15.48619556427002, -20.760337829589844
561,58059980,0.5301867,0.34677142,-0.58453584,0.50692195,9.37555980682373,-2.266798257827759,0.8372293710708618,-10.223751068115234,-16.162124633789062, -22.048160552978516
562,58076647,0.5310639,0.34929976,-0.58552176,0.5031158,9.30936336517334,-2.145550012588501,0.8709206581115723,-12.099678039550781,-17.933441162109375, -24.48386001586914
563,58093314,0.5320731,0.3518448,-0.5868481,0.49871174,9.35885238647461,-2.02158784866333,0.8479610681533813,-15.943582534790039,-20.146276473999023, -26.374879837036133
564,58109981,0.53302944,0.35465777,-0.5886349,0.49356532,9.270535469055176,-2.136932373046875,0.7035725116729736,-19.41374397277832,-24.767269134521484, -28.877849578857422
565,58126648,0.53404385,0.3578401,-0.59076154,0.48759526,9.29603099822998,-2.1262426376342773,0.6056672930717468,-22.692251205444336,-29.047138214111328, -32.76199722290039
566,58143315,0.53522897,0.36143073,-0.5928848,0.48102564,9.450754165649414,-1.9873570203781128,0.4169374108314514,-24.041725158691406,-31.193326950073242, -37.205482482910156
567,58159982,0.5366337,0.36508316,-0.59522945,0.47375226,9.424482345581055,-1.813232660293579,0.2970060706138611,-27.96620750427246,-33.07295608520508, -40.225128173828125
568,58176649,0.5383829,0.36840105,-0.5979324,0.46572712,9.593029975891113,-1.6967906951904297,0.2484041452407837,-34.31396484375,-33.78990936279297, -41.852630615234375
569,58193316,0.5398005,0.37199673,-0.6010244,0.45716965,9.453509330749512,-1.5791040658950806,0.21040679514408112,-35.88429641723633,-38.83905029296875, -42.917388916015625
570,58209983,0.54107296,0.3759567,-0.60464215,0.44755423,9.52375316619873,-1.520512342453003,0.6562274098396301,-40.1899299621582,-45.250484466552734, -46.54725646972656
571,58226650,0.5420411,0.3810501,-0.60856426,0.4366259,9.699850082397461,-1.574302315711975,0.5120152831077576,-41.58523941040039,-54.54576873779297, -54.420494079589844
572,58243317,0.5423363,0.38781703,-0.61233544,0.42487067,9.812570571899414,-1.0628734827041626,0.43767449259757996,-36.59792709350586,-64.00505828857422, -62.88266372680664
573,58259984,0.5417799,0.39594716,-0.61591965,0.4127274,10.03026294708252,-0.5400072336196899,0.7109960317611694,-30.3337345123291,-71.92593383789062, -68.08000946044922
574,58276651,0.54033196,0.4053381,-0.61951345,0.39993227,10.936606407165527,-0.49784576892852783,1.526157021522522,-25.99827766418457,-81.11186981201172, -73.2894058227539
575,58293318,0.53785056,0.4155834,-0.6241722,0.38524893,12.492987632751465,-1.3000514507293701,2.925611972808838,-30.912586212158203,-97.11565399169922, -78.13372039794922
576,58309985,0.534209,0.42713872,-0.63046736,0.36699402,14.884445190429688,-3.020872116088867,4.59817361831665,-42.4133186340332,-121.87850952148438, -89.22777557373047
577,58326652,0.5282289,0.44063303,-0.6396672,0.34299132,15.960586547851562,-4.268889904022217,6.462337493896484,-60.67072677612305,-164.5499725341797, -104.35182189941406
578,58343319,0.5199232,0.4556528,-0.6515509,0.31231707,17.71868133544922,-3.0272703170776367,7.270496368408203,-83.763427734375,-208.46633911132812, -121.73934173583984
579,58359986,0.50969154,0.47180536,-0.6642233,0.27644515,18.365724563598633,-5.900625705718994,4.191666603088379,-98.65328979492188,-238.7811279296875, -138.8502960205078
580,58376653,0.497035,0.48949778,-0.67439336,0.24195449,17.095226287841797,-6.743788242340088,-3.966456174850464,-74.32557678222656,-239.6355438232422, -144.63880920410156
581,58393320,0.48647103,0.5067035,-0.67976606,0.2109882,18.115510940551758,-3.7582216262817383,-8.245734214782715,-58.75540542602539,-200.87680053710938, -150.04591369628906
582,58409987,0.4733584,0.52251095,-0.68260163,0.1922746,15.191872596740723,-4.6452531814575195,-2.8013811111450195,6.345230579376221,-159.5724334716797, -107.71090698242188
583,58426654,0.46374214,0.5318408,-0.6849645,0.18141882,8.751690864562988,-3.810169219970703,6.704778671264648,10.159993171691895,-104.87452697753906, -58.11544418334961
584,58443321,0.46260267,0.53358907,-0.68565154,0.17653288,5.565883159637451,-4.46806526184082,4.755548000335693,-14.798091888427734,-28.42612648010254, -20.134883880615234
585,58459988,0.4642338,0.53222567,-0.68455017,0.1805946,2.854076862335205,-6.573627948760986,4.767202377319336,9.47244644165039,26.850332260131836, 13.020393371582031
586,58476655,0.46526343,0.52980334,-0.6820746,0.1939412,3.4104480743408203,-5.187511444091797,3.2383158206939697,53.67012405395508,63.635581970214844, 43.303524017333984
587,58493322,0.46793124,0.52502507,-0.6780866,0.21351326,4.651635646820068,-2.8105669021606445,2.229586362838745,71.3597183227539,101.92781829833984, 66.52974700927734
588,58509989,0.47451827,0.51621294,-0.6725382,0.23674752,5.884700775146484,-1.0969043970108032,1.6165530681610107,63.59127426147461,144.3227996826172, 85.71076965332031
589,58526656,0.4842034,0.50314724,-0.66572934,0.2630489,6.541306018829346,-0.8459671139717102,1.465212106704712,54.955413818359375,180.5400390625, 105.86103057861328
590,58543323,0.49584693,0.48620167,-0.6577314,0.29177654,7.769874095916748,-0.9206593632698059,0.9357778429985046,48.52874755859375,208.84828186035156, 124.03455352783203
591,58559990,0.5092947,0.4658187,-0.64797884,0.32211152,9.47667121887207,-0.4654131829738617,0.367822527885437,41.56321716308594,235.2381591796875, 135.5693817138672
592,58576657,0.5237192,0.4425462,-0.6361691,0.35378015,10.783160209655762,-0.5820911526679993,-0.3839755058288574,38.82972717285156,257.45281982421875, 144.3566436767578
593,58593324,0.538026,0.41735688,-0.6220334,0.3865437,11.68960952758789,-0.11253872513771057,-1.2238072156906128,42.7395133972168,273.3014221191406, 149.89308166503906
594,58609991,0.5518715,0.39030406,-0.6060825,0.41924328,12.84508228302002,0.3423894941806793,-2.216864824295044,41.73046112060547,282.8194885253906, 153.65049743652344
595,58626658,0.56407934,0.36260715,-0.5884687,0.451703,14.059137344360352,-0.10951538383960724,-2.851104736328125,47.49863815307617,283.5351257324219, 155.69851684570312
596,58643325,0.572686,0.33698112,-0.5684272,0.48514464,15.013675689697266,-0.6957845091819763,-3.3155276775360107,76.04076385498047,274.4223327636719, 156.2804412841797
597,58659992,0.57737523,0.3148203,-0.5460708,0.5189732,15.56700611114502,-0.1801988184452057,-3.278109312057495,108.0057601928711,257.60284423828125, 151.9852752685547
598,58676659,0.5806141,0.29431048,-0.5224573,0.55073327,16.225467681884766,0.2607036232948303,-3.394979476928711,114.43036651611328,246.82528686523438, 140.06248474121094
599,58693326,0.5847115,0.27324456,-0.4993933,0.5779763,16.86736297607422,1.5335781574249268,-3.766160011291504,92.17848205566406,240.73849487304688, 121.93124389648438
600,58709993,0.5900263,0.25118327,-0.47987366,0.5987466,14.701394081115723,2.1641318798065186,-3.867614269256592,49.56660079956055,222.53933715820312, 101.19438934326172
601,58726660,0.59531397,0.23052162,-0.4639809,0.6141523,13.405963897705078,1.2328375577926636,-4.628715991973877,22.672832489013672,192.78402709960938, 81.24799346923828
602,58743327,0.5992132,0.21179937,-0.45235282,0.625669,11.78472900390625,0.9688289165496826,-5.989274978637695,2.4093120098114014,156.63510131835938, 71.8132553100586
603,58759994,0.6020633,0.1951454,-0.4467416,0.63234514,10.525955200195312,3.150254726409912,-7.326231479644775,-28.468427658081055,112.73968505859375, 58.752296447753906
604,58776661,0.60449684,0.18118241,-0.4497973,0.63201207,8.704617500305176,2.8759045600891113,-8.504859924316406,-75.9714126586914,54.59207534790039, 34.9712028503418
605,58793328,0.60539967,0.17392272,-0.4584384,0.6269583,7.764593124389648,0.9786582589149475,-7.831367492675781,-85.05792999267578,-8.253726959228516, 8.286710739135742
606,58809995,0.60445595,0.1746602,-0.46951,0.61942524,8.283275604248047,1.5562238693237305,-7.162439823150635,-67.83551025390625,-61.52659606933594, -16.33753204345703
607,58826662,0.6029851,0.18035378,-0.48332083,0.6085088,9.649493217468262,2.1914544105529785,-6.095571517944336,-69.18035125732422,-99.68770599365234, -40.819419860839844
608,58843329,0.6020496,0.18538183,-0.49784,0.59609187,11.334733009338379,-1.674726128578186,-0.08606760203838348,-80.54183959960938,-99.83135986328125, -46.13099670410156
609,58859996,0.59946144,0.1900699,-0.50529075,0.5909323,9.765480995178223,-9.495118141174316,16.604795455932617,-26.01787567138672,-65.53662872314453, -17.1258544921875
610,58876663,0.5950012,0.19623257,-0.5082479,0.5908897,6.114508628845215,-3.2940075397491455,8.239973068237305,18.524520874023438,-52.926876068115234, 0.530937910079956
611,58893330,0.5932311,0.20277669,-0.5138681,0.5855752,9.591052055358887,-0.28712666034698486,2.759282350540161,-12.792757034301758,-63.13574981689453, -29.707374572753906
612,58909997,0.58815426,0.2151917,-0.5154912,0.58483857,12.760213851928711,-5.004110813140869,6.105307102203369,48.03394317626953,-75.75975036621094, -24.007064819335938
613,58926664,0.582873,0.22942346,-0.51995915,0.58074677,14.252304077148438,0.9231173396110535,2.218275308609009,32.352821350097656,-100.26263427734375, -38.989959716796875
614,58943331,0.57730794,0.24140473,-0.52868474,0.5735262,12.365619659423828,-1.1274933815002441,0.5617532134056091,-4.391173362731934,-114.2639389038086, -35.57583999633789
615,58959998,0.5708389,0.25360027,-0.5374881,0.5665129,10.9656343460083,-2.7995641231536865,-0.08621027320623398,-1.580886721611023,-118.32615661621094, -31.811067581176758
616,58976665,0.5647375,0.26552117,-0.54470915,0.5602342,9.829975128173828,-3.0230674743652344,1.0205793380737305,5.5911784172058105,-108.37113189697266, -32.102420806884766
617,58993332,0.5593454,0.2759703,-0.5509672,0.5544443,9.332221031188965,-3.25803804397583,0.00047115981578826904,4.12829065322876,-95.39564514160156, -29.186874389648438
618,59009999,0.55495584,0.28545463,-0.5560835,0.54891825,8.75809383392334,-4.07227087020874,0.5679338574409485,3.873175859451294,-83.00442504882812, -30.51555061340332
619,59026666,0.55324095,0.29413715,-0.5599631,0.54207885,9.296841621398926,-2.8079605102539062,1.4868818521499634,-4.791876792907715,-67.5971450805664, -45.002899169921875
620,59043333,0.5516589,0.30253625,-0.563392,0.5354755,8.923113822937012,-2.0796546936035156,1.0720934867858887,-3.551443099975586,-63.83445739746094, -44.42420196533203
621,59060000,0.549979,0.31068662,-0.5667473,0.5289563,10.89624309539795,-1.2672747373580933,1.3163402080535889,-3.694783926010132,-62.84035110473633, -42.932899475097656
622,59076667,0.5494123,0.3173115,-0.5700034,0.5220691,9.797719955444336,-1.7744909524917603,1.0697168111801147,-12.911978721618652,-53.36362838745117, -42.62627410888672
623,59093334,0.548904,0.32323998,-0.57271993,0.5159579,9.729348182678223,-2.0037436485290527,0.7488659024238586,-10.692188262939453,-46.9024543762207, -38.34706115722656
624,59110001,0.5487171,0.32855606,-0.574741,0.51052296,9.771171569824219,-2.013394594192505,0.6697843670845032,-8.58956241607666,-39.33345031738281, -36.0677375793457
625,59126668,0.54842097,0.33311296,-0.5764611,0.5059279,9.7583646774292,-1.9342447519302368,0.580468475818634,-6.832455635070801,-34.06623077392578, -30.195289611816406
626,59143335,0.54818344,0.33684316,-0.5779023,0.50205654,9.792058944702148,-1.8846502304077148,0.46440306305885315,-6.248276233673096,-28.247255325317383, -25.032154083251953
627,59160002,0.5481232,0.3399642,-0.5790669,0.4986654,9.692694664001465,-1.8212891817092896,0.49567168951034546,-6.093194484710693,-23.282529830932617, -22.05521583557129
628,59176669,0.5483806,0.342751,-0.5799249,0.49546757,9.656089782714844,-1.7821987867355347,0.4346882402896881,-6.2749786376953125,-19.26419448852539, -21.8011417388916
629,59193336,0.5488814,0.34523985,-0.5805439,0.49245083,9.631409645080566,-1.6657781600952148,0.49670082330703735,-6.437935829162598,-15.950568199157715, -21.323205947875977
630,59210003,0.54951274,0.3473336,-0.5811546,0.48954543,9.538637161254883,-1.645169734954834,0.6105634570121765,-7.768515586853027,-13.79559326171875, -19.787813186645508
631,59226670,0.550143,0.34894392,-0.58203924,0.48663276,9.575238227844238,-1.5121147632598877,0.684366762638092,-10.545743942260742,-13.228730201721191, -17.224462509155273
632,59243337,0.5508077,0.35031676,-0.5832606,0.4834216,9.436246871948242,-1.8367801904678345,0.7302731275558472,-13.848036766052246,-14.289319038391113, -16.709457397460938
633,59260004,0.55181104,0.35186037,-0.5845566,0.4795757,9.313739776611328,-2.039496660232544,0.7686752080917358,-16.813379287719727,-15.316136360168457, -20.74528694152832
634,59276671,0.55327904,0.3538892,-0.58576083,0.47489923,9.325399398803711,-2.016784906387329,0.785464882850647,-19.137367248535156,-16.71605682373047, -27.604389190673828
635,59293338,0.554988,0.35647225,-0.5869813,0.46943498,9.381680488586426,-1.769866943359375,0.7736691236495972,-20.845870971679688,-19.54008674621582, -33.584754943847656
636,59310005,0.55685127,0.35959676,-0.5882032,0.46327558,9.440166473388672,-1.5694317817687988,0.7550041079521179,-21.973697662353516,-22.381521224975586, -38.919105529785156
637,59326672,0.55875254,0.36318105,-0.5895538,0.45642287,9.500945091247559,-1.459409475326538,0.714817464351654,-23.525981903076172,-25.906286239624023, -43.23727035522461
638,59343339,0.56061476,0.36700395,-0.5911379,0.44897172,9.5966215133667,-1.2584638595581055,0.6897544860839844,-25.675048828125,-29.212989807128906, -45.798397064208984
639,59360006,0.56222683,0.37073192,-0.59339994,0.44083527,9.6448335647583,-1.2338850498199463,0.5595722794532776,-30.292070388793945,-34.28782272338867, -45.57115173339844
640,59376673,0.56400293,0.37423337,-0.5965001,0.4313215,9.766661643981934,-1.6097159385681152,1.1472684144973755,-39.75016403198242,-39.69205856323242, -48.33116149902344
641,59393340,0.5654667,0.37826556,-0.6007929,0.4197747,9.56676197052002,-1.1169744729995728,0.7624134421348572,-48.76898193359375,-52.41952133178711, -54.40028762817383
642,59410007,0.5657363,0.38390836,-0.605181,0.40781507,9.546431541442871,-0.13061878085136414,0.49786579608917236,-41.385643005371094,-63.459205627441406, -58.96485900878906
643,59426674,0.5645997,0.3908206,-0.60974324,0.395854,9.66942024230957,0.296842098236084,0.8352071046829224,-33.22696304321289,-73.56407165527344, -59.843719482421875
644,59443341,0.56260777,0.39865732,-0.6148929,0.38269046,10.409546852111816,-0.3121962249279022,1.5341325998306274,-33.9761962890625,-85.19465637207031, -64.47421264648438
645,59460008,0.56012857,0.40724993,-0.6210395,0.36703375,12.43616008758545,-0.6537455320358276,2.50724720954895,-42.877052307128906,-99.9619369506836, -73.3001480102539
646,59476675,0.55688334,0.4172018,-0.62788033,0.34869817,14.763044357299805,-2.065601348876953,4.138374328613281,-48.681678771972656,-116.88146209716797, -85.55142974853516
647,59493342,0.5514993,0.42898145,-0.63662773,0.32638758,15.598010063171387,-2.221191883087158,5.0376715660095215,-57.276241302490234,-149.2691192626953, -98.09233856201172
648,59510009,0.54419786,0.44242126,-0.6468554,0.2994838,16.90217399597168,-2.1841588020324707,6.0867600440979,-68.74600982666016,-180.63702392578125, -114.14456176757812
649,59526676,0.5341154,0.45830965,-0.6574571,0.2691165,17.931087493896484,-5.538778305053711,4.197316646575928,-67.28215026855469,-210.0920867919922, -131.1785888671875
650,59543343,0.52107334,0.4761097,-0.66733867,0.23761694,17.227638244628906,-6.3065876960754395,-1.7770307064056396,-54.72922897338867,-228.0269012451172, -140.85317993164062
651,59560010,0.5077702,0.49421227,-0.6741271,0.20851056,17.44853401184082,-3.895967721939087,-7.689451217651367,-36.79422378540039,-210.8363494873047, -143.44166564941406
652,59576677,0.49051037,0.5128862,-0.6784072,0.19003016,15.224708557128906,-4.277672290802002,-4.642058372497559,31.43558692932129,-185.12026977539062, -111.88204956054688
653,59593344,0.47620758,0.5258847,-0.6818081,0.17835307,9.752503395080566,-1.8307632207870483,3.5996620655059814,34.70840072631836,-136.96832275390625, -69.47999572753906
654,59610011,0.4695404,0.5310112,-0.68444824,0.17055726,7.226076602935791,-2.7111220359802246,2.3735249042510986,0.4648365378379822,-75.05908966064453, -32.0226936340332
655,59626678,0.46579733,0.53215605,-0.68614036,0.17045432,3.346372127532959,-5.582292556762695,3.138507843017578,14.215378761291504,-25.544300079345703, 4.6379804611206055
656,59643345,0.46333995,0.53161657,-0.6865669,0.1769921,3.4366567134857178,-3.5592265129089355,1.8990195989608765,36.91374588012695,10.802682876586914, 27.661378860473633
657,59660012,0.46468174,0.52788126,-0.68561846,0.1879891,4.374330997467041,-1.1189502477645874,1.515831708908081,35.54502868652344,53.2691535949707, 47.27915573120117
658,59676679,0.46922934,0.52079755,-0.68358165,0.20324923,4.4929118156433105,-1.0066232681274414,1.8397215604782104,34.71353530883789,91.62857055664062, 68.57683563232422
659,59693346,0.47525546,0.5111544,-0.6804306,0.22331159,5.123034954071045,-1.1950263977050781,1.408216118812561,45.2938346862793,122.91600036621094, 90.0310287475586
660,59710013,0.48248667,0.49963647,-0.67554796,0.24739715,6.017236232757568,-0.4803926646709442,1.3109408617019653,56.410362243652344,151.20362854003906, 104.00397491455078
661,59726680,0.4922835,0.48520958,-0.66889066,0.27352232,7.238514423370361,-0.11959896236658096,0.8254720568656921,50.445186614990234,180.93878173828125, 113.81488037109375
662,59743347,0.5042949,0.4679248,-0.66038513,0.30103993,8.308287620544434,-0.5711536407470703,0.10862411558628082,43.27429962158203,207.37953186035156, 121.33704376220703
663,59760014,0.5179068,0.448051,-0.6499953,0.329438,9.175699234008789,-0.9440465569496155,-1.0515518188476562,37.043739318847656,229.3594512939453, 126.76605987548828
664,59776681,0.5321436,0.4261365,-0.6378051,0.3583796,9.973278999328613,-0.42657509446144104,-1.8654438257217407,34.358707427978516,244.85791015625, 130.85276794433594
665,59793348,0.54617625,0.4022746,-0.6241563,0.38768017,11.375895500183105,-0.671725869178772,-2.7992942333221436,32.99612808227539,255.15994262695312, 136.93504333496094
666,59810015,0.55884594,0.37747422,-0.60901695,0.4174965,12.779680252075195,-0.6546380519866943,-3.1131179332733154,39.43888473510742,258.85479736328125, 142.4086456298828
667,59826682,0.5688525,0.35317913,-0.59251463,0.447882,13.670334815979004,-1.0703282356262207,-3.2153637409210205,54.596092224121094,252.9895782470703, 146.59117126464844
668,59843349,0.5755558,0.33092424,-0.57473695,0.4784375,14.26449966430664,-1.1865272521972656,-2.9616823196411133,75.21617126464844,238.67771911621094, 146.02281188964844
669,59860016,0.57989615,0.31033215,-0.5562785,0.50790673,15.531079292297363,-0.8559423685073853,-2.880185127258301,85.13333892822266,224.12158203125, 141.38511657714844
670,59876683,0.583819,0.2897791,-0.5379663,0.53458047,16.474016189575195,-0.9393385052680969,-2.877350330352783,74.97706604003906,215.884033203125, 131.8745574951172
671,59893350,0.58780915,0.2692111,-0.51998854,0.55822766,15.666889190673828,-0.06542123854160309,-2.7574546337127686,62.37393569946289,208.86712646484375, 120.2215347290039
672,59910017,0.59187376,0.24904501,-0.5049378,0.57680166,13.831315040588379,0.7044209837913513,-2.9773762226104736,34.493778228759766,186.42434692382812, 103.4405746459961
673,59926684,0.59503835,0.23127685,-0.49256238,0.5914583,12.828530311584473,1.3115825653076172,-3.6071107387542725,21.600021362304688,156.25282287597656, 87.361328125
674,59943351,0.5971525,0.21588594,-0.48364845,0.6024006,11.436705589294434,1.908227562904358,-3.923513412475586,6.354223728179932,123.02811431884766, 73.93436431884766
675,59960018,0.59866554,0.20294808,-0.47860253,0.60938627,10.113335609436035,1.9553580284118652,-4.058980464935303,-11.844379425048828,89.18537139892578, 57.812469482421875
676,59976685,0.59930986,0.19353847,-0.47763854,0.6125622,9.123591423034668,1.9871550798416138,-4.470893383026123,-25.732454299926758,49.496002197265625, 39.90644454956055
677,59993352,0.5987085,0.18864943,-0.48070517,0.6122765,8.52966594696045,1.6793714761734009,-4.3568806648254395,-33.776954650878906,5.222875595092773, 21.455299377441406
678,60010019,0.5968442,0.18943666,-0.4860675,0.6096142,8.638567924499512,1.7960543632507324,-3.938197374343872,-26.277679443359375,-35.311214447021484, 1.2504526376724243
679,60026686,0.59439725,0.19548483,-0.49221975,0.6051428,8.805107116699219,2.3597161769866943,-3.247344493865967,-13.273390769958496,-64.84442901611328, -20.238779067993164
680,60043353,0.59192276,0.20267992,-0.4974034,0.600948,10.50082778930664,-0.5201143622398376,-0.8232898116111755,-3.571290969848633,-65.32235717773438, -24.127460479736328
681,60060020,0.58872664,0.2106086,-0.50266165,0.5969728,9.173872947692871,-2.0219547748565674,4.430993556976318,0.8752606511116028,-70.77381134033203, -22.627199172973633
682,60076687,0.58532506,0.21558474,-0.5083729,0.5936961,8.623542785644531,-4.672635555267334,6.1292877197265625,-10.223380088806152,-60.19160461425781, -8.082040786743164
683,60093354,0.5833926,0.21869987,-0.5149677,0.5887546,8.433086395263672,-1.8157178163528442,3.669973373413086,-29.316709518432617,-53.50424575805664, -12.97374153137207
684,60110021,0.5828852,0.2205817,-0.52261156,0.58177835,10.351223945617676,-2.4491593837738037,4.816501140594482,-47.853485107421875,-50.7408447265625, -20.941591262817383
685,60126688,0.57980615,0.22604172,-0.53019243,0.5758699,12.368904113769531,-4.3736162185668945,4.072511672973633,-25.5233097076416,-72.43401336669922, -19.310352325439453
686,60143355,0.5745171,0.23532745,-0.5387382,0.56948465,12.499214172363281,-1.419926643371582,1.4753665924072266,-12.387528419494629,-100.22489929199219, -24.90395736694336
687,60160022,0.5698332,0.24461037,-0.5500454,0.55938035,12.277769088745117,-1.7544344663619995,-0.7774019241333008,-37.95820236206055,-114.87950897216797, -37.45991134643555
688,60176689,0.5639533,0.2548594,-0.5592638,0.5515684,10.27499008178711,-3.189316511154175,1.0884864330291748,-15.4391508102417,-111.04403686523438, -31.022518157958984
689,60193356,0.5587506,0.26475367,-0.56582755,0.54547507,9.89616870880127,-1.8438212871551514,-0.07729040086269379,-1.3200339078903198,-93.77330017089844, -30.216981887817383
690,60210023,0.5543688,0.2725963,-0.57158387,0.5400543,9.303752899169922,-3.81136155128479,-0.3030763268470764,-5.040468692779541,-78.54021453857422, -24.190004348754883
691,60226690,0.5512449,0.27967212,-0.57539153,0.535572,9.169543266296387,-3.7169320583343506,0.3475346267223358,0.6031308174133301,-61.54126739501953, -25.936105728149414
692,60243357,0.5493344,0.28570262,-0.5784665,0.5310206,9.346789360046387,-3.1459662914276123,1.0234802961349487,-3.2685768604278564,-50.23497772216797, -27.95079803466797
693,60260024,0.54771864,0.29075316,-0.5812145,0.5269316,9.18243408203125,-2.846651077270508,1.0286598205566406,-4.51813268661499,-43.33697509765625, -24.031490325927734
694,60276691,0.54577225,0.29529065,-0.58442825,0.52285755,9.429824829101562,-2.1068718433380127,1.3287601470947266,-7.4171295166015625,-44.522647857666016, -19.79869270324707
695,60293358,0.5450329,0.298375,-0.5877153,0.51817226,9.693268775939941,-2.0161144733428955,1.5513108968734741,-18.037424087524414,-35.96826934814453, -20.438541412353516
696,60310025,0.5444566,0.30122977,-0.5907229,0.51368725,9.425482749938965,-2.328237295150757,1.278416395187378,-17.42482566833496,-33.03955078125, -19.906902313232422
697,60326692,0.54389685,0.3045086,-0.593621,0.50898445,9.570178985595703,-2.394239902496338,1.171083927154541,-16.368701934814453,-34.51670455932617, -22.726816177368164
698,60343359,0.5431327,0.30765715,-0.59671485,0.50426745,9.578651428222656,-2.4767422676086426,0.896806001663208,-17.170286178588867,-35.660648345947266, -21.121240615844727
699,60360026,0.5424657,0.31035164,-0.5997808,0.49967587,9.498825073242188,-2.636481761932373,0.6815595626831055,-18.46072769165039,-33.322811126708984, -19.18439292907715
700,60376693,0.54212123,0.31284586,-0.6026684,0.49499846,9.49221134185791,-2.6582298278808594,0.6258274912834167,-19.63806915283203,-30.824665069580078, -20.169281005859375
701,60393360,0.5419521,0.31535256,-0.60546535,0.490156,9.510817527770996,-2.54400897026062,0.5058472752571106,-20.345317840576172,-30.15988540649414, -21.62944793701172
