PacketCounter,SampleTimeFine,Quat_W,Quat_X,Quat_Y,Quat_Z,Acc_X,Acc_Y,Acc_Z,Gyr_X,Gyr_Y,Gyr_Z 
1,405102689,0.07172383,-0.6870791,-0.15337393,-0.70657945,-2.7451932430267334,-1.2154090404510498,0.2708379924297333,0.7576164603233337,-2.196465492248535, 0.39852020144462585
2,405119356,0.07165495,-0.6869666,-0.15347289,-0.7066744,9.760106086730957,1.1514968872070312,0.07315602153539658,-1.9889029264450073,0.04668554663658142, -0.41172412037849426
3,405136023,0.07145955,-0.6870242,-0.15330358,-0.70667493,9.751749992370605,1.1696475744247437,0.08195625245571136,-1.7380651235580444,0.10948789119720459, -0.4411659836769104
4,405152690,0.07123803,-0.68706614,-0.15319476,-0.7066802,9.756351470947266,1.167515516281128,0.0893937200307846,-1.741804599761963,0.046262938529253006, -0.45540666580200195
5,405169357,0.07118582,-0.6870319,-0.15326096,-0.7067044,9.751731872558594,1.1636067628860474,0.08100179582834244,-1.6723300218582153,0.14292527735233307, -0.5379051566123962
6,405186024,0.071189694,-0.68701655,-0.15335514,-0.70669836,9.759905815124512,1.1612517833709717,0.07526884227991104,-1.5121865272521973,-0.03476924076676369, -0.4503992795944214
7,405202691,0.07110637,-0.68703777,-0.15334056,-0.7066893,9.745633125305176,1.1685402393341064,0.0709405466914177,-1.3850706815719604,-0.05820485204458237, -0.40640947222709656
8,405219358,0.07104624,-0.68706983,-0.15334636,-0.7066629,9.74997615814209,1.1776055097579956,0.07629243284463882,-1.2613742351531982,-0.1359650194644928, -0.3259088099002838
9,405236025,0.07105868,-0.68708074,-0.15343213,-0.7066325,9.758645057678223,1.1925297975540161,0.10443184524774551,-1.0400294065475464,-0.11474490165710449, -0.2946741282939911
10,405252692,0.07089461,-0.68711454,-0.1533698,-0.7066295,9.765422821044922,1.1827198266983032,0.09030073136091232,-1.4379353523254395,-0.27963945269584656, -0.31206509470939636
11,405269359,0.07084226,-0.6871319,-0.15342923,-0.7066051,9.775191307067871,1.1736245155334473,0.10949842631816864,-1.4978690147399902,-0.43722155690193176, -0.3622147738933563
12,405286026,0.070582844,-0.68715936,-0.1532949,-0.70663357,9.77133560180664,1.1980451345443726,0.0853516086935997,-1.953467607498169,-0.29011502861976624, -0.5083480477333069
13,405302693,0.07036615,-0.6871664,-0.1532338,-0.7066614,9.776330947875977,1.1963714361190796,0.06667304039001465,-2.5945918560028076,-0.31095099449157715, -0.630059540271759
14,405319360,0.07009987,-0.68718165,-0.15312041,-0.7066978,9.777292251586914,1.1906532049179077,0.07520445436239243,-2.963927745819092,-0.25006964802742004, -0.6040627956390381
15,405336027,0.06993136,-0.68717146,-0.15308064,-0.706733,9.767631530761719,1.1645463705062866,0.03733375295996666,-2.707979917526245,-0.1117994412779808, -0.5228192210197449
16,405352694,0.06973319,-0.6871615,-0.15299253,-0.7067812,9.752022743225098,1.164344310760498,0.03338688984513283,-2.2705276012420654,0.14462850987911224, -0.5106276273727417
17,405369361,0.06968191,-0.68713295,-0.15304017,-0.70680386,9.757399559020996,1.1832324266433716,0.08863114565610886,-1.872967004776001,0.16071327030658722, -0.5057227611541748
18,405386028,0.06962037,-0.68711203,-0.1530623,-0.70682544,9.753591537475586,1.1936670541763306,0.08391349017620087,-1.679002285003662,0.11968175321817398, -0.4308440387248993
19,405402695,0.06954939,-0.6870894,-0.15306012,-0.7068549,9.757868766784668,1.1905049085617065,0.08900628238916397,-2.0471973419189453,0.11590386927127838, -0.3595126271247864
20,405419362,0.069459304,-0.68707585,-0.15302682,-0.70688397,9.759231567382812,1.2055147886276245,0.09105303883552551,-2.342576026916504,0.03179176524281502, -0.29628774523735046
21,405436029,0.06928447,-0.68707484,-0.15292248,-0.7069248,9.759461402893066,1.1988260746002197,0.09770458936691284,-2.8531265258789062,-0.021117668598890305, -0.34551528096199036
22,405452696,0.069111526,-0.6870839,-0.15282099,-0.7069548,9.736464500427246,1.1836047172546387,0.1007019430398941,-2.6515800952911377,-0.12513084709644318, -0.3286237120628357
23,405469363,0.06904368,-0.68705904,-0.15281846,-0.7069862,9.753228187561035,1.18757164478302,0.09501474350690842,-2.44931697845459,-0.009297410026192665, -0.34040558338165283
24,405486030,0.06884506,-0.6870634,-0.15267353,-0.70703256,9.758634567260742,1.198504090309143,0.0933891013264656,-2.2728326320648193,0.023262733593583107, -0.27411991357803345
25,405502697,0.06868795,-0.6870633,-0.15260303,-0.70706314,9.764528274536133,1.192604899406433,0.09415588527917862,-2.370698928833008,-0.11167138069868088, -0.425875186920166
26,405519364,0.06846052,-0.68706685,-0.15245351,-0.70711404,9.758910179138184,1.1804118156433105,0.0708690732717514,-2.4671177864074707,0.0028366066981106997, -0.39941728115081787
27,405536031,0.06834616,-0.6870459,-0.1524108,-0.7071547,9.77774715423584,1.1906260251998901,0.06276006996631622,-2.409322738647461,0.029678713530302048, -0.3981110155582428
28,405552698,0.06806746,-0.68705297,-0.15222512,-0.7072146,9.7532958984375,1.1921768188476562,0.061493515968322754,-2.2530083656311035,0.09924281388521194, -0.4919303357601166
29,405569365,0.067886434,-0.6870321,-0.15213345,-0.70727193,9.754128456115723,1.1908072233200073,0.0812092050909996,-2.2231056690216064,0.1851734220981598, -0.5011764764785767
30,405586032,0.067727655,-0.6870093,-0.15205352,-0.70732677,9.743966102600098,1.2005077600479126,0.08180917054414749,-2.0193309783935547,0.20585566759109497, -0.4531910717487335
31,405602699,0.067540534,-0.6869987,-0.15194605,-0.70737803,9.744258880615234,1.2157527208328247,0.1076355129480362,-1.9687198400497437,0.15209458768367767, -0.4417165517807007
32,405619366,0.067353725,-0.68699044,-0.15182413,-0.7074299,9.747395515441895,1.220788836479187,0.08616004884243011,-2.260308027267456,0.11116552352905273, -0.36340582370758057
33,405636033,0.06718469,-0.68697643,-0.15172039,-0.70748186,9.759449005126953,1.1972512006759644,0.08393342047929764,-2.404264450073242,0.11020504683256149, -0.36339297890663147
34,405652700,0.067037456,-0.68695843,-0.15162987,-0.70753264,9.758173942565918,1.1826890707015991,0.08249654620885849,-2.196570634841919,0.14617808163166046, -0.3272406756877899
35,405669367,0.06689402,-0.6869511,-0.15156816,-0.70756674,9.781234741210938,1.184678554534912,0.1004503071308136,-2.0662150382995605,0.003207990899682045, -0.43693986535072327
36,405686034,0.06676707,-0.6869236,-0.15150775,-0.7076182,9.772775650024414,1.2165855169296265,0.09977183490991592,-2.3006224632263184,0.15619264543056488, -0.40436047315597534
37,405702701,0.06649911,-0.6869164,-0.15133417,-0.7076875,9.781730651855469,1.1981703042984009,0.07203149050474167,-2.648890972137451,0.1533496379852295, -0.5298115015029907
38,405719368,0.06627732,-0.68686587,-0.15120219,-0.70778584,9.780394554138184,1.2200652360916138,0.06156686693429947,-2.842228412628174,0.46255892515182495, -0.5706125497817993
39,405736035,0.06600344,-0.68682116,-0.15102533,-0.70789254,9.780590057373047,1.2011468410491943,0.0698801577091217,-3.1840169429779053,0.46605509519577026, -0.6051768660545349
40,405752702,0.065848514,-0.6866928,-0.15095964,-0.7080455,9.759498596191406,1.2126011848449707,0.052374206483364105,-3.0863943099975586,1.0488463640213013, -0.6740238070487976
41,405769369,0.06563454,-0.68657446,-0.15085486,-0.7082024,9.76276969909668,1.2048227787017822,0.083677738904953,-2.9259305000305176,1.0652257204055786, -0.7608124017715454
42,405786036,0.065421075,-0.686433,-0.15077941,-0.70837533,9.757142066955566,1.2043651342391968,0.10433907806873322,-2.6176950931549072,1.2641595602035522, -0.9288445711135864
43,405802703,0.06524679,-0.6863239,-0.15073077,-0.7085073,9.732604026794434,1.2060167789459229,0.13594497740268707,-2.447523832321167,0.9176197052001953, -0.8181848526000977
44,405819370,0.06497039,-0.6862971,-0.15062186,-0.70858186,9.699307441711426,1.2489852905273438,0.1586472988128662,-2.5732951164245605,0.23346613347530365, -0.9139891266822815
45,405836037,0.0647993,-0.68630934,-0.15062115,-0.70858586,9.671513557434082,1.269406795501709,0.17234884202480316,-3.250750780105591,-0.4623604416847229, -0.8521472811698914
46,405852704,0.064688645,-0.68640596,-0.15066499,-0.7084931,9.676499366760254,1.2563369274139404,0.19269970059394836,-3.185758352279663,-1.3665013313293457, -0.6293936967849731
47,405869371,0.06437038,-0.68665016,-0.15047279,-0.7083262,9.705994606018066,1.2415481805801392,0.21330009400844574,-3.2853541374206543,-2.312225341796875, -0.3064431846141815
48,405886038,0.06412753,-0.68698955,-0.15033993,-0.70804745,9.733163833618164,1.242607831954956,0.18171364068984985,-2.8319320678710938,-3.308981418609619, -0.0700763389468193
49,405902705,0.063768074,-0.6874289,-0.15009633,-0.70770496,9.744044303894043,1.2115291357040405,0.13392111659049988,-2.632140874862671,-4.023538112640381, 0.033290110528469086
50,405919372,0.0636902,-0.68785065,-0.15013939,-0.707293,9.77746295928955,1.1721627712249756,0.07551999390125275,-2.2702202796936035,-4.41551399230957, 0.033379752188920975
51,405936039,0.06357776,-0.6882866,-0.15016645,-0.70687306,9.783920288085938,1.1782346963882446,0.05203555151820183,-1.687646746635437,-4.442357063293457, -0.044450849294662476
52,405952706,0.06360375,-0.6886676,-0.15035097,-0.70646036,9.787214279174805,1.1866629123687744,0.00850730948150158,-1.0844290256500244,-4.165521621704102, -0.19132688641548157
53,405969373,0.063651785,-0.6890134,-0.15051655,-0.70608354,9.800873756408691,1.1768358945846558,-0.011922566220164299,-0.7585330009460449,-3.7397749423980713, -0.05053386092185974
54,405986040,0.06369974,-0.6893267,-0.1506806,-0.7057383,9.76548957824707,1.1694632768630981,-0.025270629674196243,-0.364750474691391,-3.3658547401428223, -0.09684162586927414
55,406002707,0.06385313,-0.6895926,-0.15097575,-0.70540166,9.76960277557373,1.224774718284607,-0.01987278088927269,-0.0946645438671112,-3.1423840522766113, -0.27085432410240173
56,406019374,0.06394631,-0.68983537,-0.15118074,-0.70511174,9.785871505737305,1.2436120510101318,-0.06038755550980568,-0.5365987420082092,-2.7819488048553467, -0.1765739470720291
57,406036041,0.06411035,-0.68998516,-0.15143009,-0.7048968,9.791226387023926,1.1979751586914062,-0.07889528572559357,-0.1676735132932663,-1.9269071817398071, -0.16856998205184937
58,406052708,0.06425869,-0.69007885,-0.15168543,-0.7047366,9.793685913085938,1.185095191001892,-0.12366223335266113,0.5049735307693481,-1.3067470788955688, -0.35774537920951843
59,406069375,0.06458673,-0.6900494,-0.15214343,-0.7046367,9.805071830749512,1.176581859588623,-0.10396446287631989,0.7580525875091553,-0.5051336288452148, -0.6116824746131897
60,406086042,0.064708605,-0.68997425,-0.15244158,-0.7046346,9.783496856689453,1.193860411643982,-0.11131464689970016,0.8131968975067139,0.2885078489780426, -0.9482718706130981
61,406102709,0.06490801,-0.6897988,-0.1528128,-0.70470774,9.799983978271484,1.2514666318893433,-0.09808679670095444,0.13113060593605042,1.0211846828460693, -1.064335584640503
62,406119376,0.06485718,-0.6895972,-0.15292208,-0.704886,9.775542259216309,1.2640774250030518,-0.09008467942476273,-1.2318940162658691,1.6616559028625488, -1.104137897491455
63,406136043,0.06467141,-0.6893813,-0.15287118,-0.7051253,9.745413780212402,1.2570600509643555,-0.039542630314826965,-2.261460304260254,2.0166220664978027, -1.0354573726654053
64,406152710,0.06449072,-0.6891643,-0.15280211,-0.70536894,9.745257377624512,1.2678052186965942,0.003701808862388134,-2.985736608505249,1.9759877920150757, -0.9264241456985474
65,406169377,0.064343795,-0.6889503,-0.15274511,-0.7056037,9.723298072814941,1.2816716432571411,0.0077209994196891785,-2.9329490661621094,1.9249932765960693, -0.8095022439956665
66,406186044,0.06422835,-0.68876714,-0.1526718,-0.7058089,9.736028671264648,1.2975682020187378,0.041304752230644226,-2.4390335083007812,1.7256747484207153, -0.5272246599197388
67,406202711,0.064158745,-0.6885929,-0.15263632,-0.7059927,9.738831520080566,1.240014672279358,0.021690484136343002,-1.8811118602752686,1.6252602338790894, -0.45762208104133606
68,406219378,0.06423106,-0.68842345,-0.15270892,-0.70613563,9.746326446533203,1.2286931276321411,0.04825134575366974,-1.0806381702423096,1.4527970552444458, -0.2606220245361328
69,406236045,0.06431095,-0.6882831,-0.15278482,-0.70624876,9.738615989685059,1.2698198556900024,0.05643454194068909,-0.6392289996147156,1.220950961112976, -0.19628290832042694
70,406252712,0.0644162,-0.68817693,-0.1528777,-0.70632255,9.740537643432617,1.2861030101776123,0.06431818008422852,-1.0622098445892334,0.7996476888656616, -0.10111892968416214
71,406269379,0.064387925,-0.6881112,-0.15282518,-0.7064005,9.734395980834961,1.2990831136703491,0.06845874339342117,-2.090444564819336,0.5852310061454773, -0.014945010654628277
72,406286046,0.064329386,-0.68807423,-0.15270631,-0.7064676,9.742561340332031,1.2556941509246826,0.08676096051931381,-3.2093992233276367,0.30313271284103394, 0.18887443840503693
73,406302713,0.064105585,-0.6880847,-0.15245502,-0.70653206,9.759360313415527,1.2475905418395996,0.03861527144908905,-3.80365252494812,0.049118757247924805, 0.06916069984436035
74,406319380,0.06401354,-0.68806416,-0.15231915,-0.7065897,9.768477439880371,1.217568039894104,0.01864892989397049,-3.293203592300415,0.1651698797941208, 0.12895353138446808
75,406336047,0.06393174,-0.68804693,-0.15221742,-0.70663583,9.758489608764648,1.2064964771270752,0.02477681264281273,-2.0433425903320312,0.22416873276233673, 0.02867981791496277
76,406352714,0.063961916,-0.6880081,-0.15221137,-0.7066721,9.7601318359375,1.2316218614578247,0.012395753525197506,-1.4112340211868286,0.30995845794677734, 0.09451726078987122
77,406369381,0.06403042,-0.68794864,-0.15224673,-0.7067162,9.74954605102539,1.234654426574707,0.012189646251499653,-1.1750978231430054,0.4531334936618805, 0.0570714995265007
78,406386048,0.06410209,-0.68788785,-0.15227666,-0.7067624,9.752840042114258,1.240006923675537,-0.0046852463856339455,-1.1625219583511353,0.48164039850234985, 0.09461971372365952
79,406402715,0.064130664,-0.6878285,-0.15226904,-0.70681924,9.752484321594238,1.261215090751648,0.029658205807209015,-1.329900860786438,0.53094482421875, 0.060439564287662506
80,406419382,0.064114265,-0.68778044,-0.15219882,-0.70688266,9.756219863891602,1.2339259386062622,0.03375859931111336,-1.9079155921936035,0.48283135890960693, 0.1478557139635086
81,406436049,0.06411831,-0.68773407,-0.15211636,-0.7069453,9.754722595214844,1.2552642822265625,0.06278286874294281,-2.1316683292388916,0.46577340364456177, 0.3039139211177826
82,406452716,0.06411369,-0.68769014,-0.15200268,-0.7070128,9.750731468200684,1.2357579469680786,0.009440567344427109,-1.9952805042266846,0.522710382938385, 0.4132801294326782
83,406469383,0.06412678,-0.6876536,-0.15188399,-0.7070725,9.75992202758789,1.2090110778808594,0.010370428673923016,-1.7585294246673584,0.49712327122688293, 0.5346330404281616
84,406486050,0.064236715,-0.687594,-0.15185338,-0.70712715,9.748429298400879,1.236987829208374,0.04314872995018959,-1.2273606061935425,0.6045557856559753, 0.5608861446380615
85,406502717,0.064335,-0.6875396,-0.15182583,-0.707177,9.745643615722656,1.2358554601669312,0.01754230447113514,-1.2324573993682861,0.5475674867630005, 0.4972898066043854
86,406519384,0.0644247,-0.6874734,-0.15179287,-0.70724016,9.755760192871094,1.2341358661651611,0.013702326454222202,-1.2639739513397217,0.6706749200820923, 0.46298155188560486
87,406536051,0.06453821,-0.687379,-0.15177953,-0.70732456,9.769631385803223,1.217532992362976,0.02158721163868904,-1.3839951753616333,0.8884084820747375, 0.4435414969921112
88,406552718,0.06462028,-0.68725234,-0.15174522,-0.7074475,9.78125,1.2051585912704468,0.016587259247899055,-1.1681567430496216,1.2693846225738525, 0.34157735109329224
89,406569385,0.06474014,-0.6871062,-0.151744,-0.7075787,9.756021499633789,1.2200186252593994,0.01391551923006773,-1.0265952348709106,1.4064124822616577, 0.340027779340744
90,406586052,0.06484263,-0.68696564,-0.15174288,-0.7077061,9.762343406677246,1.20603609085083,0.034492287784814835,-1.0080902576446533,1.3601304292678833, 0.2618066370487213
91,406602719,0.06493407,-0.68681735,-0.15174654,-0.70784074,9.749279975891113,1.2382550239562988,0.046264536678791046,-1.015069603919983,1.4247512817382812, 0.17189323902130127
92,406619386,0.06499954,-0.68667346,-0.15173103,-0.7079778,9.747957229614258,1.2217422723770142,0.06226896494626999,-1.1312873363494873,1.4118554592132568, 0.14105555415153503
93,406636053,0.065120876,-0.68653095,-0.1517754,-0.70809525,9.744904518127441,1.2222561836242676,0.06964266300201416,-1.0341126918792725,1.2848931550979614, 0.1337815374135971
94,406652720,0.06519502,-0.68641406,-0.1517926,-0.708198,9.740325927734375,1.2403475046157837,0.06892327964305878,-0.988394021987915,1.104630947113037, 0.06949365139007568
95,406669387,0.06525193,-0.68630844,-0.15179618,-0.7082944,9.752174377441406,1.1942014694213867,0.0747298076748848,-1.1450284719467163,1.0076868534088135, 0.06531877815723419
96,406686054,0.06539353,-0.6862071,-0.15184271,-0.7083695,9.74690055847168,1.212390661239624,0.07392862439155579,-0.6200578212738037,0.9438086748123169, 0.2846275269985199
97,406702721,0.06554111,-0.68609774,-0.15191771,-0.7084457,9.758096694946289,1.2036458253860474,0.07058469206094742,-0.29336783289909363,1.0025514364242554, 0.17122729122638702
98,406719388,0.065755084,-0.6859664,-0.15205713,-0.7085233,9.752532005310059,1.2185015678405762,0.05396077781915665,0.01957450620830059,1.1171170473098755, 0.16076450049877167
99,406736055,0.06594388,-0.68583715,-0.15215634,-0.7086095,9.747743606567383,1.2299003601074219,0.06060721352696419,0.170791894197464,1.2028940916061401, 0.23126348853111267
100,406752722,0.066114664,-0.6856983,-0.15226482,-0.70870465,9.758589744567871,1.2242906093597412,0.04141249880194664,-0.09617568552494049,1.2443994283676147, 0.08272261917591095
101,406769389,0.06627073,-0.68553895,-0.1523482,-0.7088263,9.787344932556152,1.2181429862976074,0.07449821382761002,-0.3795417845249176,1.4606730937957764, 0.09454287588596344
102,406786056,0.06638309,-0.6853767,-0.15243685,-0.7089537,9.780037879943848,1.2131150960922241,0.08802488446235657,-0.702991783618927,1.4384925365447998, -0.15211382508277893
103,406802723,0.06640883,-0.6852137,-0.1524443,-0.7091072,9.771893501281738,1.24136221408844,0.12066091597080231,-1.4153960943222046,1.527970314025879, -0.20446616411209106
104,406819390,0.06639701,-0.6850799,-0.15238668,-0.7092498,9.756017684936523,1.2398465871810913,0.09240034222602844,-2.123664140701294,1.296610951423645, -0.04785733297467232
105,406836057,0.06632853,-0.6849657,-0.15226859,-0.70939183,9.742210388183594,1.2228792905807495,0.10145722329616547,-2.441581964492798,1.1999998092651367, -0.013715601526200771
106,406852724,0.06628612,-0.6848645,-0.15215166,-0.7095187,9.74079704284668,1.2159861326217651,0.11186603456735611,-1.9963304996490479,1.1327664852142334, 0.1332692801952362
107,406869391,0.06633511,-0.6847567,-0.15213203,-0.70962244,9.736865043640137,1.2556874752044678,0.14200010895729065,-1.6703962087631226,1.0330561399459839, 0.11284314095973969
108,406886058,0.06637392,-0.684684,-0.15207316,-0.7097014,9.722556114196777,1.2209441661834717,0.11127165704965591,-1.484755277633667,0.8023241758346558, 0.30588608980178833
109,406902725,0.066412486,-0.6846451,-0.15201178,-0.70974857,9.731863975524902,1.2132441997528076,0.12458718568086624,-1.457836389541626,0.49328139424324036, 0.3666522204875946
110,406919392,0.066441484,-0.68463725,-0.15190545,-0.70977616,9.753727912902832,1.2270472049713135,0.12212708592414856,-1.5478907823562622,0.28192541003227234, 0.5757030844688416
111,406936059,0.0665158,-0.68460786,-0.15181415,-0.70981705,9.788723945617676,1.1817026138305664,0.08112017065286636,-1.6104625463485718,0.44811341166496277, 0.6908321380615234
112,406952726,0.06655082,-0.6845696,-0.15172137,-0.7098705,9.765707015991211,1.1993613243103027,0.07334373146295547,-1.6670024394989014,0.5329810380935669, 0.49075847864151
113,406969393,0.0666024,-0.68451333,-0.15164198,-0.7099369,9.775489807128906,1.2059382200241089,0.07066955417394638,-1.4525988101959229,0.7066224813461304, 0.48276737332344055
114,406986060,0.06665847,-0.6844324,-0.15159148,-0.7100205,9.75211238861084,1.2003538608551025,0.09152492135763168,-1.4818741083145142,0.8818644881248474, 0.33058953285217285
115,407002727,0.06673141,-0.6843443,-0.15155517,-0.7101063,9.759661674499512,1.2327226400375366,0.12006604671478271,-1.6328991651535034,0.9051336050033569, 0.33116579055786133
116,407019394,0.06670147,-0.68428916,-0.15141442,-0.7101923,9.750781059265137,1.245260238647461,0.12890702486038208,-2.178654670715332,0.745054304599762, 0.36538439989089966
117,407036061,0.06662796,-0.6842338,-0.15122835,-0.7102922,9.76945972442627,1.1889228820800781,0.08129334449768066,-2.820240020751953,0.7624708414077759, 0.3571242690086365
118,407052728,0.06659473,-0.6841569,-0.15105478,-0.71040624,9.78183650970459,1.1234363317489624,0.10560859739780426,-2.4019715785980225,0.9970830678939819, 0.4679888188838959
119,407069395,0.06675105,-0.68404424,-0.15107645,-0.7104955,9.775418281555176,1.1293689012527466,0.10459450632333755,-0.9395122528076172,1.113556981086731, 0.4341545104980469
120,407086062,0.06692376,-0.68390924,-0.15113959,-0.7105958,9.762739181518555,1.1951645612716675,0.1108865886926651,-0.3460788130760193,1.3149752616882324, 0.2901726961135864
121,407102729,0.06710902,-0.68375784,-0.15118594,-0.71071404,9.761741638183594,1.2083344459533691,0.1140918955206871,-0.28252092003822327,1.5159324407577515, 0.40715867280960083
122,407119396,0.067293845,-0.68361515,-0.15121767,-0.71082705,9.74838924407959,1.2036696672439575,0.12488681077957153,-0.6310968995094299,1.4245591163635254, 0.47948893904685974
123,407136063,0.06745241,-0.6834706,-0.15121226,-0.7109522,9.765157699584961,1.1983072757720947,0.16780386865139008,-0.7530390620231628,1.5075316429138184, 0.5218268036842346
124,407152730,0.06763299,-0.68332285,-0.15122351,-0.71107477,9.787700653076172,1.1597118377685547,0.1314602643251419,-0.5402615070343018,1.5291742086410522, 0.548271894454956
125,407169397,0.06787288,-0.6831659,-0.15130128,-0.7111862,9.768410682678223,1.166121006011963,0.1478959321975708,0.13981333374977112,1.562150478363037, 0.5203412175178528
126,407186064,0.06822218,-0.6830093,-0.1514824,-0.71126443,9.735247611999512,1.1918048858642578,0.13383008539676666,0.8043092489242554,1.4248921871185303, 0.5728985071182251
127,407202731,0.06854978,-0.6828578,-0.1516195,-0.7113493,9.743083000183105,1.2240664958953857,0.15055634081363678,0.544417142868042,1.4412586688995361, 0.676220178604126
128,407219398,0.06879486,-0.6827246,-0.15166867,-0.71144295,9.741996765136719,1.2003486156463623,0.14414367079734802,-0.11949604004621506,1.370964527130127, 0.7068784236907959
129,407236065,0.06905306,-0.682612,-0.15170488,-0.71151835,9.761500358581543,1.176784634590149,0.14132946729660034,-0.18447548151016235,1.19892418384552, 0.8608748316764832
130,407252732,0.069326356,-0.68250793,-0.15174972,-0.711582,9.761008262634277,1.1481819152832031,0.11569739878177643,-0.026188984513282776,1.1222013235092163, 0.9077332019805908
131,407269399,0.06970718,-0.6823662,-0.15188293,-0.7116522,9.769618034362793,1.1434556245803833,0.14951753616333008,0.7731256484985352,1.3938621282577515, 0.9704586863517761
132,407286066,0.0701114,-0.6822158,-0.1520342,-0.71172446,9.767784118652344,1.1980444192886353,0.17043465375900269,1.4417452812194824,1.5209909677505493, 0.9998366236686707
133,407302733,0.07054429,-0.6820703,-0.15218873,-0.71178806,9.778685569763184,1.192710280418396,0.15455377101898193,1.2584865093231201,1.4461250305175781, 1.124852180480957
134,407319400,0.07103166,-0.6819085,-0.15237437,-0.711855,9.755132675170898,1.1764665842056274,0.1619250327348709,1.1114311218261719,1.5197232961654663, 1.2133440971374512
135,407336067,0.07141785,-0.6817699,-0.15249422,-0.71192324,9.767191886901855,1.1471302509307861,0.16397909820079803,1.0841279029846191,1.4344583749771118, 1.0714111328125
136,407352734,0.071829736,-0.68163735,-0.15266082,-0.711973,9.750238418579102,1.1563161611557007,0.1901317834854126,1.277414083480835,1.3050246238708496, 0.9862233996391296
137,407369401,0.072202675,-0.6815358,-0.15278217,-0.7120067,9.759363174438477,1.1965205669403076,0.1850927472114563,0.8968350291252136,1.0637913942337036, 1.046938180923462
138,407386068,0.07249955,-0.68145657,-0.15280709,-0.71204704,9.73991870880127,1.207718849182129,0.1948191374540329,-0.14253468811511993,0.931770920753479, 1.14362633228302
139,407402735,0.07269646,-0.68140155,-0.1527534,-0.712091,9.774789810180664,1.1618107557296753,0.17168310284614563,-0.8968158960342407,0.7798362970352173, 1.0525858402252197
140,407419402,0.07291159,-0.68133605,-0.15271728,-0.7121394,9.752408027648926,1.1954799890518188,0.179813414812088,-0.8304533362388611,0.8531783223152161, 1.041764497756958
141,407436069,0.07301664,-0.68130016,-0.15258232,-0.71219194,9.72751235961914,1.184139609336853,0.18332833051681519,-1.7689796686172485,0.6733642816543579, 0.9999518990516663
142,407452736,0.07306845,-0.6812664,-0.1523933,-0.7122594,9.764791488647461,1.1401174068450928,0.17775636911392212,-2.062539577484131,0.734207272529602, 0.9960331320762634
143,407469403,0.07312384,-0.68124676,-0.15222195,-0.7123092,9.777673721313477,1.1176961660385132,0.16438235342502594,-2.2302770614624023,0.5474779009819031, 0.9464085102081299
144,407486070,0.073166534,-0.6812402,-0.15204859,-0.7123481,9.764514923095703,1.0918560028076172,0.18579594790935516,-2.2472329139709473,0.429569810628891, 0.9108837246894836
145,407502737,0.073152944,-0.6812482,-0.15186542,-0.7123809,9.746254920959473,1.1393131017684937,0.21959112584590912,-2.541893482208252,0.27978673577308655, 0.6967229843139648
146,407519404,0.07311756,-0.6812497,-0.15165272,-0.7124284,9.764480590820312,1.1569970846176147,0.17714262008666992,-3.123737335205078,0.33549433946609497, 0.7052519917488098
147,407536071,0.073006965,-0.6812628,-0.15136817,-0.7124877,9.783024787902832,1.1413135528564453,0.21126556396484375,-3.360079050064087,0.3513614237308502, 0.6951223611831665
148,407552738,0.07297596,-0.6812654,-0.15113175,-0.7125386,9.78290843963623,1.1152516603469849,0.2184135764837265,-3.176102876663208,0.3716466724872589, 0.8408328294754028
149,407569405,0.07298388,-0.6812722,-0.15089995,-0.7125803,9.763895988464355,1.098318099975586,0.16907255351543427,-2.722463607788086,0.3753092586994171, 1.02383553981781
150,407586072,0.073048875,-0.6812733,-0.15068185,-0.7126189,9.749242782592773,1.1273765563964844,0.19558009505271912,-2.3350844383239746,0.45016247034072876, 1.2343976497650146
151,407602739,0.07315309,-0.68129784,-0.150488,-0.7126256,9.754377365112305,1.1473054885864258,0.20060186088085175,-2.1217432022094727,0.2045622318983078, 1.3501285314559937
152,407619406,0.07326792,-0.6813486,-0.15028416,-0.71260816,9.761667251586914,1.1340454816818237,0.2080717235803604,-1.8820980787277222,0.006486416328698397, 1.4969918727874756
153,407636073,0.07341572,-0.6814051,-0.15009353,-0.71257925,9.780671119689941,1.116429328918457,0.20760010182857513,-1.9418011903762817,-0.07736315578222275, 1.5994043350219727
154,407652740,0.073565565,-0.68146837,-0.1498723,-0.71254987,9.775667190551758,1.1025424003601074,0.2053973525762558,-2.0353517532348633,-0.08877362310886383, 1.762634038925171
155,407669407,0.0737046,-0.6815146,-0.14966255,-0.7125353,9.771716117858887,1.0673145055770874,0.15010470151901245,-2.091878652572632,0.04308696091175079, 1.6282696723937988
156,407686074,0.07389727,-0.6815313,-0.14950907,-0.71253175,9.781118392944336,1.0673166513442993,0.190311461687088,-1.53860604763031,0.2732810974121094, 1.5897867679595947
157,407702741,0.074082635,-0.6815701,-0.14933671,-0.71251154,9.77757453918457,1.090178370475769,0.19566410779953003,-1.6733673810958862,0.08994540572166443, 1.6714271306991577
158,407719408,0.07421996,-0.6816235,-0.1491065,-0.71249425,9.795217514038086,1.0944914817810059,0.23186703026294708,-2.168576240539551,0.01706446334719658, 1.7216538190841675
159,407736075,0.07439656,-0.68168116,-0.14886172,-0.7124719,9.78310489654541,1.0382609367370605,0.1754104048013687,-2.125469923019409,0.013427458703517914, 1.986220121383667
160,407752742,0.07459884,-0.6817414,-0.14865509,-0.7124364,9.770489692687988,1.0581165552139282,0.2109958678483963,-1.677900791168213,-0.03809889033436775, 1.9451115131378174
161,407769409,0.07497609,-0.6817656,-0.1486111,-0.71238273,9.794719696044922,1.078479290008545,0.299235075712204,-0.1797114908695221,0.13461394608020782, 2.005518913269043
162,407786076,0.075740956,-0.6816331,-0.14880693,-0.71238756,9.902709007263184,1.063256859779358,0.5833604335784912,2.9408819675445557,1.4563060998916626, 2.592984676361084
163,407802743,0.076856695,-0.68093944,-0.14920501,-0.71284825,9.82068920135498,1.0260292291641235,0.15114134550094604,5.055545330047607,6.535921096801758, 2.5399162769317627
164,407819410,0.077903055,-0.680315,-0.14955802,-0.71325684,9.720427513122559,1.0381686687469482,0.14608162641525269,4.836799144744873,5.945534706115723, 2.5137782096862793
165,407836077,0.0787959,-0.67992157,-0.14979659,-0.7134837,9.714184761047363,1.0337344408035278,0.09431973099708557,3.6353068351745605,3.8736841678619385, 2.630866050720215
166,407852744,0.0795674,-0.67972934,-0.14990926,-0.7135575,9.706120491027832,1.0365173816680908,0.15762034058570862,2.5657713413238525,2.1326351165771484, 2.915627956390381
167,407869411,0.08024231,-0.679724,-0.14991403,-0.7134861,9.695411682128906,1.0437148809432983,0.2062762975692749,1.6429972648620605,0.5030910968780518, 3.219971179962158
168,407886078,0.08088976,-0.67988074,-0.14978471,-0.71329075,9.715848922729492,1.0245532989501953,0.19175219535827637,0.9923191070556641,-0.8091947436332703, 3.95052170753479
169,407902745,0.08150814,-0.6801562,-0.14953719,-0.7130096,9.765074729919434,1.0189776420593262,0.24414017796516418,0.18072961270809174,-1.7637542486190796, 4.527806282043457
170,407919412,0.082184225,-0.6805999,-0.14921306,-0.71257627,9.824007987976074,0.7758136987686157,0.19350548088550568,0.29001903533935547,-3.1802268028259277, 5.433716297149658
171,407936079,0.08317513,-0.68115956,-0.14911236,-0.7119476,9.749298095703125,0.762521505355835,0.24676313996315002,1.9721719026565552,-4.5586652755737305, 6.115270137786865
172,407952746,0.08405163,-0.68198323,-0.14889228,-0.71110153,9.755424499511719,0.6671133637428284,0.25874340534210205,1.8813493251800537,-6.823724746704102, 6.527647495269775
173,407969413,0.08520856,-0.6829883,-0.14895067,-0.7099862,9.820229530334473,0.5733532309532166,0.2883571982383728,4.608630180358887,-8.861525535583496, 6.918371677398682
174,407986080,0.086951114,-0.6842117,-0.14926006,-0.7085305,9.937230110168457,0.29336196184158325,0.12870989739894867,8.6978178024292,-11.083292007446289, 8.998370170593262
175,408002747,0.089843914,-0.68551683,-0.15039143,-0.70666635,9.780607223510742,0.6122546792030334,0.5408892631530762,18.675020217895508,-12.694412231445312, 11.034955024719238
176,408019414,0.09326414,-0.68719155,-0.15195855,-0.70425725,9.744505882263184,0.49067285656929016,0.7314643859863281,23.809463500976562,-16.789657592773438, 12.253958702087402
177,408036081,0.09782438,-0.6892179,-0.15429254,-0.7011441,10.002182006835938,0.44786110520362854,0.7857382297515869,32.48719787597656,-21.224605560302734, 14.943492889404297
178,408052748,0.10336329,-0.69143987,-0.1573192,-0.6974796,10.38199234008789,0.9004971981048584,1.582696795463562,41.616172790527344,-24.19744873046875, 16.94828987121582
179,408069415,0.10923443,-0.69373864,-0.16054256,-0.6935566,10.591033935546875,0.8738991022109985,1.9516783952713013,44.06222915649414,-25.688892364501953, 17.88968849182129
180,408086082,0.115720466,-0.6977154,-0.16355166,-0.68778855,10.696208000183105,-0.2935970723628998,0.4325849115848541,46.654144287109375,-41.76874542236328, 25.105131149291992
181,408102749,0.12420633,-0.7022497,-0.16771552,-0.680654,11.587963104248047,-0.306473970413208,0.40093162655830383,62.89956283569336,-49.65705871582031, 30.697582244873047
182,408119416,0.13408807,-0.7064225,-0.17288233,-0.6731266,12.278070449829102,0.3408803343772888,1.4993228912353516,74.61261749267578,-49.16558837890625, 32.29894256591797
183,408136083,0.14595842,-0.70991045,-0.18021414,-0.66501606,12.238698959350586,0.19105935096740723,1.3092621564865112,95.98200225830078,-48.55940628051758, 30.706850051879883
184,408152750,0.15819184,-0.7133573,-0.18828216,-0.65623665,11.878898620605469,0.9079598188400269,0.7245274782180786,102.23790740966797,-52.03250503540039, 29.39103126525879
185,408169417,0.16853957,-0.71691346,-0.19550431,-0.647617,11.380370140075684,0.27132341265678406,1.0084881782531738,88.90119171142578,-53.348968505859375, 25.059667587280273
186,408186084,0.1796169,-0.7193578,-0.20326401,-0.63948894,11.283482551574707,0.4663655757904053,1.6009441614151,95.45348358154297,-45.72773361206055, 23.637306213378906
187,408202751,0.19061843,-0.7205166,-0.21256322,-0.6319315,10.272890090942383,1.4060648679733276,1.5224324464797974,103.61637878417969,-39.41374588012695, 13.122815132141113
188,408219418,0.1993849,-0.7207739,-0.22038795,-0.6262268,9.958826065063477,1.2382559776306152,2.241421699523926,84.60530090332031,-27.800151824951172, 7.077032089233398
189,408236085,0.20701446,-0.7191656,-0.2271921,-0.6231612,9.635732650756836,0.8483902215957642,4.5482659339904785,73.15311431884766,-7.199584484100342, 0.8886558413505554
190,408252752,0.21501987,-0.7152993,-0.23366956,-0.62250453,9.044479370117188,-0.5210675001144409,4.938772201538086,73.0709457397461,15.128853797912598, -2.765777826309204
191,408269419,0.22338507,-0.7093481,-0.23917153,-0.62427676,8.878340721130371,-0.349629670381546,5.257175445556641,69.84130096435547,37.698368072509766, -3.3645331859588623
192,408286086,0.23019463,-0.701881,-0.24293742,-0.62877256,8.7704439163208,0.29539167881011963,5.272324562072754,52.652496337890625,57.26849365234375, -8.237773895263672
193,408302753,0.2340677,-0.69364077,-0.24367924,-0.63615674,9.089350700378418,0.12813329696655273,4.364065170288086,21.81377410888672,74.11490631103516, -12.167242050170898
194,408319420,0.23575318,-0.68473357,-0.2419858,-0.64575803,9.621864318847656,0.13475880026817322,3.2150704860687256,-1.9041393995285034,87.60465240478516, -14.800582885742188
195,408336087,0.23529774,-0.6754403,-0.2381737,-0.6570302,9.796977996826172,0.3478814959526062,2.6839170455932617,-23.534748077392578,96.87852478027344, -17.695009231567383
196,408352754,0.23329286,-0.66579866,-0.23269221,-0.6694334,9.996369361877441,0.39018046855926514,2.0526576042175293,-39.54254913330078,103.7327651977539, -19.360610961914062
197,408369421,0.23040426,-0.6556783,-0.22632042,-0.6824801,10.222481727600098,0.6370967626571655,1.2225208282470703,-47.935359954833984,108.81333923339844, -21.179677963256836
198,408386088,0.22653037,-0.6451882,-0.21915242,-0.6959803,10.40267562866211,0.49435916543006897,0.5035101771354675,-54.73208236694336,112.31332397460938, -23.447980880737305
199,408402755,0.22223829,-0.63437706,-0.2116539,-0.70949185,10.469321250915527,0.38610637187957764,0.16002430021762848,-57.61726379394531,113.832763671875, -24.464887619018555
200,408419422,0.21771461,-0.6234056,-0.20409966,-0.72270966,10.371956825256348,0.2352895587682724,-0.011581867933273315,-57.95978546142578,113.17167663574219, -25.094772338867188
201,408436089,0.21349365,-0.61231744,-0.19701101,-0.7353059,10.069090843200684,-0.0596749372780323,-0.3560434877872467,-53.241859436035156,110.92814636230469, -24.799375534057617
202,408452756,0.21007262,-0.60101765,-0.19099142,-0.74710757,9.814435958862305,0.036227453500032425,-0.5883386135101318,-43.237335205078125,108.3074951171875, -24.40323257446289
203,408469423,0.20695965,-0.58976877,-0.18557192,-0.75822407,9.772453308105469,0.21444940567016602,-0.5854793787002563,-38.378902435302734,104.91183471679688, -24.308673858642578
204,408486090,0.20384142,-0.57898897,-0.1804191,-0.7685503,9.607024192810059,0.5444868206977844,-0.48388856649398804,-36.846988677978516,99.04859161376953, -23.730194091796875
205,408502757,0.20097467,-0.56857747,-0.17638971,-0.7779562,9.436564445495605,1.127968668937683,-0.4775785803794861,-30.363962173461914,92.30972290039062, -25.41581153869629
206,408519424,0.19819267,-0.558834,-0.17328557,-0.78638184,9.281434059143066,0.8476701378822327,-1.4576747417449951,-24.824291229248047,83.91480255126953, -26.388668060302734
207,408536091,0.19486918,-0.55039,-0.16972198,-0.793909,9.187090873718262,1.2492262125015259,-1.1794025897979736,-30.10040855407715,73.65824890136719, -24.765113830566406
208,408552758,0.19063023,-0.5432379,-0.16583285,-0.80065733,8.813459396362305,1.252106785774231,-0.5536651611328125,-36.18351364135742,63.25639724731445, -25.948989868164062
209,408569425,0.18585491,-0.5374749,-0.16149396,-0.806535,8.596776008605957,0.9259048700332642,-0.4574511647224426,-41.51125717163086,52.53570556640625, -24.469606399536133
210,408586092,0.18091552,-0.53311247,-0.15697983,-0.8114298,8.737173080444336,1.2064965963363647,-0.4735105037689209,-43.80550003051758,41.372535705566406, -21.9096736907959
211,408602759,0.17526564,-0.5304841,-0.15158759,-0.81540793,8.94406795501709,1.5583703517913818,-0.30194997787475586,-52.501888275146484,28.863767623901367, -19.61853790283203
212,408619426,0.1689369,-0.5295246,-0.14556961,-0.8184581,8.884896278381348,1.4683899879455566,-0.37839266657829285,-59.5634765625,16.364980697631836, -18.24334716796875
213,408636093,0.16232556,-0.53023857,-0.13960597,-0.8203708,8.84991455078125,1.3621915578842163,-0.7325071096420288,-61.1242790222168,2.658168315887451, -16.995241165161133
214,408652760,0.15541516,-0.53276324,-0.13382033,-0.82103705,8.912782669067383,1.490670919418335,-1.3149638175964355,-62.06745910644531,-12.374064445495605, -16.161882400512695
215,408669427,0.1478952,-0.53735554,-0.12777613,-0.8203958,8.815183639526367,1.2149090766906738,-1.6097406148910522,-66.80306243896484,-28.886219024658203, -15.304654121398926
216,408686094,0.14088379,-0.5434724,-0.12284943,-0.8183506,8.915764808654785,0.8287919163703918,-1.9829907417297363,-58.96775436401367,-43.12178039550781, -13.752315521240234
217,408702761,0.13501877,-0.5507029,-0.11964386,-0.81497353,9.076725959777832,1.0438143014907837,-1.1804193258285522,-44.97648239135742,-54.81178283691406, -11.470419883728027
218,408719428,0.12980989,-0.5582684,-0.117755264,-0.8109375,9.404680252075195,1.5376935005187988,1.8851925134658813,-34.903263092041016,-59.6571044921875, -11.8511381149292
219,408736095,0.12468144,-0.56374586,-0.11549184,-0.80827415,11.366280555725098,1.657157063484192,13.775629997253418,-35.94933319091797,-42.28339767456055, -12.819839477539062
220,408752762,0.11584652,-0.56721663,-0.109410696,-0.8080065,9.952078819274902,1.879909873008728,14.550262451171875,-71.69374084472656,-21.979869842529297, -22.226409912109375
221,408769429,0.10739462,-0.5718725,-0.1041898,-0.8065809,9.008517265319824,-1.420912742614746,0.47646939754486084,-65.46978759765625,-34.00120544433594, -21.59575653076172
222,408786096,0.10118155,-0.5779892,-0.099391155,-0.80362433,12.189555168151855,-1.1996232271194458,-3.7380740642547607,-54.282169342041016,-46.71015930175781, -8.749804496765137
223,408802763,0.09577135,-0.58632195,-0.09272145,-0.79903513,15.222881317138672,-5.65341854095459,-2.546922445297241,-61.85021209716797,-63.233516693115234, 5.703254699707031
224,408819430,0.100244656,-0.59268963,-0.103265844,-0.7924684,11.732526779174805,-0.8043465614318848,1.372963786125183,75.18156433105469,-65.09935760498047, -9.630110740661621
225,408836097,0.10156186,-0.59968626,-0.10998135,-0.786108,9.925357818603516,0.2705516219139099,1.311376929283142,40.8839111328125,-67.19522094726562, -10.990509986877441
226,408852764,0.100674294,-0.6064675,-0.11232936,-0.7806693,9.626347541809082,1.8198153972625732,1.8077073097229004,7.635663032531738,-60.79252243041992, -5.719353199005127
227,408869431,0.09614752,-0.6129302,-0.111001015,-0.7763705,9.0232572555542,1.380756139755249,1.508638858795166,-27.948637008666992,-54.576446533203125, -10.894087791442871
228,408886098,0.09137848,-0.61849076,-0.110250495,-0.7726345,9.490691184997559,-0.6947490572929382,1.1989450454711914,-25.730606079101562,-47.93966293334961, -15.634119033813477
229,408902765,0.08968252,-0.6229792,-0.11373165,-0.7687128,9.85508918762207,0.2356862723827362,1.7221660614013672,10.634984970092773,-43.32917404174805, -18.05520248413086
230,408919432,0.08791159,-0.62719613,-0.11831489,-0.7647864,9.546414375305176,2.3139076232910156,2.040665864944458,16.306753158569336,-42.647705078125, -23.40180015563965
231,408936099,0.083156854,-0.63179135,-0.119694345,-0.7613134,9.588062286376953,2.0766091346740723,1.302852988243103,-14.0196533203125,-43.194969177246094, -25.165712356567383
232,408952766,0.07673775,-0.6367413,-0.118299335,-0.7580748,10.050649642944336,1.7856007814407349,1.1308625936508179,-36.18191909790039,-43.809181213378906, -21.599586486816406
233,408969433,0.06844668,-0.64183056,-0.114827685,-0.755105,9.924120903015137,1.0901356935501099,1.0268663167953491,-55.5036506652832,-43.77398681640625, -22.238195419311523
234,408986100,0.0596348,-0.6469028,-0.11107443,-0.7520792,9.59933853149414,0.2899620532989502,0.7646344304084778,-59.217411041259766,-44.20217514038086, -23.66188621520996
235,409002767,0.05140018,-0.65161115,-0.108353764,-0.749013,9.767441749572754,0.26239141821861267,0.717479944229126,-51.13291931152344,-42.466758728027344, -25.544002532958984
236,409019434,0.044257432,-0.65605986,-0.10672582,-0.7458126,9.94675064086914,0.658336341381073,0.4848833382129669,-40.42475509643555,-41.290184020996094, -24.981863021850586
237,409036101,0.037865017,-0.66042167,-0.10549823,-0.74248224,9.97993278503418,0.7353255748748779,0.47744131088256836,-34.87043380737305,-40.98158264160156, -22.970848083496094
238,409052768,0.032456208,-0.66479087,-0.105014086,-0.7388993,9.967000007629395,0.3174310624599457,0.5404508709907532,-26.432254791259766,-41.63037109375, -21.26166343688965
239,409069435,0.029049525,-0.6688249,-0.10661783,-0.7351613,10.115643501281738,0.8930777311325073,0.5317510962486267,-6.489818096160889,-39.64833450317383, -20.873207092285156
240,409086102,0.026729451,-0.67226875,-0.10922082,-0.73171794,9.826783180236816,1.7712390422821045,0.258412629365921,3.455845594406128,-34.70854949951172, -20.48114585876465
241,409102769,0.024401529,-0.6752412,-0.11142329,-0.7287242,9.712368965148926,1.7486087083816528,0.32686832547187805,1.1476653814315796,-30.18096351623535, -19.082866668701172
242,409119436,0.022024456,-0.6780038,-0.11322519,-0.72595185,9.821146965026855,1.055383563041687,0.12460239231586456,-1.2263152599334717,-28.070024490356445, -17.646987915039062
243,409136103,0.019753752,-0.68067604,-0.11516564,-0.72320604,9.962307929992676,1.0632174015045166,0.19005230069160461,-0.049727242439985275,-27.42538833618164, -17.849533081054688
244,409152770,0.01751748,-0.68333876,-0.11738488,-0.7203903,9.87751579284668,1.1544080972671509,0.09560626745223999,1.5509767532348633,-27.713294982910156, -18.9974365234375
245,409169437,0.01565737,-0.68591106,-0.11999783,-0.7175525,9.8973970413208,1.0833419561386108,-0.11720864474773407,5.293262958526611,-27.111648559570312, -19.06878089904785
246,409186104,0.0148549415,-0.6880963,-0.123114556,-0.71494466,10.152320861816406,1.066935420036316,0.2977709174156189,12.613727569580078,-23.2903995513916, -16.59201431274414
247,409202771,0.014912554,-0.69009286,-0.12666114,-0.7123949,9.831948280334473,1.3018672466278076,0.08009746670722961,18.764781951904297,-21.417442321777344, -14.591452598571777
248,409219438,0.014858099,-0.6922752,-0.13020171,-0.7096351,9.659707069396973,1.6461440324783325,-0.15858027338981628,18.36591911315918,-23.428462982177734, -14.94616985321045
249,409236105,0.014754439,-0.6947963,-0.13373153,-0.70651007,9.469583511352539,1.8486042022705078,-0.16629740595817566,18.369016647338867,-26.86274528503418, -14.797662734985352
250,409252772,0.01472022,-0.6976212,-0.13735184,-0.7030239,9.441497802734375,1.8756097555160522,-0.19200082123279572,20.445940017700195,-29.830183029174805, -14.586676597595215
251,409269439,0.014936069,-0.7006942,-0.14124976,-0.6991804,9.451154708862305,2.162682294845581,-0.0710991621017456,23.270381927490234,-32.542423248291016, -14.444489479064941
252,409286106,0.014598263,-0.70424503,-0.14477432,-0.6948859,9.479971885681152,2.517998695373535,-0.1069667786359787,19.210254669189453,-37.52118682861328, -14.793588638305664
253,409302773,0.013665044,-0.7080474,-0.147548,-0.6904431,9.46282958984375,2.307826280593872,-0.30105510354042053,12.983749389648438,-39.9494514465332, -13.726144790649414
254,409319440,0.01252412,-0.7123061,-0.14998166,-0.6855429,9.183248519897461,2.046065330505371,-0.42091116309165955,10.804143905639648,-44.52767562866211, -12.546929359436035
255,409336107,0.011557273,-0.7169862,-0.15240018,-0.68012637,9.145018577575684,2.0378458499908447,-0.47315749526023865,12.031697273254395,-48.881587982177734, -11.175603866577148
256,409352774,0.01083162,-0.7221722,-0.15478396,-0.6740862,9.381218910217285,2.147420883178711,-0.5294150114059448,13.753397941589355,-54.064788818359375, -9.312625885009766
257,409369441,0.010096872,-0.7278248,-0.15679139,-0.66752213,9.756892204284668,2.0584185123443604,-0.8832849860191345,12.62258243560791,-58.8009147644043, -6.974786758422852
258,409386108,0.009377543,-0.7337639,-0.15848908,-0.6605936,9.833473205566406,2.066255807876587,-1.07026207447052,11.624009132385254,-61.92089080810547, -5.036335468292236
259,409402775,0.0088662235,-0.73986554,-0.1601042,-0.6533661,10.012877464294434,2.0229039192199707,-1.2884587049484253,12.790514945983887,-63.91304016113281, -3.5256924629211426
260,409419442,0.008847352,-0.7459685,-0.16203637,-0.6459082,10.1837739944458,2.460972547531128,-1.3344135284423828,16.865081787109375,-64.60480499267578, -2.9214179515838623
261,409436109,0.00881018,-0.7521371,-0.16423714,-0.6381524,10.537272453308105,3.518071174621582,-2.0126430988311768,18.462360382080078,-66.44725036621094, -4.332806587219238
262,409452776,0.009140383,-0.75738704,-0.16727124,-0.6311115,10.31146240234375,3.403012990951538,-0.33119967579841614,23.334430694580078,-58.3455924987793, -8.100502967834473
263,409469443,0.011532844,-0.76256883,-0.17212234,-0.6234821,11.04558277130127,2.751286029815674,-1.201752781867981,42.67000961303711,-58.93033218383789, -8.641375541687012
264,409486110,0.014917746,-0.76750857,-0.17776649,-0.61571693,11.508718490600586,0.9050753116607666,-1.2834649085998535,51.54804611206055,-57.52987289428711, -8.860466957092285
265,409502777,0.018424377,-0.77288914,-0.18336444,-0.6071908,11.98371410369873,-0.4557185769081116,-1.3359713554382324,52.95228576660156,-63.30672073364258, -7.60134220123291
266,409519444,0.021042204,-0.77861255,-0.18837187,-0.598194,12.71062183380127,-2.1123533248901367,-1.4347940683364868,46.123023986816406,-68.39970397949219, -7.782286167144775
267,409536111,0.024560694,-0.7848628,-0.19269557,-0.5884352,15.202978134155273,-1.1966522932052612,-1.0866913795471191,49.03169631958008,-73.47132873535156, 0.1546473354101181
268,409552778,0.02620896,-0.79182535,-0.19554806,-0.5780024,13.49228286743164,-0.7535930275917053,0.21237502992153168,33.84645462036133,-82.34522247314453, 1.3530093431472778
269,409569445,0.029666165,-0.7991746,-0.1989696,-0.5664372,13.986090660095215,-2.12199068069458,0.3885171413421631,47.23204040527344,-87.94200134277344, 6.067010879516602
270,409586112,0.03580555,-0.8066765,-0.20263755,-0.554012,13.903164863586426,-1.1933963298797607,2.590108633041382,64.23860931396484,-89.82717895507812, 15.257826805114746
271,409602779,0.046034466,-0.8137744,-0.20799118,-0.54073274,14.4862060546875,-1.5005098581314087,5.147055625915527,94.71977233886719,-88.05204772949219, 20.927284240722656
272,409619446,0.06234547,-0.82007664,-0.21585877,-0.5263009,14.04146671295166,0.7233832478523254,6.948657035827637,138.3311767578125,-84.36650085449219, 29.341978073120117
273,409636113,0.08158801,-0.82544225,-0.22721575,-0.51025665,10.792770385742188,2.3767666816711426,5.110381603240967,170.31272888183594,-87.70943450927734, 19.604167938232422
274,409652780,0.10422023,-0.8283027,-0.24565378,-0.49265325,8.103752136230469,2.677255153656006,-2.1998772621154785,218.3004608154297,-86.82907104492188, -11.587486267089844
275,409669447,0.12870856,-0.83072066,-0.26439163,-0.47268882,9.907048225402832,1.1659082174301147,-13.260342597961426,234.23959350585938,-95.94180297851562, -5.868708610534668
276,409686114,0.15008095,-0.83369225,-0.27970234,-0.45188475,16.610816955566406,1.6936174631118774,-7.8072285652160645,206.3190155029297,-104.91618347167969, 5.456516742706299
277,409702781,0.17276765,-0.83470005,-0.2954985,-0.43140256,14.444003105163574,1.5631814002990723,-4.329189300537109,216.79666137695312,-95.01575469970703, 2.7959930896759033
278,409719448,0.19693045,-0.8336974,-0.3135002,-0.40973738,10.47341251373291,2.3477702140808105,0.1043897271156311,236.65138244628906,-95.6113052368164, -7.989592552185059
279,409736115,0.21820216,-0.8304579,-0.32886535,-0.39316073,10.908333778381348,2.2745320796966553,4.118250846862793,204.75437927246094,-62.984188079833984, -12.518881797790527
280,409752782,0.23568124,-0.824758,-0.3419086,-0.3838323,7.234969615936279,3.17287015914917,7.23472785949707,164.1636199951172,-20.347204208374023, -25.736454010009766
281,409769449,0.24938703,-0.8174549,-0.35194466,-0.38171878,4.701537132263184,0.8651125431060791,5.9479780197143555,120.52024841308594,20.48594856262207, -33.886436462402344
282,409786116,0.26324406,-0.80851793,-0.3589948,-0.3848693,5.6361589431762695,0.06785895675420761,3.659663200378418,103.60356903076172,59.62923812866211, -29.56838035583496
283,409802783,0.27678508,-0.7979001,-0.36354223,-0.3931703,6.790656566619873,1.160746455192566,2.1568603515625,85.54190063476562,96.29457092285156, -29.873735427856445
284,409819450,0.28734577,-0.7860908,-0.36587685,-0.40697438,7.828835964202881,2.127725601196289,1.6553246974945068,51.73108673095703,126.32624816894531, -39.13334274291992
285,409836117,0.2925554,-0.7735175,-0.36626855,-0.42653218,8.503608703613281,2.6638200283050537,1.5018703937530518,4.433953285217285,149.7930145263672, -56.78657150268555
286,409852784,0.29177538,-0.7606595,-0.3638565,-0.4515229,8.87023639678955,2.4309346675872803,0.9694167375564575,-48.7179069519043,169.9217529296875, -71.0093994140625
287,409869451,0.28364846,-0.7488535,-0.35551816,-0.48204696,9.608033180236816,2.1261534690856934,0.0819718986749649,-114.63997650146484,188.26416015625, -74.14700317382812
288,409886118,0.26906386,-0.73790187,-0.34093112,-0.51659626,10.736163139343262,1.3742932081222534,-1.234166145324707,-179.27073669433594,202.65200805664062, -69.0656509399414
289,409902785,0.25204486,-0.7265381,-0.321523,-0.5524844,12.119095802307129,-0.22148874402046204,-2.3426711559295654,-211.30560302734375,214.32089233398438, -56.29314041137695
290,409919452,0.23988007,-0.7126182,-0.30179855,-0.5861319,12.275008201599121,-1.2958723306655884,-2.789017677307129,-178.7117919921875,224.2784881591797, -37.77666091918945
291,409936119,0.23565349,-0.69473135,-0.28613415,-0.61639553,12.317670822143555,-0.9220976233482361,-2.862995147705078,-117.42183685302734,233.44125366210938, -26.89790916442871
292,409952786,0.23619133,-0.6738325,-0.27337486,-0.6445384,12.935230255126953,0.37959274649620056,-3.2025866508483887,-73.30496215820312,240.831298828125, -23.21867561340332
293,409969453,0.23769711,-0.6511965,-0.26165196,-0.67155164,13.021139144897461,2.053790330886841,-2.9719791412353516,-59.29419708251953,243.6148681640625, -25.2386531829834
294,409986120,0.23731077,-0.627659,-0.24915615,-0.69831866,13.432462692260742,3.4127213954925537,-3.1642954349517822,-69.435546875,244.77426147460938, -31.754478454589844
295,410002787,0.23312223,-0.60424685,-0.23439449,-0.7249822,13.850618362426758,3.8211514949798584,-3.1310973167419434,-96.7784423828125,241.20452880859375, -39.84636306762695
296,410019454,0.2269307,-0.5810507,-0.21979555,-0.75004846,13.771747589111328,3.383042097091675,-4.1057634353637695,-102.09028625488281,230.32493591308594, -47.599464416503906
297,410036121,0.22085053,-0.55833435,-0.20784439,-0.77219737,12.968788146972656,3.886793375015259,-5.001971244812012,-84.35841369628906,212.6002197265625, -52.33400344848633
298,410052788,0.2120705,-0.53801376,-0.19503453,-0.79216737,12.109164237976074,4.784551620483398,-5.758900165557861,-99.85308074951172,189.35264587402344, -56.63212966918945
299,410069455,0.19928473,-0.52108103,-0.17957157,-0.81025565,11.477190971374512,4.340721130371094,-6.849151134490967,-131.60250854492188,162.82435607910156, -61.3289794921875
300,410086122,0.18421382,-0.5070986,-0.16332813,-0.8259784,11.002302169799805,3.285118579864502,-6.9783782958984375,-145.31985473632812,136.53773498535156, -64.37370300292969
301,410102789,0.16832082,-0.4958928,-0.14707938,-0.8391223,10.650588035583496,1.9290046691894531,-6.730874061584473,-148.88206481933594,111.20223236083984, -62.6515007019043
302,410119456,0.15387303,-0.48736584,-0.13245974,-0.84926575,10.291708946228027,1.0127284526824951,-6.4749650955200195,-134.64463806152344,85.38920593261719, -53.71365737915039
303,410136123,0.14102896,-0.48190242,-0.11983081,-0.8564588,9.516022682189941,1.390702486038208,-6.488861083984375,-118.21072387695312,57.22468566894531, -45.13981246948242
304,410152790,0.12887162,-0.4800448,-0.108050495,-0.860973,8.911169052124023,1.401252269744873,-6.870394706726074,-112.24134826660156,27.075359344482422, -38.35176467895508
305,410169457,0.118577756,-0.48144343,-0.09948696,-0.86270154,9.017413139343262,0.5657745599746704,-7.58381462097168,-87.87287902832031,-2.67317795753479, -33.054073333740234
306,410186124,0.11193839,-0.48609564,-0.097123116,-0.8612481,9.072713851928711,0.297176331281662,-8.09935474395752,-39.476593017578125,-34.88401412963867, -27.095090866088867
307,410202791,0.10807937,-0.4936872,-0.099860996,-0.8570997,9.357450485229492,1.3573391437530518,-7.2865777015686035,-0.4321443438529968,-63.207645416259766, -23.66730499267578
308,410219458,0.10599541,-0.50405735,-0.105087474,-0.850675,10.434309959411621,1.215290904045105,-6.910545825958252,19.755847930908203,-87.81806182861328, -18.064725875854492
309,410236125,0.10429184,-0.51475227,-0.10755967,-0.84414715,13.185521125793457,0.2798805832862854,10.556266784667969,4.80582332611084,-87.68975830078125, -5.998325347900391
310,410252792,0.09863503,-0.5228799,-0.104538605,-0.8402021,11.90960693359375,1.7624599933624268,20.48680305480957,-41.102054595947266,-62.77669143676758, -13.281327247619629
311,410269459,0.090157464,-0.5319792,-0.10182434,-0.83576417,8.016548156738281,1.0788310766220093,0.4161984920501709,-49.7418212890625,-72.67477416992188, -29.654170989990234
312,410286126,0.0804551,-0.5440305,-0.09178011,-0.8301411,13.175749778747559,-1.7716251611709595,-4.798917293548584,-97.33679962158203,-90.29605102539062, -7.081699848175049
313,410302793,0.07427182,-0.55732566,-0.084637195,-0.8226231,19.664480209350586,-4.557506561279297,-6.440051078796387,-67.08639526367188,-103.78123474121094, 3.9501967430114746
314,410319460,0.06857333,-0.5707117,-0.08564584,-0.81378794,12.894291877746582,4.053727626800537,2.5440869331359863,-18.37879180908203,-113.0975341796875, -23.88971710205078
315,410336127,0.060693525,-0.58371454,-0.080338135,-0.80569214,9.270122528076172,-2.1514828205108643,-0.302120566368103,-62.54316329956055,-106.39745330810547, -11.845169067382812
316,410352794,0.052392356,-0.5951554,-0.07429017,-0.79845244,9.321474075317383,1.0794726610183716,0.7263950705528259,-68.14021301269531,-94.25186920166016, -12.457529067993164
317,410369461,0.046289712,-0.6040395,-0.07276709,-0.79227436,9.80211067199707,-0.5985572338104248,0.27175241708755493,-33.920066833496094,-76.40858459472656, -20.585769653320312
318,410386128,0.044294015,-0.61102223,-0.07734925,-0.78657955,10.909032821655273,-0.8665207028388977,0.21136248111724854,16.762704849243164,-63.95680618286133, -24.693998336791992
319,410402795,0.045254797,-0.61702,-0.08543663,-0.780986,10.7883882522583,-0.23323290050029755,0.7885450124740601,48.39026641845703,-57.71955871582031, -24.012845993041992
320,410419462,0.04621316,-0.62263924,-0.09324215,-0.7755585,10.044657707214355,1.081282377243042,1.3941622972488403,46.88936996459961,-54.9210319519043, -23.125240325927734
321,410436129,0.044647615,-0.6281654,-0.09758913,-0.7706435,10.080677032470703,1.745869755744934,1.377561092376709,17.344013214111328,-52.78273010253906, -22.004335403442383
322,410452796,0.041301608,-0.6336416,-0.09921322,-0.7661263,9.948397636413574,1.3150733709335327,1.1788522005081177,-5.0238189697265625,-51.18899154663086, -19.829219818115234
323,410469463,0.03724495,-0.6389665,-0.09982351,-0.7618203,9.655837059020996,0.8883124589920044,1.032355785369873,-13.559354782104492,-49.699424743652344, -19.317522048950195
324,410486130,0.033325918,-0.6439879,-0.10093711,-0.7576153,9.43791675567627,1.6360501050949097,1.2125149965286255,-10.307831764221191,-47.7280387878418, -21.044614791870117
325,410502797,0.029105874,-0.64880806,-0.1019545,-0.75352925,9.442648887634277,2.7367849349975586,0.7192661166191101,-12.176575660705566,-46.369415283203125, -22.349834442138672
326,410519464,0.025453875,-0.65322703,-0.10283014,-0.7497151,9.12696361541748,2.563607931137085,0.6181825399398804,-10.486857414245605,-42.67372131347656, -19.098722457885742
327,410536131,0.022101104,-0.6575056,-0.10325037,-0.7460145,9.171093940734863,2.1149821281433105,0.5676587820053101,-11.54475212097168,-41.17087173461914, -15.621566772460938
328,410552798,0.018542852,-0.661805,-0.10279734,-0.74236333,9.898642539978027,0.7118114829063416,0.10052184760570526,-16.989032745361328,-41.08729553222656, -12.716686248779297
329,410569465,0.015126498,-0.66617316,-0.10263044,-0.7385469,10.250506401062012,0.5676825046539307,0.3834991753101349,-14.772249221801758,-42.14206314086914, -13.23282527923584
330,410586132,0.012560994,-0.6704412,-0.103748694,-0.73456603,10.213088989257812,0.5972051620483398,1.0316412448883057,-4.220080375671387,-41.93560791015625, -14.861501693725586
331,410602799,0.0119349025,-0.6745321,-0.107013755,-0.73035073,9.845049858093262,0.49404433369636536,0.20313596725463867,15.747404098510742,-40.94340515136719, -15.077991485595703
332,410619466,0.012248485,-0.67886895,-0.11126676,-0.72567683,9.3790283203125,1.123594045639038,0.17391252517700195,25.38638687133789,-43.70750427246094, -14.732429504394531
333,410636133,0.012638252,-0.68365705,-0.11556776,-0.7204843,9.187580108642578,2.017894983291626,0.4270450174808502,26.34150505065918,-48.33760070800781, -14.191800117492676
334,410652800,0.012055143,-0.6888495,-0.11863521,-0.71502936,9.569734573364258,2.320648193359375,-0.06425211578607559,15.832937240600586,-52.25419235229492, -12.866565704345703
335,410669467,0.010851766,-0.69432193,-0.12047655,-0.7094258,9.494881629943848,2.3300557136535645,0.02914099395275116,6.967275142669678,-54.74797058105469, -9.864609718322754
336,410686134,0.009485428,-0.70007885,-0.12190228,-0.7035196,9.432795524597168,2.337698221206665,-0.25667819380760193,4.393238544464111,-57.69565963745117, -8.413576126098633
337,410702801,0.008149493,-0.7062011,-0.12347016,-0.69711494,9.04635238647461,2.97066593170166,-0.266709566116333,5.622954845428467,-61.853660583496094, -8.608981132507324
338,410719468,0.0064614424,-0.7123066,-0.12482797,-0.6906487,9.356982231140137,2.666240692138672,-1.0236544609069824,2.9615800380706787,-62.36852264404297, -9.280341148376465
339,410736135,0.0044090147,-0.7183904,-0.12562865,-0.68418825,9.655621528625488,1.7381459474563599,-1.3754395246505737,-1.4710988998413086,-62.528785705566406, -8.296761512756348
340,410752802,0.0020909547,-0.7246971,-0.12607113,-0.67743367,9.971707344055176,1.2255160808563232,-1.4233769178390503,-4.220179080963135,-65.25137329101562, -7.577363967895508
341,410769469,-0.00012644137,-0.7312485,-0.12693709,-0.6701962,10.157563209533691,1.5294076204299927,-1.131394863128662,-1.3305895328521729,-68.71937561035156, -9.00455379486084
342,410786136,-0.0027055338,-0.7378243,-0.12770537,-0.6627967,10.582801818847656,1.686235785484314,-1.4444174766540527,-3.456674337387085,-69.9683609008789, -10.16242790222168
343,410802803,-0.0050403094,-0.7439761,-0.12890804,-0.65563476,10.935868263244629,1.9360681772232056,-1.5814282894134521,-0.45333924889564514,-66.61336517333984, -11.623218536376953
344,410819470,-0.00625343,-0.7492649,-0.13220474,-0.64891076,11.045047760009766,3.447709321975708,-0.6038132905960083,14.30654239654541,-59.42159652709961, -18.030073165893555
345,410836137,-0.0051463433,-0.75478595,-0.13732255,-0.6414159,11.62727165222168,1.4276946783065796,-0.6777903437614441,35.098228454589844,-62.25342559814453, -16.875978469848633
346,410852804,-0.0024983892,-0.7607272,-0.14327122,-0.63305706,12.234010696411133,0.172718346118927,-0.3740609884262085,47.59074783325195,-67.11775970458984, -14.033248901367188
347,410869471,0.0011567018,-0.76757413,-0.1493218,-0.6233231,12.636759757995605,-0.707521378993988,-0.5061428546905518,54.673118591308594,-77.2741470336914, -9.32791805267334
348,410886138,0.0052663884,-0.7749982,-0.15575828,-0.6124454,12.422517776489258,-0.20107659697532654,-0.23499062657356262,59.89509582519531,-85.33567810058594, -8.832701683044434
349,410902805,0.010067802,-0.78307176,-0.16140795,-0.60053706,14.95699405670166,-1.879052758216858,-0.27614283561706543,61.347557067871094,-92.81220245361328, -1.0077245235443115
350,410919472,0.016994499,-0.79190016,-0.16647325,-0.5872755,15.092032432556152,-1.0729233026504517,1.1724214553833008,71.82489013671875,-100.84050750732422, 11.822026252746582
351,410936139,0.024298368,-0.80124366,-0.17126855,-0.57278764,13.72654914855957,-2.408144235610962,1.7648086547851562,74.13052368164062,-109.16783905029297, 15.531843185424805
352,410952806,0.035818193,-0.8102912,-0.17750521,-0.55734855,15.26982593536377,-3.425199508666992,4.902871131896973,104.20084381103516,-108.5557861328125, 23.986570358276367
353,410969473,0.053446133,-0.81847143,-0.18568267,-0.54108244,16.36721420288086,-2.439103603363037,7.628057479858398,146.8931884765625,-102.92476654052734, 35.70712661743164
354,410986140,0.07620809,-0.82463855,-0.19856662,-0.5241519,12.96122932434082,2.4400274753570557,9.140969276428223,194.89273071289062,-94.42984008789062, 25.988216400146484
355,411002807,0.09878492,-0.82909757,-0.21676445,-0.5058184,8.103447914123535,2.941466808319092,2.1453943252563477,215.8240509033203,-99.34400939941406, -6.382214546203613
356,411019474,0.123731226,-0.8318114,-0.23630202,-0.4867669,8.371269226074219,-0.3908272981643677,-15.234773635864258,236.2643280029297,-94.77098846435547, -7.856839179992676
357,411036141,0.14932437,-0.8354989,-0.2527097,-0.4645232,17.99619483947754,1.3487300872802734,-10.112433433532715,233.84295654296875,-112.51101684570312, 16.525508880615234
358,411052808,0.17597231,-0.836023,-0.27040496,-0.44382527,17.053504943847656,1.4628725051879883,-6.914239883422852,244.58262634277344,-93.00616455078125, 5.435436725616455
359,411069475,0.20571719,-0.8339023,-0.2923825,-0.4204762,10.949779510498047,4.120985984802246,-1.8239885568618774,283.617919921875,-99.61543273925781, -11.413778305053711
360,411086142,0.22870532,-0.82972866,-0.31099293,-0.40314764,12.227374076843262,5.3618855476379395,5.64630126953125,225.91746520996094,-67.97676086425781, -24.245162963867188
361,411102809,0.24237439,-0.8245236,-0.3240066,-0.39551926,6.333166122436523,4.571803092956543,8.252472877502441,138.10643005371094,-20.94774055480957, -35.55752944946289
362,411119476,0.25280634,-0.8176896,-0.33351055,-0.39527655,2.1706366539001465,2.3189098834991455,6.450008869171143,96.47808074951172,23.94609832763672, -40.36630630493164
363,411136143,0.26135492,-0.8099576,-0.3391128,-0.40083018,4.5207390785217285,0.6794751882553101,4.697419166564941,63.55732727050781,61.41615295410156, -35.667724609375
364,411152810,0.2691697,-0.8008128,-0.34177163,-0.41162986,6.15262508392334,0.7411254048347473,2.023766040802002,41.664276123046875,98.08248138427734, -34.01311492919922
365,411169477,0.2749104,-0.7904297,-0.34207058,-0.42735597,7.309049606323242,1.6702369451522827,1.708677887916565,14.277976036071777,128.19512939453125, -38.91098403930664
366,411186144,0.2754247,-0.77933675,-0.34018376,-0.44838706,8.825372695922852,2.859299421310425,2.634856700897217,-31.684776306152344,150.9400177001953, -54.080078125
367,411202811,0.27063474,-0.76714265,-0.33651778,-0.47434697,9.241790771484375,1.592311143875122,1.853445053100586,-75.03721618652344,171.69024658203125, -72.80372619628906
368,411219478,0.26331535,-0.75356066,-0.3296263,-0.504141,9.419364929199219,0.20261609554290771,0.26703858375549316,-105.19581604003906,196.57911682128906, -74.39249420166016
369,411236145,0.25428832,-0.7389451,-0.31860813,-0.53645736,10.518485069274902,0.007764190435409546,-0.9421365261077881,-132.2046356201172,216.83209228515625, -65.8572769165039
370,411252812,0.24490209,-0.7228216,-0.30485782,-0.56974906,11.011968612670898,-0.049668993800878525,-1.717505931854248,-143.61700439453125,231.34271240234375, -58.33000183105469
371,411269479,0.23803802,-0.70442134,-0.29015017,-0.60244644,11.177388191223145,-0.43006011843681335,-2.0331544876098633,-129.75387573242188,244.21360778808594, -47.48167037963867
372,411286146,0.23534861,-0.6829119,-0.2766749,-0.6337932,12.439781188964844,0.25398528575897217,-2.191383123397827,-96.6425552368164,256.8750305175781, -40.16904830932617
373,411302813,0.23494726,-0.65882725,-0.26453364,-0.6639041,13.828825950622559,1.0522011518478394,-2.4988412857055664,-73.56607818603516,264.5046691894531, -39.37363052368164
374,411319480,0.23499121,-0.63270515,-0.25299758,-0.6931491,14.640000343322754,1.726610541343689,-2.635007858276367,-63.9219856262207,269.74371337890625, -42.39730453491211
375,411336147,0.23447268,-0.60519665,-0.2416906,-0.7213498,14.49608325958252,2.947176218032837,-2.924065589904785,-61.22486877441406,270.4944152832031, -46.80329132080078
376,411352814,0.232076,-0.57728434,-0.23155989,-0.7478394,14.739874839782715,3.8573269844055176,-4.893156051635742,-59.716304779052734,260.3959045410156, -58.92345428466797
377,411369481,0.22575791,-0.5512328,-0.22040853,-0.77239627,15.328479766845703,4.940500736236572,-6.233410358428955,-80.4345703125,238.59271240234375, -68.98258972167969
378,411386148,0.21400818,-0.5290568,-0.20485197,-0.7951951,13.490830421447754,5.980636119842529,-7.4060959815979,-127.789794921875,210.0210723876953, -72.5208740234375
379,411402815,0.19658653,-0.5116589,-0.18357414,-0.8160024,12.198050498962402,5.738039970397949,-8.676445007324219,-183.9629669189453,177.15467834472656, -73.04663848876953
380,411419482,0.17593892,-0.49825004,-0.16049425,-0.8336871,11.659934997558594,4.680565357208252,-9.230728149414062,-206.89939880371094,142.2225341796875, -75.53663635253906
381,411436149,0.1552557,-0.4885239,-0.13826276,-0.8474218,11.505687713623047,1.7722175121307373,-9.490640640258789,-202.26690673828125,106.58193969726562, -69.7896957397461
382,411452816,0.13715397,-0.48224407,-0.11927461,-0.8569733,10.856727600097656,0.7953473329544067,-8.308293342590332,-174.39718627929688,71.50927734375, -57.89470672607422
383,411469483,0.12194078,-0.47959098,-0.10414418,-0.862715,10.22092056274414,0.420424222946167,-8.513447761535645,-142.38233947753906,36.30099868774414, -47.09772491455078
384,411486150,0.10937814,-0.48099753,-0.09316183,-0.8648693,9.495125770568848,0.7122098803520203,-9.917126655578613,-109.871337890625,-1.1258344650268555, -39.138797760009766
385,411502817,0.10132189,-0.48607492,-0.089376934,-0.8634101,9.692849159240723,0.6706888675689697,-10.152200698852539,-52.616458892822266,-37.361846923828125, -31.074054718017578
386,411519484,0.097982585,-0.49433693,-0.09315021,-0.85869294,9.497916221618652,0.605002760887146,-9.770246505737305,7.796764373779297,-69.45287322998047, -24.108827590942383
387,411536151,0.09702557,-0.5051068,-0.09945261,-0.8517996,11.42502498626709,-1.1084551811218262,-1.9937256574630737,30.5293025970459,-91.7711410522461, -15.575865745544434
388,411552818,0.095830865,-0.5153839,-0.10250273,-0.845393,13.170717239379883,2.1849212646484375,15.696227073669434,10.660930633544922,-85.16320037841797, -6.352909088134766
389,411569485,0.08597492,-0.5262087,-0.09782633,-0.84032327,10.10568904876709,1.8080646991729736,5.439602375030518,-66.23628997802734,-84.69903564453125, -29.807830810546875
390,411586152,0.07579215,-0.54013574,-0.08514055,-0.83382267,13.313011169433594,-3.4086437225341797,-7.1043267250061035,-114.56639099121094,-103.31683349609375, 0.225058451294899
391,411602819,0.07078789,-0.55529684,-0.079237,-0.8248372,18.527587890625,0.9623219966888428,-3.9050722122192383,-55.625038146972656,-120.0654525756836, 6.725266456604004
392,411619486,0.05560331,-0.57179534,-0.06610882,-0.8158359,10.529312133789062,2.396733045578003,2.319441318511963,-136.11863708496094,-129.70594787597656, -22.68406867980957
393,411636153,0.044071227,-0.5864243,-0.05367823,-0.80702126,8.776556968688965,-4.937504291534424,-1.2005926370620728,-117.21456909179688,-117.10478210449219, -5.837316036224365
394,411652820,0.035016708,-0.598667,-0.04812224,-0.7987843,10.417074203491211,-0.10350929200649261,-0.38049840927124023,-68.53754425048828,-102.69844818115234, -20.884098052978516
395,411669487,0.02751506,-0.6088662,-0.0460661,-0.7914562,11.14480209350586,-0.31550103425979614,-0.16204474866390228,-42.73512268066406,-88.06365203857422, -27.658653259277344
396,411686154,0.021303702,-0.61782193,-0.04596779,-0.7846843,10.80916690826416,-0.8880994915962219,0.08779196441173553,-26.62102699279785,-78.9317398071289, -29.33770179748535
397,411702821,0.016945787,-0.62590843,-0.048146233,-0.77822465,10.274334907531738,0.2707242965698242,0.81940096616745,-6.434049606323242,-72.66786193847656, -29.34048080444336
398,411719488,0.010862883,-0.6336659,-0.04833658,-0.7720191,10.079543113708496,1.4463928937911987,1.0024458169937134,-24.535587310791016,-70.16419982910156, -30.156213760375977
399,411736155,0.0037870456,-0.6409231,-0.046877574,-0.7661631,10.143484115600586,1.2581195831298828,0.8646982908248901,-37.69829177856445,-66.20479583740234, -28.429298400878906
400,411752822,-0.0036968787,-0.64769274,-0.04480492,-0.76057446,9.693530082702637,1.6483782529830933,0.9716470837593079,-42.80332565307617,-62.5871467590332, -28.03531837463379
401,411769489,-0.012002561,-0.65360284,-0.042230576,-0.7555634,9.78303337097168,2.0721096992492676,1.3302390575408936,-49.28662872314453,-55.8007926940918, -30.342430114746094
402,411786156,-0.02004547,-0.6586157,-0.03988023,-0.7511548,10.116894721984863,1.3523904085159302,0.08390465378761292,-47.19011306762695,-48.35287857055664, -30.186433792114258
403,411802823,-0.0270058,-0.6629383,-0.03844102,-0.7471987,9.320560455322266,2.0284550189971924,0.36545902490615845,-37.80158996582031,-42.324806213378906, -28.845781326293945
404,411819490,-0.0337015,-0.667231,-0.036351558,-0.74319965,10.019570350646973,0.1007186695933342,-0.05521707981824875,-39.93001174926758,-42.428810119628906, -24.532814025878906
405,411836157,-0.037902154,-0.6715703,-0.036398653,-0.7390751,9.964470863342285,-0.319259375333786,0.25648635625839233,-17.52289390563965,-42.13234329223633, -21.61066436767578
406,411852824,-0.040920902,-0.676073,-0.037797205,-0.73472613,10.162741661071777,0.05166655033826828,-0.139123797416687,-5.097840309143066,-43.36203384399414, -21.875450134277344
407,411869491,-0.04312042,-0.6803823,-0.040595777,-0.73046064,10.009653091430664,1.151533842086792,0.3424573838710785,5.7074079513549805,-41.39818572998047, -24.282804489135742
408,411886158,-0.044785667,-0.6842337,-0.044288494,-0.7265378,10.03941535949707,1.6077357530593872,0.3138013780117035,12.467032432556152,-37.09339141845703, -25.8140869140625
409,411902825,-0.045565434,-0.6872903,-0.04861421,-0.7233206,9.529866218566895,1.6742098331451416,0.26986265182495117,19.335704803466797,-29.350126266479492, -24.396944046020508
410,411919492,-0.045678623,-0.69077367,-0.05310239,-0.7196706,9.3306884765625,1.3614988327026367,-0.22170113027095795,23.573257446289062,-33.255680084228516, -21.84605598449707
411,411936159,-0.04471097,-0.69523454,-0.058071934,-0.7150369,9.253509521484375,1.8414217233657837,0.2789248824119568,31.755287170410156,-42.226356506347656, -18.74190330505371
412,411952826,-0.043868847,-0.7003033,-0.06272592,-0.70972997,9.317903518676758,2.5183708667755127,-0.21541374921798706,30.061500549316406,-48.59281921386719, -17.817607879638672
413,411969493,-0.04365349,-0.7054828,-0.06632085,-0.70426583,9.516650199890137,2.4758732318878174,-0.6359584331512451,21.978670120239258,-50.48784255981445, -15.775016784667969
414,411986160,-0.044184785,-0.7107416,-0.06900757,-0.6986648,9.463964462280273,2.335521936416626,-0.579532265663147,14.047832489013672,-52.15493392944336, -14.988717079162598
415,412002827,-0.04536796,-0.7161859,-0.07111315,-0.6927932,9.542769432067871,2.0753512382507324,-0.7405104637145996,8.256726264953613,-54.862648010253906, -15.273552894592285
416,412019494,-0.04653896,-0.72178555,-0.07319751,-0.68666005,9.826883316040039,1.5730212926864624,-1.113926887512207,8.394020080566406,-56.89808654785156, -15.117879867553711
417,412036161,-0.047550622,-0.72748816,-0.07558126,-0.680285,9.96086311340332,1.6625456809997559,-0.9602110385894775,10.753589630126953,-58.41515350341797, -15.8814058303833
418,412052828,-0.048664447,-0.73330784,-0.07794097,-0.67365915,10.251638412475586,1.9749677181243896,-1.0909380912780762,10.300337791442871,-60.28402328491211, -16.264434814453125
419,412069495,-0.049881607,-0.7391685,-0.080264434,-0.6668579,10.469719886779785,2.269845724105835,-0.977774977684021,9.720897674560547,-61.433223724365234, -16.599628448486328
420,412086162,-0.049973067,-0.74457324,-0.084295206,-0.66030914,10.939004898071289,3.5898475646972656,-0.49126097559928894,22.975988388061523,-56.86286544799805, -20.281536102294922
421,412102829,-0.047532946,-0.75008446,-0.090209514,-0.6534343,11.264917373657227,1.438735842704773,-0.6925984025001526,44.71699142456055,-56.9123649597168, -18.476516723632812
422,412119496,-0.043064557,-0.7560874,-0.09765651,-0.64570934,11.504329681396484,0.9923597574234009,-0.18899914622306824,62.75273895263672,-61.76001739501953, -17.25107765197754
423,412136163,-0.03878722,-0.76292986,-0.10443407,-0.6368102,12.23869800567627,0.2880977988243103,-1.1541969776153564,59.827327728271484,-71.93387603759766, -14.415641784667969
424,412152830,-0.03446043,-0.77033746,-0.11058883,-0.6270269,12.151432037353516,-0.44789135456085205,-0.6944555044174194,58.145633697509766,-79.18891906738281, -10.778553009033203
425,412169497,-0.029322127,-0.77841645,-0.11622046,-0.6161989,14.021835327148438,-0.5378598570823669,-0.3874601125717163,61.14198303222656,-87.14092254638672, -4.266132354736328
426,412186164,-0.022974811,-0.78719425,-0.12105235,-0.60427135,14.581670761108398,0.7282314300537109,0.5068663358688354,65.24433135986328,-95.20597839355469, 5.452118396759033
427,412202831,-0.01646335,-0.79625934,-0.12602575,-0.59145385,12.752897262573242,0.11923971772193909,0.9851110577583313,67.50985717773438,-101.08932495117188, 5.454156398773193
428,412219498,-0.006438744,-0.8050505,-0.1331141,-0.57804245,13.747905731201172,-2.192633628845215,1.886441707611084,95.83125305175781,-99.97709655761719, 7.844849586486816
429,412236165,0.010001725,-0.81350565,-0.14257479,-0.56372076,16.375099182128906,-2.9317188262939453,4.902121067047119,141.5956573486328,-97.75098419189453, 19.841432571411133
430,412252832,0.031049011,-0.82120526,-0.15370919,-0.5486635,16.4041748046875,-1.3303700685501099,7.3056640625,174.62921142578125,-94.60992431640625, 27.6214656829834
431,412269499,0.053699836,-0.82715803,-0.1667823,-0.53395677,13.160527229309082,0.9389472007751465,8.09655475616455,191.00540161132812,-84.8477554321289, 20.795154571533203
432,412286166,0.075973414,-0.8312594,-0.1841056,-0.5189807,8.524887084960938,2.1007328033447266,5.1931376457214355,205.46876525878906,-81.66847229003906, -6.772141456604004
433,412302833,0.10407447,-0.83540577,-0.2071,-0.49837264,7.772623538970947,-1.6416923999786377,-14.874131202697754,266.1673889160156,-109.66939544677734, -15.362669944763184
434,412319500,0.1389855,-0.8369134,-0.22912468,-0.47724333,15.686172485351562,3.7781054973602295,-10.150821685791016,304.6087341308594,-93.1605224609375, 10.175785064697266
435,412336167,0.16827217,-0.8372391,-0.24966517,-0.45648953,17.66556167602539,2.2231829166412354,-8.10784912109375,267.8927307128906,-94.54088592529297, -1.9237278699874878
436,412352834,0.19986238,-0.83538866,-0.27270672,-0.43337294,10.908529281616211,3.0326790809631348,-3.9338061809539795,295.61224365234375,-100.26282501220703, -10.061361312866211
437,412369501,0.22472715,-0.8314559,-0.29346672,-0.4147965,12.737879753112793,5.063671588897705,5.017643451690674,244.50604248046875,-77.44403839111328, -27.103654861450195
438,412386168,0.2351064,-0.82730526,-0.3066175,-0.40777054,6.6357245445251465,6.460036754608154,9.75190258026123,116.99945068359375,-28.309846878051758, -43.14815139770508
439,412402835,0.23938829,-0.8223728,-0.31499466,-0.40887004,1.8024513721466064,2.2797911167144775,7.656307697296143,53.083839416503906,14.897337913513184, -47.825008392333984
440,412419502,0.2439827,-0.8154092,-0.32065222,-0.4156476,4.0438456535339355,0.542504072189331,5.9072675704956055,38.255287170410156,57.83012771606445, -45.300315856933594
441,412436169,0.2472418,-0.8069703,-0.32327873,-0.42797378,6.035479545593262,0.9124336838722229,2.634990930557251,12.345430374145508,95.26078796386719, -44.678504943847656
442,412452836,0.24869627,-0.7968715,-0.32380316,-0.44530636,7.752557754516602,1.5345432758331299,1.987309455871582,-12.160109519958496,127.46556854248047, -50.52177429199219
443,412469503,0.24644387,-0.78519684,-0.3229584,-0.46736416,9.527010917663574,1.7097856998443604,2.768007755279541,-44.48796463012695,152.24850463867188, -65.95376586914062
444,412486170,0.24008554,-0.77215487,-0.31958356,-0.49396563,9.919001579284668,-0.01716393604874611,2.092278003692627,-82.5611572265625,176.31509399414062, -76.2246322631836
445,412502837,0.2334237,-0.75716,-0.31370172,-0.5232718,10.003259658813477,-1.3352992534637451,1.0571051836013794,-95.41370391845703,200.75804138183594, -72.71684265136719
446,412519504,0.22732377,-0.7403094,-0.30489632,-0.5543504,11.14815616607666,-1.533786416053772,-0.4816070795059204,-103.86193084716797,222.55421447753906, -62.34707260131836
447,412536171,0.22209384,-0.7216529,-0.2935593,-0.5862717,10.952400207519531,-1.0280461311340332,-0.9635839462280273,-108.03504943847656,239.50917053222656, -51.27695083618164
448,412552838,0.21840699,-0.7005618,-0.28084806,-0.61857575,11.289703369140625,-0.8422691822052002,-1.3541117906570435,-102.98051452636719,256.4450378417969, -43.762062072753906
449,412569505,0.21752916,-0.67645425,-0.26843357,-0.65041095,12.571128845214844,-0.30774903297424316,-1.3787946701049805,-82.7527847290039,272.0111389160156, -38.3887825012207
450,412586172,0.21894963,-0.649207,-0.25786373,-0.68124723,13.699549674987793,0.6627519726753235,-1.5529518127441406,-57.27125549316406,282.91070556640625, -41.00955581665039
451,412602839,0.22059229,-0.61936146,-0.24831988,-0.7113844,14.571670532226562,1.1020209789276123,-1.5235166549682617,-46.32249450683594,290.8432922363281, -48.114463806152344
452,412619506,0.2220353,-0.5872987,-0.24060939,-0.7401945,15.829262733459473,2.0649547576904297,-2.044912099838257,-32.57393264770508,292.95379638671875, -58.679283142089844
453,412636173,0.21973264,-0.5555058,-0.23303266,-0.7673505,17.83869171142578,3.6630184650421143,-5.4274516105651855,-44.69955825805664,278.5416259765625, -75.31428527832031
454,412652840,0.21013933,-0.5280674,-0.21900241,-0.79311067,15.67041301727295,6.233581066131592,-7.6627583503723145,-110.96255493164062,248.3791961669922, -80.04232788085938
455,412669507,0.19247879,-0.50756985,-0.1950371,-0.81687534,13.404799461364746,5.877902507781982,-10.247320175170898,-201.5043182373047,205.58718872070312, -74.61299133300781
456,412686174,0.16881464,-0.49366492,-0.16396366,-0.8372051,13.593038558959961,4.533904075622559,-12.399348258972168,-266.55535888671875,158.03506469726562, -70.12775421142578
457,412702841,0.14533448,-0.4849701,-0.13284913,-0.8520757,12.149007797241211,2.1016845703125,-14.246532440185547,-266.0753173828125,109.87350463867188, -56.70024490356445
458,412719508,0.12528938,-0.48109442,-0.10678132,-0.8610741,10.703742027282715,1.6210644245147705,-14.385518074035645,-224.49427795410156,60.265472412109375, -43.118473052978516
459,412736175,0.10846996,-0.48270136,-0.085704684,-0.86480546,10.668444633483887,1.6076799631118774,-14.087067604064941,-185.12783813476562,8.566205024719238, -31.951013565063477
460,412752842,0.09565522,-0.48870075,-0.07063076,-0.86431074,10.12411880493164,1.5071964263916016,-13.316497802734375,-136.93096923828125,-33.5794677734375, -22.300872802734375
461,412769509,0.08828187,-0.49766886,-0.06476839,-0.8604285,9.93201732635498,0.9063934087753296,-12.171680450439453,-64.21680450439453,-65.91210174560547, -17.230487823486328
462,412786176,0.087491974,-0.50751907,-0.07071366,-0.85426533,10.357608795166016,-0.08111701160669327,-6.487730503082275,28.640880584716797,-83.07366943359375, -16.906856536865234
463,412802843,0.09235494,-0.51567006,-0.0832992,-0.8477125,13.377922058105469,-1.9063037633895874,13.195584297180176,88.58438873291016,-75.6407699584961, -7.485773086547852
464,412819510,0.091874555,-0.52239466,-0.09168027,-0.84276813,9.031046867370605,2.9614624977111816,11.322739601135254,45.13160705566406,-62.08061599731445, -25.592323303222656
465,412836177,0.08627863,-0.53160053,-0.09247929,-0.8374989,9.505017280578613,1.508760929107666,-1.7080490589141846,-18.537561416625977,-76.13052368164062, -26.220748901367188
466,412852844,0.07846108,-0.54461926,-0.08053813,-0.831112,16.556550979614258,-3.5312328338623047,-5.235445976257324,-101.575439453125,-96.01161193847656, 10.651066780090332
467,412869511,0.072619066,-0.5579741,-0.08151685,-0.8226462,15.429749488830566,7.817526340484619,1.1039665937423706,-19.364974975585938,-111.5264892578125, -25.15611457824707
468,412886178,0.056763764,-0.5733242,-0.06594462,-0.81469554,9.967506408691406,-5.325263977050781,-1.7814815044403076,-152.70758056640625,-118.18496704101562, -17.376842498779297
469,412902845,0.048257772,-0.5860071,-0.058954787,-0.8067163,9.761030197143555,0.032833393663167953,1.0106478929519653,-74.58189392089844,-103.35504150390625, -11.263579368591309
470,412919512,0.03560529,-0.597079,-0.049801625,-0.79984313,10.794894218444824,0.5322770476341248,0.16902929544448853,-103.19801330566406,-90.93795013427734, -26.55864715576172
471,412936179,0.025875557,-0.60622334,-0.04376868,-0.79366755,10.960343360900879,-1.6034159660339355,-0.134637713432312,-73.80491638183594,-77.23926544189453, -24.11446762084961
472,412952846,0.02222502,-0.6136039,-0.045786068,-0.78797215,10.868406295776367,-3.036944627761841,-0.46091875433921814,-4.3600993156433105,-65.21501922607422, -25.124364852905273
473,412969513,0.025747808,-0.61969745,-0.057073064,-0.78233963,10.300971031188965,-1.2653406858444214,0.3273245096206665,76.30467987060547,-57.135276794433594, -25.819561004638672
474,412986180,0.029210374,-0.62520754,-0.068520516,-0.77689594,9.845633506774902,1.2950087785720825,1.2583677768707275,76.94159698486328,-53.24740219116211, -27.11899185180664
475,413002847,0.029268079,-0.6308746,-0.075345434,-0.77166307,9.833552360534668,1.9153733253479004,1.2301043272018433,37.479888916015625,-53.86896514892578, -25.41078758239746
476,413019514,0.026806643,-0.63667625,-0.07920104,-0.76658475,9.849942207336426,2.0667409896850586,1.1120376586914062,10.690659523010254,-54.634742736816406, -25.855390548706055
477,413036181,0.022910217,-0.6421354,-0.08079043,-0.76197803,9.769930839538574,2.4364089965820312,0.5484060049057007,-7.731140613555908,-51.14307403564453, -23.76579475402832
478,413052848,0.017465249,-0.64713794,-0.08004233,-0.75795835,9.336459159851074,2.324737787246704,0.6684748530387878,-27.069103240966797,-46.66105651855469, -21.893470764160156
479,413069515,0.012140613,-0.65176004,-0.07890563,-0.7542119,9.487682342529297,1.351973295211792,0.8589217662811279,-28.66485595703125,-43.36255645751953, -19.768325805664062
480,413086182,0.00798545,-0.656322,-0.07907033,-0.75028384,9.499699592590332,0.9169256687164307,0.45196524262428284,-16.570642471313477,-43.35430908203125, -19.55068016052246
481,413102849,0.004778675,-0.6606394,-0.08021601,-0.74639016,9.94106674194336,1.1778602600097656,0.3080419898033142,-7.235361099243164,-41.487979888916016, -19.222898483276367
482,413119516,0.0017711176,-0.6649662,-0.08153202,-0.74240786,10.013704299926758,1.1586397886276245,0.3791213631629944,-5.407470703125,-41.84639358520508, -18.96857452392578
483,413136183,-0.0008786319,-0.66933787,-0.08331621,-0.7382713,9.971739768981934,1.2012670040130615,0.30850380659103394,-1.2942453622817993,-42.5982666015625, -19.259143829345703
484,413152850,-0.0032217696,-0.6739233,-0.08562012,-0.7338162,9.684598922729492,1.6449261903762817,0.6243227124214172,2.9393577575683594,-44.98360824584961, -19.978076934814453
485,413169517,-0.0051439754,-0.67882174,-0.08846879,-0.72893625,9.083442687988281,1.6069366931915283,0.44345778226852417,7.897030830383301,-48.287445068359375, -20.204904556274414
486,413186184,-0.006526603,-0.68410534,-0.0915286,-0.7235883,9.129789352416992,2.2134406566619873,0.3879404664039612,11.773951530456543,-52.081722259521484, -18.270065307617188
487,413202851,-0.008159925,-0.6898263,-0.09374005,-0.71783435,9.441658020019531,2.269493341445923,0.05218148231506348,6.651334285736084,-56.3778076171875, -15.267648696899414
488,413219518,-0.010182747,-0.69572866,-0.095172904,-0.71189904,9.779271125793457,1.8487741947174072,-0.3726547658443451,1.0910571813583374,-58.441795349121094, -13.387466430664062
489,413236185,-0.011680167,-0.7016933,-0.0968424,-0.70577025,9.816876411437988,1.6123344898223877,-0.7436314225196838,4.896859645843506,-59.3218879699707, -11.921791076660156
490,413252852,-0.012719323,-0.707577,-0.09880573,-0.6995788,9.599771499633789,2.0337095260620117,-0.6637675166130066,8.569435119628906,-58.91082000732422, -11.177693367004395
491,413269519,-0.014066878,-0.71349865,-0.10057396,-0.6932581,9.770861625671387,2.0847103595733643,-0.9293708205223083,6.224576473236084,-59.95871353149414, -11.69766616821289
492,413286186,-0.015483577,-0.71937984,-0.10238027,-0.68685603,9.874086380004883,1.9920852184295654,-0.9695398807525635,6.12133264541626,-60.217735290527344, -12.249990463256836
493,413302853,-0.01711857,-0.7252285,-0.10397526,-0.6803969,10.269905090332031,1.9481794834136963,-1.2219693660736084,4.082904815673828,-60.53126907348633, -12.265676498413086
494,413319520,-0.018888349,-0.73082405,-0.105445296,-0.6741076,10.438565254211426,1.6669702529907227,-1.3949837684631348,2.677104949951172,-58.62074279785156, -12.435942649841309
495,413336187,-0.020176558,-0.7363035,-0.107583515,-0.6677395,10.994061470031738,1.9255685806274414,-1.771314263343811,8.237245559692383,-58.050140380859375, -13.660502433776855
496,413352854,-0.020150336,-0.74102753,-0.11174946,-0.66180396,11.257593154907227,3.1021194458007812,-0.21615177392959595,23.7771053314209,-51.14522171020508, -18.39405059814453
497,413369521,-0.017779818,-0.7463196,-0.11756193,-0.65488195,12.042682647705078,1.4926563501358032,-0.6638075113296509,44.05515670776367,-56.745548248291016, -15.81424617767334
498,413386188,-0.01395911,-0.7521701,-0.12420094,-0.6470082,12.432175636291504,-0.38893258571624756,-0.2508293092250824,56.057533264160156,-62.887847900390625, -13.202493667602539
499,413402855,-0.008925821,-0.7589109,-0.13126734,-0.63776463,12.722262382507324,-1.5729467868804932,-0.422214537858963,65.4873275756836,-72.87938690185547, -9.415639877319336
500,413419522,-0.002878837,-0.76645887,-0.13803658,-0.6272788,13.516176223754883,-2.0995829105377197,0.0038844794034957886,70.6434326171875,-82.02815246582031, -2.801300048828125
501,413436189,0.004131125,-0.7753044,-0.14359698,-0.6150335,14.800854682922363,-1.1751972436904907,1.26824152469635,72.19920349121094,-96.03784942626953, 8.882905006408691
502,413452856,0.011111242,-0.7850815,-0.1477276,-0.60141504,13.973501205444336,-1.0123233795166016,2.2371137142181396,67.32392883300781,-107.33067321777344, 17.30892562866211
503,413469523,0.020453457,-0.79500467,-0.15257554,-0.5867452,14.113842964172363,-1.0264341831207275,4.0204901695251465,84.10037994384766,-111.31903839111328, 23.410175323486328
504,413486190,0.035634708,-0.8040966,-0.15945399,-0.5716061,15.899527549743652,-2.6742289066314697,6.578787803649902,124.82442474365234,-104.7634506225586, 35.042579650878906
505,413502857,0.05778241,-0.81189185,-0.17001121,-0.5555079,15.67927360534668,-1.1819223165512085,8.494696617126465,179.17904663085938,-98.33454895019531, 40.872249603271484
506,413519524,0.081002474,-0.8171355,-0.1845477,-0.5400652,11.076594352722168,3.662855386734009,9.029592514038086,200.61993408203125,-85.37031555175781, 19.504131317138672
507,413536191,0.10324771,-0.82225204,-0.20532823,-0.52065545,5.7823991775512695,1.9428133964538574,-2.7115061283111572,223.46603393554688,-112.0110092163086, -17.111751556396484
508,413552858,0.13375948,-0.8265789,-0.22616519,-0.49772003,11.969865798950195,0.9993492364883423,-16.191877365112305,275.98187255859375,-117.49140930175781, 13.592360496520996
509,413569525,0.15920545,-0.83067346,-0.24357575,-0.4746643,20.659513473510742,1.8930286169052124,-9.083514213562012,235.8358612060547,-122.0177230834961, 15.500838279724121
510,413586192,0.18628909,-0.8309677,-0.2628723,-0.4535276,13.235861778259277,3.380035638809204,-3.9396846294403076,252.30514526367188,-97.98187255859375, 1.6380542516708374
511,413602859,0.21318962,-0.8296162,-0.28415135,-0.43074974,11.50334644317627,3.456630229949951,0.012270599603652954,262.54315185546875,-105.11795806884766, -11.090535163879395
512,413619526,0.23254982,-0.8261535,-0.3002956,-0.41618967,12.523909568786621,6.31439208984375,7.013102054595947,191.33773803710938,-59.212364196777344, -20.25468635559082
513,413636193,0.241279,-0.821983,-0.31113043,-0.411493,4.772023677825928,4.95652961730957,8.249066352844238,96.53047180175781,-14.70408821105957, -37.681396484375
514,413652860,0.2481475,-0.81617033,-0.31782052,-0.41385913,1.6751627922058105,2.1993095874786377,6.763955116271973,61.92006301879883,32.691375732421875, -34.707542419433594
515,413669527,0.2545244,-0.8085265,-0.3222013,-0.4215313,4.5324602127075195,1.9424588680267334,4.173524856567383,44.12135314941406,70.50624084472656, -36.183292388916016
516,413686194,0.25734,-0.79979444,-0.32345042,-0.43529883,6.4027099609375,2.5609240531921387,2.5356554985046387,3.6509287357330322,105.10417175292969, -42.15788650512695
517,413702861,0.2560329,-0.7896186,-0.32258987,-0.4548468,8.316442489624023,3.219459056854248,2.421135425567627,-35.6311149597168,135.75, -56.31899642944336
518,413719528,0.24999128,-0.77777845,-0.3204491,-0.47945538,9.649335861206055,3.1398181915283203,2.0440750122070312,-73.63162231445312,160.15206909179688, -76.7618637084961
519,413736195,0.24029629,-0.76452285,-0.31536645,-0.5082388,9.745566368103027,0.8940002918243408,0.4296274781227112,-109.6335220336914,184.12185668945312, -83.36219024658203
520,413752862,0.23024622,-0.7493638,-0.3073553,-0.53941953,9.787632942199707,0.08947744220495224,-0.4585125148296356,-123.79507446289062,207.42843627929688, -77.31192779541016
521,413769529,0.21976371,-0.7322577,-0.29659867,-0.57230395,10.869102478027344,0.8191756010055542,-0.8692809343338013,-136.73724365234375,226.85755920410156, -71.60691833496094
522,413786196,0.20868218,-0.7134434,-0.2827561,-0.60621727,10.861637115478516,0.015164252370595932,-1.564310073852539,-151.4249267578125,242.202392578125, -63.48837661743164
523,413802863,0.20213115,-0.69162786,-0.26925755,-0.6389793,11.24268913269043,-0.9851272702217102,-2.384866237640381,-121.2200927734375,257.3843994140625, -50.50102615356445
524,413819530,0.20027085,-0.66653687,-0.25771597,-0.67022604,12.863150596618652,0.010282590985298157,-2.3548743724823,-82.96023559570312,270.5550537109375, -43.1866340637207
525,413836197,0.20046468,-0.638533,-0.24807717,-0.70039093,14.642534255981445,1.0482776165008545,-2.1657514572143555,-58.8509407043457,280.0733337402344, -46.1342887878418
526,413852864,0.20130934,-0.6079219,-0.23984228,-0.72964466,15.561511039733887,2.1482274532318115,-1.9102187156677246,-44.091041564941406,287.8462829589844, -52.36772537231445
527,413869531,0.20141135,-0.57560027,-0.23351774,-0.7573556,16.06316566467285,3.669963836669922,-3.627631187438965,-32.704185485839844,286.1572570800781, -64.76900482177734
528,413886198,0.1960103,-0.5445579,-0.22565372,-0.7836563,17.433998107910156,5.230525493621826,-6.204217433929443,-62.028526306152344,267.274169921875, -83.323486328125
529,413902865,0.1817062,-0.51859015,-0.20887236,-0.8089621,15.002509117126465,7.405338287353516,-7.858068466186523,-148.75173950195312,234.50921630859375, -88.68634796142578
530,413919532,0.15924694,-0.49850786,-0.18210283,-0.8324476,13.143512725830078,7.664550304412842,-10.298018455505371,-238.19956970214844,196.16299438476562, -87.69131469726562
531,413936199,0.13315272,-0.4837847,-0.1504934,-0.85180664,13.257987022399902,4.032458305358887,-13.542716979980469,-279.125244140625,152.20376586914062, -80.65318298339844
532,413952866,0.110284746,-0.47339788,-0.12259433,-0.86527586,12.149137496948242,0.1691790223121643,-15.382243156433105,-244.54080200195312,107.27760314941406, -64.20236206054688
533,413969533,0.092545494,-0.46864715,-0.10160885,-0.8726287,11.001653671264648,0.505763053894043,-14.640445709228516,-185.8216094970703,53.05846405029297, -46.804203033447266
534,413986200,0.078214675,-0.47016832,-0.08504201,-0.8749812,10.191147804260254,0.6302482485771179,-14.394875526428223,-148.83132934570312,-0.9743869304656982, -33.02203369140625
535,414002867,0.06900101,-0.47680688,-0.07637171,-0.87296146,9.40903377532959,-0.4007946252822876,-13.850990295410156,-84.98687744140625,-47.01156997680664, -22.41259002685547
536,414019534,0.0677077,-0.48623285,-0.08198195,-0.86733645,9.75837516784668,-0.5357106328010559,-12.268113136291504,27.256948471069336,-78.04682159423828, -18.524799346923828
537,414036201,0.07330803,-0.49624243,-0.09760913,-0.8595591,11.545062065124512,-1.7704472541809082,-0.3639104664325714,110.9828872680664,-89.38427734375, -9.600496292114258
538,414052868,0.07950915,-0.503016,-0.11148999,-0.8533601,13.10567569732666,0.7453778982162476,21.528789520263672,103.29414367675781,-63.55805206298828, -3.1070711612701416
539,414069535,0.07539455,-0.51082134,-0.11424201,-0.8487204,9.050840377807617,1.5837297439575195,3.947939395904541,0.5837941765785217,-66.18053436279297, -25.22147560119629
540,414086202,0.070170894,-0.52310646,-0.105943985,-0.84274065,13.244698524475098,-3.0338082313537598,-4.660926342010498,-69.06005096435547,-92.19204711914062, 11.338183403015137
541,414102869,0.06546376,-0.53672564,-0.10010563,-0.8352359,17.386795043945312,0.1983979344367981,-3.968080759048462,-52.47124099731445,-106.15080261230469, 7.166910648345947
542,414119536,0.054907344,-0.5516511,-0.093605414,-0.826985,13.158599853515625,4.156897068023682,1.1658556461334229,-77.93836975097656,-120.06688690185547, -22.747087478637695
543,414136203,0.04419266,-0.56577986,-0.08243792,-0.8192339,9.440496444702148,-1.1229712963104248,-0.11435666680335999,-105.10639953613281,-111.97467041015625, -6.601927757263184
544,414152870,0.03132989,-0.57839715,-0.06960091,-0.8121765,9.529376029968262,3.000871419906616,1.2960249185562134,-122.79366302490234,-101.47186279296875, -13.26761245727539
545,414169537,0.018074263,-0.5888748,-0.057422135,-0.8059793,9.886509895324707,-1.1359694004058838,-0.2640572488307953,-120.6318130493164,-86.44680786132812, -19.24693489074707
546,414186204,0.013614404,-0.59711975,-0.057130415,-0.79999936,10.928597450256348,-3.2403643131256104,-0.5214598178863525,-18.943527221679688,-71.19322967529297, -19.54640769958496
547,414202871,0.018634183,-0.6036516,-0.069489956,-0.79399556,10.805696487426758,-2.146984815597534,-0.08095654100179672,89.74183654785156,-59.32234573364258, -20.060007095336914
548,414219538,0.027210305,-0.60925907,-0.086126275,-0.7878105,9.937994003295898,0.9085642695426941,1.001598834991455,128.0631561279297,-53.87614440917969, -18.86613655090332
549,414236205,0.031838197,-0.61504847,-0.09688318,-0.7818666,9.889338493347168,3.024042844772339,1.7708697319030762,79.49473571777344,-55.09733963012695, -15.583894729614258
550,414252872,0.031780336,-0.6210766,-0.10128035,-0.77652824,9.736741065979004,2.449542999267578,1.3435255289077759,25.033151626586914,-55.566959381103516, -13.847350120544434
551,414269539,0.030315107,-0.626697,-0.10410664,-0.77168256,9.87850284576416,1.4962931871414185,0.9860662221908569,10.381227493286133,-51.939109802246094, -15.038030624389648
552,414286206,0.028931137,-0.6319265,-0.106775574,-0.7670924,10.014370918273926,1.84199857711792,0.6020911335945129,9.795175552368164,-48.684757232666016, -14.262578010559082
553,414302873,0.027513828,-0.6367063,-0.108854584,-0.7628885,9.329390525817871,2.565657377243042,0.623477041721344,6.344397068023682,-44.553829193115234, -12.279627799987793
554,414319540,0.02569599,-0.6412355,-0.11012558,-0.758966,9.147737503051758,2.2329132556915283,0.8599557876586914,0.189695343375206,-42.16581726074219, -11.074583053588867
555,414336207,0.023787856,-0.6455921,-0.11137018,-0.7551434,9.190502166748047,2.0759449005126953,0.40459465980529785,-0.39069855213165283,-40.90455627441406, -11.570648193359375
556,414352874,0.02153439,-0.64966035,-0.112368435,-0.75156593,9.670923233032227,2.056452751159668,0.30184733867645264,-3.342566728591919,-38.555641174316406, -12.525591850280762
557,414369541,0.018247865,-0.6538126,-0.112070665,-0.7480885,10.260608673095703,1.3147143125534058,0.3002743124961853,-14.742130279541016,-39.16143798828125, -12.01931381225586
558,414386208,0.0148453405,-0.6580402,-0.111613296,-0.74451673,10.196308135986328,0.9771907329559326,0.2439814805984497,-16.019142150878906,-40.055049896240234, -11.829476356506348
559,414402875,0.011846111,-0.6624977,-0.11193267,-0.74055916,9.619296073913574,1.0469138622283936,0.17596754431724548,-9.944830894470215,-42.75938034057617, -13.068501472473145
560,414419542,0.009686883,-0.6671407,-0.113257706,-0.73620814,9.243069648742676,1.3124135732650757,0.21443843841552734,-0.7086960077285767,-44.946250915527344, -13.201910972595215
561,414436209,0.007901917,-0.6720847,-0.11496307,-0.7314528,9.489516258239746,1.6711634397506714,0.3018052875995636,3.229271411895752,-48.07295608520508, -12.793733596801758
562,414452876,0.0063967872,-0.6773767,-0.11689884,-0.7262607,9.57863998413086,2.1876771450042725,0.2504033148288727,6.010061264038086,-51.64977264404297, -12.153118133544922
563,414469543,0.0040726457,-0.683153,-0.118138954,-0.7206447,9.338134765625,2.788339614868164,-0.0219794400036335,-0.9565432667732239,-56.68512725830078, -12.59168529510498
564,414486210,0.0013831411,-0.6889606,-0.118740104,-0.7150051,9.27550983428955,2.7246880531311035,-0.44731569290161133,-5.816957473754883,-57.24562454223633, -11.365067481994629
565,414502877,-0.0014251414,-0.6947962,-0.1188112,-0.7093238,9.333378791809082,2.368942975997925,-0.6428422927856445,-8.949289321899414,-57.68300247192383, -9.406124114990234
566,414519544,-0.0043266257,-0.700716,-0.11859334,-0.70350146,9.620048522949219,1.8771905899047852,-0.7844528555870056,-10.68516731262207,-58.858150482177734, -8.407477378845215
567,414536211,-0.0071746795,-0.70685935,-0.11858498,-0.6973064,9.857630729675293,1.5192034244537354,-1.070280909538269,-9.100460052490234,-61.696041107177734, -8.986788749694824
568,414552878,-0.0101006,-0.7132699,-0.1185152,-0.690723,10.100166320800781,1.4486092329025269,-1.3278855085372925,-9.441664695739746,-64.93966674804688, -8.865896224975586
569,414569545,-0.0128863435,-0.71994394,-0.11831903,-0.68375105,10.346545219421387,1.497381329536438,-1.1929563283920288,-9.01745891571045,-68, -7.39682674407959
570,414586212,-0.015204059,-0.72693694,-0.118350655,-0.6762581,10.798027992248535,1.5361757278442383,-1.072367787361145,-5.175294876098633,-71.68814849853516, -6.115451812744141
571,414602879,-0.016629832,-0.7341024,-0.11932891,-0.668265,11.437931060791016,2.090625524520874,-1.3044981956481934,4.11201286315918,-74.17860412597656, -6.617093086242676
572,414619546,-0.016703151,-0.74093837,-0.12215583,-0.66015863,11.42776870727539,2.282005786895752,0.14113952219486237,19.491518020629883,-71.92742919921875, -10.020387649536133
573,414636213,-0.014055081,-0.7484477,-0.12667966,-0.650831,12.248312950134277,0.7276185750961304,-0.46616142988204956,42.16734313964844,-78.75311279296875, -5.891944885253906
574,414652880,-0.009674404,-0.7565763,-0.13144912,-0.64048445,12.899914741516113,-0.2529802620410919,-0.4124537706375122,53.133995056152344,-85.25848388671875, 1.0180193185806274
575,414669547,-0.004121208,-0.76526797,-0.13636798,-0.6290884,13.280622482299805,-0.8450353741645813,-0.07314015924930573,60.8797721862793,-92.15631103515625, 5.815185546875
576,414686214,0.0026885765,-0.77458584,-0.14099345,-0.6165474,14.523265838623047,-1.3371613025665283,0.4714512228965759,67.31603240966797,-99.75545501708984, 13.31643009185791
577,414702881,0.011213076,-0.78464806,-0.14526564,-0.60257787,14.603437423706055,-1.591747522354126,1.6008777618408203,76.32361602783203,-108.89576721191406, 23.178922653198242
578,414719548,0.021479659,-0.79488415,-0.15006974,-0.5875179,14.128067970275879,-2.571852684020996,3.005099296569824,89.00365447998047,-113.85975646972656, 27.74985694885254
579,414736215,0.03683005,-0.8047112,-0.15567046,-0.5717084,16.88740348815918,-3.087306022644043,6.009999752044678,120.84203338623047,-111.2531509399414, 43.58397674560547
580,414752882,0.05753921,-0.81323344,-0.164089,-0.5553519,15.204251289367676,-1.6049628257751465,8.065620422363281,162.490478515625,-104.24382019042969, 47.76305389404297
581,414769549,0.07925443,-0.8196112,-0.17496793,-0.5397619,11.906968116760254,2.8214290142059326,8.22902774810791,177.49847412109375,-91.7359619140625, 35.10923767089844
582,414786216,0.0969055,-0.8246656,-0.18844712,-0.5244276,6.71407413482666,4.743365287780762,3.915410041809082,164.66986083984375,-91.80480194091797, 3.6715476512908936
583,414802883,0.11350152,-0.8319464,-0.20377083,-0.50344867,8.160552978515625,-0.5328147411346436,-14.705486297607422,171.19683837890625,-134.49880981445312, -3.8921163082122803
584,414819550,0.13801445,-0.83805853,-0.21649665,-0.48139352,20.215112686157227,-1.580811619758606,-9.47844123840332,209.91427612304688,-123.39981079101562, 37.591434478759766
585,414836217,0.16436101,-0.83959556,-0.23138763,-0.46316838,16.9346866607666,2.016902208328247,-5.060675144195557,226.2786407470703,-85.51722717285156, 20.7430477142334
586,414852884,0.18768948,-0.84087455,-0.24785146,-0.4430268,9.73769474029541,5.387282371520996,-2.287834405899048,217.21548461914062,-102.375, 3.845151901245117
587,414869551,0.20707978,-0.8405711,-0.2619874,-0.4265223,13.137039184570312,3.71142840385437,1.166096568107605,183.21444702148438,-80.24701690673828, -2.019667148590088
588,414886218,0.21849272,-0.83813494,-0.27111024,-0.41986963,8.043126106262207,6.550082206726074,6.8201775550842285,107.70152282714844,-24.344741821289062, -14.255536079406738
589,414902885,0.2222675,-0.83398414,-0.27783564,-0.4217527,3.3868658542633057,3.8587968349456787,7.629650592803955,43.45858383178711,19.073776245117188, -38.44395065307617
590,414919552,0.22225086,-0.8282702,-0.28075898,-0.43098474,3.229980945587158,-0.06107426807284355,4.684864521026611,-0.9418882131576538,64.24890899658203, -41.82142639160156
591,414936219,0.22855681,-0.8194523,-0.28312486,-0.44283238,6.117307662963867,-0.8373573422431946,1.5643067359924316,33.100921630859375,101.36247253417969, -29.898508071899414
592,414952886,0.23692793,-0.8077254,-0.28558946,-0.45813107,7.313370704650879,2.5826563835144043,1.3681180477142334,42.883949279785156,133.506591796875, -35.250362396240234
593,414969553,0.23801368,-0.79525167,-0.28537887,-0.47904468,8.679520606994629,4.19327974319458,2.3096911907196045,-15.805368423461914,157.06912231445312, -53.929595947265625
594,414986220,0.23195495,-0.78180957,-0.28292257,-0.5049022,9.371869087219238,1.5164114236831665,1.5433284044265747,-70.37455749511719,176.91259765625, -75.14608001708984
595,415002887,0.22576992,-0.7660616,-0.27922648,-0.5331142,9.11782169342041,-0.7453712224960327,-0.032444149255752563,-76.25898742675781,199.27503967285156, -77.1594009399414
596,415019554,0.22156271,-0.7479443,-0.2739221,-0.5625448,9.700549125671387,-0.6025555729866028,-0.7102371454238892,-70.40335845947266,220.6616973876953, -67.89749908447266
597,415036221,0.21758108,-0.727866,-0.26663622,-0.59310657,10.815906524658203,0.048574499785900116,-1.130348563194275,-76.05992126464844,237.50840759277344, -62.2708625793457
598,415052888,0.21345624,-0.7061705,-0.25733975,-0.6241286,10.81951904296875,-0.381165474653244,-1.4890960454940796,-83.40692901611328,249.1587677001953, -56.461978912353516
599,415069555,0.21157447,-0.68194443,-0.24811542,-0.6546964,11.643473625183105,-0.6573725342750549,-2.088357448577881,-67.6922607421875,261.6907958984375, -51.017887115478516
600,415086222,0.21189441,-0.6548216,-0.24059927,-0.6844136,13.320759773254395,0.38964587450027466,-2.2645316123962402,-44.01768112182617,272.0430603027344, -52.84253692626953
601,415102889,0.21236596,-0.6253581,-0.23402786,-0.7134841,14.59951400756836,1.762149453163147,-2.0463976860046387,-34.41248321533203,279.06170654296875, -59.32505798339844
602,415119556,0.21139239,-0.59405506,-0.22793204,-0.7419294,15.288244247436523,3.419917106628418,-2.857877254486084,-34.60636901855469,282.4273986816406, -70.5088882446289
603,415136223,0.20547391,-0.5632459,-0.2205108,-0.76935697,16.628515243530273,4.579998016357422,-4.921178817749023,-60.70526123046875,269.988037109375, -88.06151580810547
604,415152890,0.19171159,-0.5359068,-0.20636769,-0.79590434,16.602977752685547,6.707947731018066,-6.3831353187561035,-130.24591064453125,245.9196319580078, -97.01024627685547
605,415169557,0.1681713,-0.51528454,-0.1785861,-0.82116264,13.55654239654541,5.900651454925537,-8.713641166687012,-248.0209503173828,208.63722229003906, -89.02274322509766
606,415186224,0.1437222,-0.4986094,-0.15062663,-0.841454,12.541927337646484,3.9827754497528076,-12.639772415161133,-250.73709106445312,167.9468231201172, -82.91358184814453
607,415202891,0.12135804,-0.48528534,-0.12586306,-0.8566968,13.204530715942383,2.179016351699829,-13.213362693786621,-223.1960906982422,130.38851928710938, -73.33125305175781
608,415219558,0.10373239,-0.47525713,-0.107560925,-0.86706495,11.34524917602539,0.037903934717178345,-12.402807235717773,-167.8626708984375,93.57121276855469, -60.04991149902344
609,415236225,0.091261595,-0.47004262,-0.0975007,-0.8724824,10.443035125732422,1.1302093267440796,-12.796144485473633,-101.6592788696289,46.776580810546875, -49.16291809082031
610,415252892,0.08055052,-0.4711147,-0.08914388,-0.87385154,10.352275848388672,1.6458253860473633,-13.166254997253418,-87.00679779052734,-3.756580114364624, -37.35295104980469
611,415269559,0.07435826,-0.47711614,-0.08684406,-0.87137246,9.687050819396973,-0.0733109712600708,-12.413287162780762,-36.371246337890625,-46.269630432128906, -24.66083526611328
612,415286226,0.0747876,-0.4855218,-0.09624291,-0.86568666,10.264769554138184,-1.518977403640747,-7.739614963531494,56.11469268798828,-73.07881927490234, -20.307931900024414
613,415302893,0.08181384,-0.4944527,-0.112110704,-0.8580528,13.07950210571289,-3.221250057220459,7.745968341827393,117.66808319091797,-81.569091796875, -1.3354018926620483
614,415319560,0.08107402,-0.50273764,-0.11792087,-0.85251224,11.935681343078613,3.074103832244873,13.202832221984863,30.704811096191406,-70.99491119384766, -14.695158958435059
615,415336227,0.07665696,-0.51501614,-0.113915525,-0.8461122,12.062637329101562,-3.6518304347991943,-6.29241418838501,-41.05789566040039,-94.9746322631836, 1.411204218864441
616,415352894,0.07472805,-0.53037465,-0.10914729,-0.83738035,18.664684295654297,1.8933355808258057,-3.0443131923675537,-36.469581604003906,-118.70958709716797, 22.19210433959961
617,415369561,0.06349577,-0.5476628,-0.097198546,-0.8286053,11.907730102539062,2.198578119277954,2.2855966091156006,-112.70890808105469,-133.19085693359375, -3.699331760406494
618,415386228,0.05431057,-0.5627596,-0.08664446,-0.8202715,7.627419471740723,-3.1784286499023438,-0.32735008001327515,-96.3853759765625,-118.28694152832031, 1.0940275192260742
619,415402895,0.046027582,-0.57539296,-0.079181,-0.8127333,9.635791778564453,2.4605369567871094,0.6369401216506958,-75.00057220458984,-101.92897033691406, -7.555726051330566
620,415419562,0.0351423,-0.58603317,-0.070052266,-0.8064882,10.070347785949707,1.3206696510314941,0.4112611413002014,-94.67838287353516,-86.5694351196289, -16.966814041137695
621,415436229,0.027094724,-0.5947687,-0.064790845,-0.80082387,10.921653747558594,-2.104698419570923,-0.5823567509651184,-61.61595153808594,-73.23770904541016, -17.847881317138672
622,415452896,0.027126847,-0.6018367,-0.06958136,-0.79512,11.2035493850708,-2.7346973419189453,-0.572712779045105,27.105663299560547,-62.47995376586914, -15.228944778442383
623,415469563,0.03245609,-0.60777795,-0.08104975,-0.78929335,10.108089447021484,-0.13141989707946777,0.6596648693084717,85.80826568603516,-55.530479431152344, -14.472474098205566
624,415486230,0.036223624,-0.61329037,-0.09051453,-0.7838179,9.872376441955566,1.6951836347579956,1.351090669631958,68.30937194824219,-52.16520309448242, -14.92397403717041
625,415502897,0.036197007,-0.6187764,-0.09483106,-0.7789824,10.05339241027832,1.7359520196914673,1.2016334533691406,24.172119140625,-50.419124603271484, -13.843607902526855
626,415519564,0.03383676,-0.6242305,-0.09647932,-0.77452177,10.136000633239746,1.0341060161590576,0.8752018213272095,-0.28361204266548157,-49.52608871459961, -15.100850105285645
627,415536231,0.030797763,-0.6294211,-0.097580336,-0.77029806,10.52856159210205,1.1745762825012207,0.45732906460762024,-6.207601547241211,-47.442283630371094, -16.597013473510742
628,415552898,0.028242033,-0.634386,-0.09884113,-0.7661512,9.130284309387207,2.6141135692596436,0.727276086807251,-3.2751479148864746,-45.63327407836914, -14.896454811096191
629,415569565,0.02395277,-0.63923615,-0.09781972,-0.76238775,8.917007446289062,2.969287395477295,0.7783968448638916,-23.097991943359375,-44.10721206665039, -14.208266258239746
630,415586232,0.019216616,-0.6438051,-0.09569644,-0.758939,9.230083465576172,1.9542582035064697,0.5970658659934998,-31.00480079650879,-41.385536193847656, -11.92486572265625
631,415602899,0.015162641,-0.64832574,-0.094101205,-0.7553738,9.555099487304688,1.411584734916687,0.24462711811065674,-25.145177841186523,-41.286781311035156, -10.706072807312012
632,415619566,0.010803236,-0.6529856,-0.09186192,-0.7517014,10.4310302734375,1.3402012586593628,0.3230885863304138,-29.795907974243164,-42.629817962646484, -9.314457893371582
633,415636233,0.0064744446,-0.65798706,-0.08947497,-0.7476667,10.047115325927734,0.8337497115135193,0.38200005888938904,-30.21607780456543,-46.006324768066406, -8.246379852294922
634,415652900,0.003309255,-0.6634096,-0.08816171,-0.7430375,9.587872505187988,0.8632173538208008,0.3574179410934448,-19.082441329956055,-50.20864486694336, -6.838802337646484
635,415669567,0.0008883419,-0.66916496,-0.087618686,-0.7379303,9.266104698181152,1.1105293035507202,0.5053701400756836,-11.46676254272461,-53.673240661621094, -6.3406195640563965
636,415686234,-0.00014815177,-0.6752204,-0.08860586,-0.7322752,9.282537460327148,1.0700876712799072,0.20844657719135284,2.999826192855835,-56.91270065307617, -6.175075531005859
637,415702901,-0.00024074377,-0.6815293,-0.090569705,-0.7261649,9.663955688476562,1.686658501625061,0.0785374641418457,12.580644607543945,-59.7430419921875, -5.809037208557129
638,415719568,-0.0013899384,-0.6885499,-0.091778636,-0.7193569,9.31855297088623,2.5767030715942383,0.2730483412742615,4.299961090087891,-67.2426528930664, -7.104653358459473
639,415736235,-0.0032747195,-0.6956941,-0.092241496,-0.71238405,9.721693992614746,2.457732915878296,-0.5717602372169495,-2.7623379230499268,-69.1267318725586, -7.123255729675293
640,415752902,-0.005382024,-0.70261526,-0.09229443,-0.70553887,9.198266983032227,2.377826690673828,-0.5838268399238586,-5.917001247406006,-67.58635711669922, -6.381328582763672
641,415769569,-0.0075156586,-0.7094164,-0.09227289,-0.6986832,9.261639595031738,2.100040912628174,-0.8507910966873169,-6.399218559265137,-67.0909194946289, -6.216379165649414
642,415786236,-0.009265194,-0.7162662,-0.09247123,-0.6916116,9.872937202453613,1.4057296514511108,-1.1065553426742554,-3.324800491333008,-68.13557434082031, -5.418609142303467
643,415802903,-0.010957015,-0.72297347,-0.09281784,-0.68452513,10.089629173278809,1.5013490915298462,-1.261246681213379,-2.330883264541626,-67.49744415283203, -5.969252109527588
644,415819570,-0.012892514,-0.72961223,-0.0928401,-0.67740756,10.402588844299316,1.2556294202804565,-1.8240255117416382,-5.050419807434082,-67.52239990234375, -5.552411079406738
645,415836237,-0.014381984,-0.7359895,-0.093021505,-0.6704181,10.68212890625,1.121488332748413,-1.7762079238891602,-2.174025774002075,-65.37085723876953, -4.434893608093262
646,415852904,-0.014849433,-0.74228114,-0.09402176,-0.6632937,11.473140716552734,1.874470829963684,-1.8308769464492798,6.853120803833008,-64.934814453125, -3.9443001747131348
647,415869571,-0.013987511,-0.7480684,-0.09687176,-0.65636474,11.770687103271484,2.755605697631836,-0.013516612350940704,21.898290634155273,-60.601707458496094, -7.631992816925049
648,415886238,-0.010364983,-0.7546571,-0.10152173,-0.6481351,12.712455749511719,0.49910596013069153,-0.3563784956932068,45.17369842529297,-68.93041229248047, -4.021418571472168
649,415902905,-0.0044541056,-0.7620448,-0.1072429,-0.63856673,13.314985275268555,-1.4724398851394653,-0.3674473762512207,62.817447662353516,-77.79761505126953, 1.0548256635665894
650,415919572,0.0019808616,-0.7705354,-0.11298363,-0.62730134,13.00750732421875,-0.7636705636978149,-0.22076797485351562,66.93510437011719,-91.18232727050781, 3.96877121925354
651,415936239,0.0077385926,-0.7795916,-0.11709849,-0.6151957,14.371655464172363,-2.1510910987854004,-0.1325654685497284,56.98261260986328,-98.61736297607422, 10.077313423156738
652,415952906,0.016540179,-0.7895621,-0.1209242,-0.60141194,15.463067054748535,-1.487601399421692,1.368908166885376,73.37667846679688,-109.06580352783203, 25.280271530151367
653,415969573,0.026313446,-0.79992914,-0.1247725,-0.58639014,14.015729904174805,-0.8700168132781982,2.9536585807800293,79.73157501220703,-116.69572448730469, 29.607067108154297
654,415986240,0.040363107,-0.8096857,-0.13110068,-0.57060766,16.271587371826172,-1.3609119653701782,5.9437971115112305,114.0216064453125,-115.291259765625, 32.796669006347656
655,416002907,0.060460657,-0.81806016,-0.14113556,-0.5542594,15.614774703979492,-0.3752308785915375,7.322440147399902,163.13897705078125,-108.73412322998047, 34.77369689941406
656,416019574,0.08433822,-0.8245474,-0.15580429,-0.53733987,11.996849060058594,2.69089674949646,8.02865982055664,203.41770935058594,-103.16842651367188, 21.514848709106445
657,416036241,0.10756025,-0.82950586,-0.1752712,-0.5192603,8.022872924804688,1.5595513582229614,0.39196839928627014,219.58360290527344,-107.72590637207031, -9.038657188415527
658,416052908,0.13152212,-0.83206433,-0.1935465,-0.50290287,8.208044052124023,0.17641496658325195,-12.811027526855469,219.25486755371094,-87.59810638427734, -3.730774402618408
659,416069575,0.15292445,-0.835701,-0.2089948,-0.4842929,15.351905822753906,2.0722768306732178,-10.566546440124512,196.85052490234375,-104.96659088134766, 7.081778526306152
660,416086242,0.17542623,-0.83776355,-0.22584528,-0.46515867,16.10193634033203,0.5342391729354858,-8.21200180053711,210.2668914794922,-102.60310363769531, 1.0108145475387573
661,416102909,0.20110855,-0.8364348,-0.24709417,-0.4459568,12.667384147644043,4.146641254425049,-1.3189655542373657,246.88125610351562,-92.51944732666016, -19.31432342529297
662,416119576,0.21387888,-0.8349893,-0.26223522,-0.43391478,10.809054374694824,6.5847249031066895,7.374018669128418,141.88003540039062,-64.51458740234375, -33.81095886230469
663,416136243,0.2152139,-0.83339167,-0.26966298,-0.43176836,3.83659029006958,3.648324966430664,8.488747596740723,35.6290397644043,-16.65129852294922, -38.385868072509766
664,416152910,0.2167986,-0.82948583,-0.27413478,-0.43566334,2.7347769737243652,0.4936477541923523,5.552191734313965,20.515121459960938,29.558183670043945, -33.888206481933594
665,416169577,0.22078249,-0.8227255,-0.277387,-0.44433677,5.475217819213867,0.9849371910095215,4.815525054931641,25.789722442626953,71.64385986328125, -32.241695404052734
666,416186244,0.22340192,-0.81439465,-0.278429,-0.457527,6.367824077606201,1.3891592025756836,2.6923789978027344,5.087409496307373,102.67965698242188, -33.74449157714844
667,416202911,0.22354773,-0.8045734,-0.2772583,-0.47520176,8.067159652709961,1.435501217842102,1.0973976850509644,-22.01944351196289,131.09613037109375, -38.8612174987793
668,416219578,0.21913058,-0.7934084,-0.27422896,-0.4972767,9.588645935058594,2.3055434226989746,1.3391449451446533,-59.65605545043945,153.94976806640625, -52.80258560180664
669,416236245,0.21009515,-0.78076315,-0.26890963,-0.52340937,10.010432243347168,1.0036344528198242,0.4504441022872925,-98.09934997558594,175.84706115722656, -64.99528503417969
670,416252912,0.20131508,-0.76592505,-0.26185286,-0.55160224,9.701367378234863,-0.09309761971235275,-0.7487032413482666,-103.62482452392578,197.74911499023438, -61.78759765625
671,416269579,0.19332534,-0.7491666,-0.25293678,-0.58086,10.652902603149414,0.37193000316619873,-1.6709399223327637,-105.78156280517578,214.6249542236328, -53.95210647583008
672,416286246,0.18512021,-0.73108023,-0.24161318,-0.6106358,10.810400009155273,0.5311259627342224,-1.8276231288909912,-115.65068054199219,225.4258270263672, -45.42942810058594
673,416302913,0.17828637,-0.7111405,-0.22933063,-0.6402354,11.384572982788086,-0.08845482021570206,-1.94346022605896,-110.13894653320312,235.82952880859375, -37.726322174072266
674,416319580,0.17473033,-0.68887144,-0.21851945,-0.66871184,12.52875804901123,0.3225802183151245,-2.5344622135162354,-83.01079559326172,243.97372436523438, -32.814048767089844
675,416336247,0.17295083,-0.66468126,-0.20936006,-0.6960288,13.14162540435791,1.5807160139083862,-3.1162235736846924,-62.95799255371094,248.03318786621094, -33.98054504394531
676,416352914,0.17093308,-0.6388345,-0.20122357,-0.7226218,13.016267776489258,3.063972234725952,-3.007925033569336,-56.14711380004883,251.14808654785156, -41.3231315612793
677,416369581,0.16716067,-0.6117185,-0.19321167,-0.748684,13.232150077819824,3.6493513584136963,-3.1077003479003906,-61.02260971069336,252.6145782470703, -51.70946502685547
678,416386248,0.16036703,-0.58450073,-0.1844604,-0.77370304,14.332494735717773,3.702009916305542,-4.0650858879089355,-76.05229949951172,245.66043090820312, -63.073970794677734
679,416402915,0.15011175,-0.5583767,-0.17515995,-0.7968699,14.958257675170898,3.8936188220977783,-5.509771347045898,-91.7658920288086,228.70608520507812, -75.8428726196289
680,416419582,0.13602552,-0.5348676,-0.1624488,-0.8179393,12.47661304473877,4.794383525848389,-6.721142292022705,-125.37077331542969,205.35235595703125, -78.41757202148438
681,416436249,0.117590085,-0.5151555,-0.14396743,-0.83669674,11.769281387329102,4.394079208374023,-7.867480278015137,-174.83200073242188,176.16485595703125, -75.23375701904297
682,416452916,0.09763282,-0.49907607,-0.12352146,-0.852135,11.75776481628418,2.727269411087036,-8.962275505065918,-191.2240447998047,143.72340393066406, -70.73330688476562
683,416469583,0.07842441,-0.48644233,-0.1044789,-0.86389136,11.338767051696777,2.0292537212371826,-9.225174903869629,-179.6465606689453,110.73899841308594, -65.75401306152344
684,416486250,0.06168482,-0.47804862,-0.0881767,-0.8717168,10.420515060424805,0.36664652824401855,-9.844623565673828,-154.59828186035156,72.84756469726562, -55.0791130065918
