PacketCounter,SampleTimeFine,Quat_W,Quat_X,Quat_Y,Quat_Z,Acc_X,Acc_Y,Acc_Z,Gyr_X,Gyr_Y,Gyr_Z 
2,110624783,0.6627476,-0.26260456,-0.69022197,-0.12408886,9.665602684020996,-1.735964059829712,-0.8275718092918396,2.076504707336426,-2.4247794151306152, 0.8075875639915466
3,110641450,0.6630484,-0.26233137,-0.6900641,-0.12393888,9.6696138381958,-1.7224513292312622,-0.8687310814857483,2.0890421867370605,-2.3859894275665283, 0.5789045691490173
4,110658117,0.6632106,-0.26185676,-0.69015515,-0.12356748,9.661620140075684,-1.718453049659729,-0.843210756778717,2.7920982837677,-2.19739031791687, 0.5147064328193665
5,110674784,0.66332465,-0.26147345,-0.69024533,-0.12326203,9.67902946472168,-1.7151738405227661,-0.836458683013916,2.0474853515625,-1.9946528673171997, 0.6231505274772644
6,110691451,0.6632766,-0.26151612,-0.6902538,-0.12338225,9.650630950927734,-1.7563670873641968,-0.7947202920913696,-2.1107044219970703,-1.7830920219421387, 0.7040611505508423
7,110708118,0.6632565,-0.2615013,-0.69029075,-0.12331548,9.652864456176758,-1.7249774932861328,-0.8479762673377991,-2.690178394317627,-2.0188183784484863, 0.7430051565170288
8,110724785,0.6631994,-0.26144522,-0.69038624,-0.12320674,9.659501075744629,-1.7504276037216187,-0.8290154337882996,-1.5977587699890137,-2.086705207824707, 0.5423553586006165
9,110741452,0.66312414,-0.26140547,-0.6904933,-0.12309567,9.640909194946289,-1.7641308307647705,-0.8317164778709412,-0.7811233997344971,-2.2371160984039307, 0.3142998516559601
10,110758119,0.6630422,-0.26137486,-0.69060653,-0.12296701,9.651202201843262,-1.72442626953125,-0.816707968711853,-0.03037666343152523,-2.3077428340911865, 0.1480477899312973
11,110774786,0.6627134,-0.26215753,-0.6905032,-0.123651795,9.677115440368652,-1.7160767316818237,-0.6834872364997864,-5.737987995147705,-2.130080223083496, 0.35173285007476807
12,110791453,0.66234756,-0.26303577,-0.69036186,-0.12453333,9.641188621520996,-1.7287012338638306,-0.8060855865478516,-9.954263687133789,-1.9044458866119385, 0.29971349239349365
13,110808120,0.66197926,-0.26383016,-0.69026864,-0.12532541,9.6295166015625,-1.7713441848754883,-0.824551522731781,-8.665315628051758,-2.150237798690796, 0.1695753037929535
14,110824787,0.66166097,-0.26436496,-0.6902787,-0.12582318,9.642040252685547,-1.782217025756836,-0.8725709915161133,-5.636446475982666,-2.5671353340148926, -0.03968688100576401
15,110841454,0.6613629,-0.2648888,-0.6902803,-0.12627906,9.643963813781738,-1.760050654411316,-0.8742691874504089,-2.991666316986084,-2.6755542755126953, -0.21163778007030487
16,110858121,0.6611417,-0.26509395,-0.69038814,-0.1264161,9.657425880432129,-1.7428905963897705,-0.8768588900566101,-0.450015127658844,-2.803130865097046, -0.36847707629203796
17,110874788,0.6610426,-0.26484826,-0.6906355,-0.1260986,9.668800354003906,-1.7297171354293823,-0.8440489172935486,2.083932638168335,-2.802541494369507, -0.375264436006546
18,110891455,0.6609837,-0.2644758,-0.6909135,-0.12566541,9.695206642150879,-1.6779855489730835,-0.8602616786956787,2.7383246421813965,-2.716585874557495, -0.3744705319404602
19,110908122,0.66097504,-0.26397422,-0.6912152,-0.12510493,9.695066452026367,-1.6695880889892578,-0.8527560234069824,3.4261786937713623,-2.543661117553711, -0.22759445011615753
20,110924789,0.6609682,-0.2635437,-0.69147384,-0.124618426,9.691466331481934,-1.6694488525390625,-0.8272751569747925,4.615851402282715,-2.575895071029663, -0.22923369705677032
21,110941456,0.6609545,-0.2630793,-0.69175756,-0.12409631,9.66979694366455,-1.7056756019592285,-0.7867634296417236,5.015279769897461,-2.7756481170654297, -0.21359708905220032
22,110958123,0.6608062,-0.2629109,-0.69199973,-0.12389389,9.663833618164062,-1.7189104557037354,-0.7728765606880188,1.9421275854110718,-2.9601876735687256, -0.2971073091030121
23,110974790,0.6606175,-0.26296186,-0.6921624,-0.123882525,9.676973342895508,-1.719017505645752,-0.747835099697113,-0.486013799905777,-2.6112916469573975, 0.013875679112970829
24,110991457,0.6602524,-0.2634538,-0.69226074,-0.12423369,9.643075942993164,-1.6782835721969604,-0.786672830581665,-4.6079301834106445,-2.935817241668701, 0.424588143825531
25,111008124,0.65986615,-0.26416403,-0.6922765,-0.124688715,9.674372673034668,-1.6279942989349365,-0.7866082191467285,-5.711670875549316,-2.7579500675201416, 1.0947061777114868
26,111024791,0.6594842,-0.26481888,-0.69232565,-0.12504786,9.75809383392334,-1.6440553665161133,-0.8138625025749207,-4.493851184844971,-3.111661434173584, 1.2206438779830933
27,111041458,0.6591768,-0.2651093,-0.6924907,-0.12513877,9.718555450439453,-1.7432446479797363,-0.8684411644935608,-2.7158169746398926,-3.2044174671173096, 0.7426978349685669
28,111058125,0.6589865,-0.26504007,-0.6927292,-0.124967806,9.618639945983887,-1.8158808946609497,-0.8733552694320679,0.47799062728881836,-3.1110851764678955, 0.14776606857776642
29,111074792,0.65879714,-0.26501778,-0.6929368,-0.12486355,9.532929420471191,-1.8027822971343994,-0.8848997950553894,1.0998284816741943,-3.055223226547241, -0.07834924012422562
30,111091459,0.65857387,-0.26508787,-0.6931191,-0.12487981,9.598047256469727,-1.785810112953186,-0.8709142208099365,0.011045476421713829,-2.911203622817993, -0.23722483217716217
31,111108126,0.6583505,-0.26520753,-0.6932648,-0.12499419,9.63867473602295,-1.7569892406463623,-0.8622481822967529,-0.6716675162315369,-2.5906734466552734, -0.42794981598854065
32,111124793,0.65818125,-0.26515406,-0.69344544,-0.124996714,9.667458534240723,-1.702370524406433,-0.8787604570388794,-0.5336534380912781,-2.2934508323669434, -0.646554172039032
33,111141460,0.6580163,-0.26513842,-0.69359714,-0.12505609,9.693412780761719,-1.669977068901062,-0.8290035724639893,0.22372053563594818,-2.2681071758270264, -0.7832492589950562
34,111158127,0.65775776,-0.26537734,-0.69369924,-0.12534429,9.70939826965332,-1.6634712219238281,-0.7621398568153381,-2.478015899658203,-2.254762887954712, -0.5448973774909973
35,111174794,0.65740776,-0.26587808,-0.6937445,-0.1258676,9.686421394348145,-1.6476596593856812,-0.8113592863082886,-5.162342548370361,-2.2330944538116455, -0.2937905192375183
36,111191461,0.6571437,-0.26618323,-0.6938386,-0.12608252,9.700156211853027,-1.6511033773422241,-0.8417701125144958,-4.140332221984863,-2.175107717514038, 0.3390161395072937
37,111208128,0.6569116,-0.26657537,-0.6938592,-0.12635043,9.7342529296875,-1.6124346256256104,-0.8262258768081665,-2.6138527393341064,-2.055291175842285, 0.46204671263694763
38,111224795,0.6567554,-0.26674783,-0.6939406,-0.12635057,9.683669090270996,-1.7043238878250122,-0.8327826261520386,-1.196266770362854,-2.086116075515747, 0.7217466831207275
39,111241462,0.65666646,-0.26682508,-0.69401073,-0.12626508,9.672863006591797,-1.697885513305664,-0.864327073097229,0.5522290468215942,-1.9300450086593628, 0.6417710185050964
40,111258129,0.6566121,-0.2668454,-0.6940789,-0.1261302,9.677141189575195,-1.7202147245407104,-0.8313277959823608,0.9059532284736633,-1.7505639791488647, 0.645267128944397
41,111274796,0.656553,-0.26681295,-0.6941774,-0.12596378,9.657487869262695,-1.7103289365768433,-0.8401483297348022,-0.0625206008553505,-1.6784899234771729, 0.6160942912101746
42,111291463,0.6564106,-0.26699987,-0.6942329,-0.12600425,9.607726097106934,-1.738593578338623,-0.7799781560897827,-1.6778879165649414,-1.7869853973388672, 0.6700218319892883
43,111308130,0.6562248,-0.2671595,-0.6943404,-0.12604092,9.635565757751465,-1.7427245378494263,-0.7940355539321899,-1.8674603700637817,-2.1724181175231934, 0.43941789865493774
44,111324797,0.65605414,-0.26728484,-0.6944478,-0.12607121,9.667317390441895,-1.772529125213623,-0.8035345673561096,-0.31521549820899963,-2.331857204437256, 0.15653841197490692
45,111341464,0.6559656,-0.26712036,-0.69464034,-0.1258208,9.680717468261719,-1.7479413747787476,-0.8035848736763,1.9272854328155518,-2.4824471473693848, 0.004757559392601252
46,111358131,0.6559235,-0.26686168,-0.694845,-0.12545855,9.700902938842773,-1.7437225580215454,-0.8005692362785339,3.6039693355560303,-2.556941509246826, -0.0010245080338791013
47,111374798,0.65580714,-0.26671413,-0.6950614,-0.12518188,9.67568588256836,-1.6876448392868042,-0.7603746652603149,2.023268938064575,-2.810276985168457, 0.11345785856246948
48,111391465,0.6554847,-0.2670827,-0.6951903,-0.12536934,9.611428260803223,-1.7262104749679565,-0.7226524949073792,-3.367480754852295,-2.9396591186523438, 0.5202515125274658
49,111408132,0.65488833,-0.26812503,-0.6951736,-0.1263492,9.607335090637207,-1.727342963218689,-0.6949254870414734,-10.03371524810791,-2.88046932220459, 0.10330246388912201
50,111424799,0.65427226,-0.26895496,-0.6952626,-0.1272838,9.630382537841797,-1.8222843408584595,-0.8167973756790161,-9.284708976745605,-3.2907848358154297, -0.8749812841415405
51,111441466,0.65378094,-0.2693167,-0.6954812,-0.12784813,9.662514686584473,-1.7899925708770752,-0.878805935382843,-4.941139221191406,-3.577300786972046, -1.6184157133102417
52,111458133,0.6533609,-0.2694427,-0.69575894,-0.12821774,9.64746379852295,-1.7140192985534668,-0.8442592620849609,-2.6439735889434814,-3.6684298515319824, -1.9461809396743774
53,111474800,0.65294826,-0.2695375,-0.6960523,-0.12852862,9.644200325012207,-1.6966274976730347,-0.8813951015472412,-1.5756806135177612,-3.8941428661346436, -1.930134892463684
54,111491467,0.6526302,-0.26940253,-0.6963936,-0.12857755,9.648193359375,-1.7437541484832764,-0.9012067317962646,0.02021482214331627,-3.772520065307617, -1.7531123161315918
55,111508134,0.65240324,-0.26906127,-0.6967631,-0.12844166,9.632173538208008,-1.7786335945129395,-0.904035210609436,2.4660098552703857,-3.6921348571777344, -1.9436453580856323
56,111524801,0.6522672,-0.26842672,-0.6972028,-0.12807484,9.65971565246582,-1.747479796409607,-0.8387017250061035,4.86625337600708,-3.6899325847625732, -2.3451120853424072
57,111541468,0.6521463,-0.26766783,-0.69768745,-0.12763858,9.673959732055664,-1.6974239349365234,-0.7833197712898254,6.415719985961914,-3.947737216949463, -2.7792727947235107
58,111558135,0.65204614,-0.2667216,-0.6982524,-0.1270402,9.693821907043457,-1.6790814399719238,-0.8314967751502991,7.553642749786377,-4.258036136627197, -3.0108635425567627
59,111574802,0.6519001,-0.26583162,-0.69883037,-0.12647595,9.682412147521973,-1.6553643941879272,-0.8263970017433167,7.4012322425842285,-4.589694023132324, -2.994560480117798
60,111591469,0.6517453,-0.2649399,-0.69941556,-0.12590799,9.661307334899902,-1.6672136783599854,-0.8338596224784851,7.157464504241943,-4.632686138153076, -2.9687819480895996
61,111608136,0.65148604,-0.26440623,-0.69990015,-0.12567902,9.666881561279297,-1.6460920572280884,-0.7830725908279419,4.6958136558532715,-4.566181659698486, -2.802375316619873
62,111624803,0.65110815,-0.26410455,-0.70037544,-0.12562455,9.648543357849121,-1.6211329698562622,-0.8290178775787354,2.666455030441284,-5.0070271492004395, -2.558900833129883
63,111641470,0.65075684,-0.2637534,-0.7008609,-0.12547438,9.717819213867188,-1.5682947635650635,-0.8482003808021545,3.7156920433044434,-5.117929935455322, -2.4013826847076416
64,111658137,0.65044695,-0.26333117,-0.70135164,-0.12522583,9.718789100646973,-1.5685348510742188,-0.8605199456214905,3.89119029045105,-4.948886394500732, -2.17879581451416
65,111674804,0.65010834,-0.26317534,-0.701733,-0.12517501,9.710102081298828,-1.5388299226760864,-0.8494511246681213,3.743290424346924,-4.841799259185791, -1.8644382953643799
66,111691471,0.6497848,-0.26303747,-0.7020971,-0.1251026,9.700475692749023,-1.5837688446044922,-0.861343502998352,2.573878049850464,-4.552235126495361, -1.4721797704696655
67,111708138,0.64946514,-0.26295856,-0.7024318,-0.12505004,9.681426048278809,-1.5857704877853394,-0.8566022515296936,2.643160581588745,-4.500753402709961, -1.2754356861114502
68,111724805,0.64919543,-0.262676,-0.7028308,-0.12480223,9.69137954711914,-1.587071180343628,-0.8564302325248718,2.5391345024108887,-4.379977226257324, -1.184126377105713
69,111741472,0.6488379,-0.2627803,-0.70309955,-0.12492762,9.707826614379883,-1.5783339738845825,-0.8672151565551758,-0.03026140294969082,-4.100874423980713, -0.9755620956420898
70,111758139,0.6485169,-0.2628159,-0.7033796,-0.12494347,9.736090660095215,-1.527758240699768,-0.896668553352356,-0.26313209533691406,-3.9319982528686523, -0.6554034948348999
71,111774806,0.6482219,-0.26304135,-0.7035487,-0.12504767,9.723393440246582,-1.5074853897094727,-0.9251137375831604,0.43524298071861267,-3.6640119552612305, -0.16883890330791473
72,111791473,0.6480061,-0.2632081,-0.70367956,-0.12508033,9.723447799682617,-1.5302306413650513,-0.8862288594245911,-0.2634906470775604,-2.9558591842651367, 0.20137344300746918
73,111808140,0.64768225,-0.26389405,-0.70363736,-0.12554863,9.659544944763184,-1.5593971014022827,-0.8761401176452637,-2.661569833755493,-2.777313470840454, 0.6889113187789917
74,111824807,0.6473191,-0.26456293,-0.7036385,-0.12600571,9.675032615661621,-1.6077178716659546,-0.81918865442276,-4.433481693267822,-2.8651649951934814, 0.7942434549331665
75,111841474,0.6469636,-0.2652536,-0.7036089,-0.1265433,9.651408195495605,-1.6464287042617798,-0.9138502478599548,-4.34062385559082,-2.684314012527466, 0.5225823521614075
76,111858141,0.64673805,-0.26552942,-0.70368326,-0.12670484,9.683289527893066,-1.6515051126480103,-0.9309602379798889,-1.6219370365142822,-2.636622428894043, 0.27395984530448914
77,111874808,0.64657307,-0.26567343,-0.703779,-0.12671277,9.687271118164062,-1.6083619594573975,-0.9217497110366821,0.7304677963256836,-2.7642247676849365, 0.20851938426494598
78,111891475,0.64646506,-0.26573154,-0.7038787,-0.12658794,9.689596176147461,-1.5782549381256104,-0.8831813335418701,1.3354780673980713,-2.5953986644744873, 0.49937716126441956
79,111908142,0.6461927,-0.26625708,-0.7038714,-0.12691434,9.661643981933594,-1.5740801095962524,-0.84156334400177,-2.794550895690918,-2.60066294670105, 0.7381261587142944
80,111924809,0.64592844,-0.2668327,-0.7038305,-0.12727797,9.703186988830566,-1.5304741859436035,-0.9085046648979187,-3.600799798965454,-2.3391950130462646, 0.9368805289268494
81,111941476,0.6457571,-0.267229,-0.70379674,-0.12750179,9.73423957824707,-1.5312143564224243,-0.9068612456321716,-2.3764102458953857,-1.964071273803711, 0.8268868327140808
82,111958143,0.6456888,-0.26735935,-0.70382154,-0.1274378,9.71487045288086,-1.5784469842910767,-0.899299144744873,-0.13632360100746155,-1.9377546310424805, 0.8885238170623779
83,111974810,0.6456986,-0.26746485,-0.70379573,-0.12730852,9.700260162353516,-1.5980368852615356,-0.903082013130188,1.751402735710144,-1.6774781942367554, 1.0296626091003418
84,111991477,0.6457083,-0.26764435,-0.70372856,-0.12725371,9.70190143585205,-1.5577208995819092,-0.8156163692474365,0.5541883707046509,-1.3557697534561157, 1.202061414718628
85,112008144,0.6455668,-0.26821277,-0.70357007,-0.12765098,9.639509201049805,-1.6133955717086792,-0.8028357028961182,-4.8619818687438965,-1.018642544746399, 1.2795655727386475
86,112024811,0.64541715,-0.2687984,-0.7034077,-0.12806936,9.665838241577148,-1.6645325422286987,-0.8454379439353943,-4.240157604217529,-1.1789911985397339, 1.1506826877593994
87,112041478,0.645206,-0.26933324,-0.70331645,-0.12851104,9.659395217895508,-1.6353133916854858,-0.8550546765327454,-4.742422103881836,-1.6285321712493896, 0.6909986138343811
88,112058145,0.645052,-0.26970017,-0.7032687,-0.12877516,9.680098533630371,-1.6187901496887207,-0.894083559513092,-3.155381917953491,-1.714385986328125, 0.6549999117851257
89,112074812,0.64494103,-0.26996434,-0.7032452,-0.12890519,9.683389663696289,-1.605689287185669,-0.8685498237609863,-1.3525300025939941,-1.8865033388137817, 0.6564471125602722
90,112091479,0.6448979,-0.27004337,-0.7032632,-0.12885728,9.675854682922363,-1.6011525392532349,-0.8442243933677673,0.5441737771034241,-1.934860110282898, 0.5309320092201233
91,112108146,0.6448832,-0.26992735,-0.70336515,-0.12861718,9.688547134399414,-1.6414073705673218,-0.823040783405304,0.6988873481750488,-2.0730791091918945, 0.5634986758232117
92,112124813,0.64465207,-0.2703012,-0.70338124,-0.1289025,9.657782554626465,-1.6279335021972656,-0.7748332023620605,-3.183774471282959,-2.4406986236572266, 0.38273701071739197
93,112141480,0.6443748,-0.27074158,-0.70339614,-0.12928306,9.660283088684082,-1.6637660264968872,-0.833856463432312,-4.041992664337158,-2.5633962154388428, 0.24387778341770172
94,112158147,0.6441593,-0.27100375,-0.7034559,-0.12948258,9.672423362731934,-1.6346468925476074,-0.8929793834686279,-2.182445526123047,-2.6683692932128906, 0.14625491201877594
95,112174814,0.6440389,-0.27105993,-0.70355076,-0.12944798,9.697169303894043,-1.6068161725997925,-0.8909198641777039,-0.1946052759885788,-2.5880606174468994, 0.24380087852478027
96,112191481,0.64399153,-0.2709596,-0.7036694,-0.1292486,9.69532299041748,-1.6194186210632324,-0.8648753762245178,1.3366179466247559,-2.505549669265747, 0.2602314352989197
97,112208148,0.644,-0.2707771,-0.7037837,-0.12896655,9.688405990600586,-1.6411824226379395,-0.8736175894737244,2.654916286468506,-2.3913936614990234, 0.21788081526756287
98,112224815,0.6440143,-0.27064663,-0.70385253,-0.1287928,9.685455322265625,-1.6001856327056885,-0.8433657884597778,1.8489104509353638,-2.0212135314941406, 0.08372151106595993
99,112241482,0.64403987,-0.27052864,-0.70390314,-0.12863599,9.691951751708984,-1.5972797870635986,-0.8433021903038025,1.9286555051803589,-1.920081615447998, 0.08245368301868439
100,112258149,0.64411217,-0.27028304,-0.7039821,-0.12835813,9.696492195129395,-1.5876083374023438,-0.8716241717338562,2.893524408340454,-1.9024089574813843, 0.03836142271757126
101,112274816,0.64424664,-0.26987982,-0.7040937,-0.12791899,9.690635681152344,-1.6156398057937622,-0.8438913226127625,4.285152435302734,-1.8858760595321655, 0.02138020284473896
102,112291483,0.64441687,-0.26937684,-0.70422715,-0.127386,9.689523696899414,-1.6280713081359863,-0.8171764612197876,5.567976951599121,-1.9674782752990723, -0.095163993537426
103,112308150,0.64446515,-0.26910612,-0.7043358,-0.12711315,9.666000366210938,-1.5965651273727417,-0.7570948600769043,2.7204463481903076,-2.139646530151367, -0.13368548452854156
104,112324817,0.6443687,-0.26914236,-0.70440876,-0.12712096,9.702444076538086,-1.6070057153701782,-0.8184922337532043,-0.5011764764785767,-2.4218857288360596, 0.08434902876615524
105,112341484,0.6442926,-0.26918134,-0.7044601,-0.12714006,9.716113090515137,-1.623108148574829,-0.8639547824859619,-0.20162317156791687,-2.2913248538970947, 0.0532936230301857
106,112358151,0.6442845,-0.2690825,-0.7045289,-0.12700862,9.7177152633667,-1.6011056900024414,-0.8541005253791809,0.9427459239959717,-2.1586127281188965, 0.13364067673683167
107,112374818,0.6443213,-0.26893556,-0.7045925,-0.12677962,9.67594051361084,-1.613224983215332,-0.7971595525741577,1.6975265741348267,-2.073732376098633, 0.38232719898223877
108,112391485,0.6443422,-0.26880807,-0.7046579,-0.12658066,9.649971961975098,-1.660663366317749,-0.7929478883743286,1.7252395153045654,-2.1920886039733887, 0.2839359939098358
109,112408152,0.6443978,-0.26858523,-0.70473915,-0.12631819,9.648036003112793,-1.6977869272232056,-0.7692613005638123,2.6936943531036377,-2.1792056560516357, 0.07789462804794312
110,112424819,0.64446104,-0.26819682,-0.7048975,-0.12593701,9.648569107055664,-1.6842072010040283,-0.7371009588241577,3.6359338760375977,-2.5084946155548096, -0.2695736289024353
111,112441486,0.6444736,-0.26780272,-0.7050946,-0.12560806,9.638153076171875,-1.680181622505188,-0.7556954622268677,3.263115882873535,-2.8365554809570312, -0.6350669264793396
112,112458153,0.64445555,-0.26725218,-0.70539534,-0.12518361,9.631996154785156,-1.6595654487609863,-0.764399528503418,3.7402546405792236,-3.38885498046875, -1.082802653312683
113,112474820,0.6443768,-0.26675165,-0.7057119,-0.12487144,9.6415433883667,-1.6694095134735107,-0.7400434017181396,3.9545183181762695,-3.798184633255005, -1.5838896036148071
114,112491487,0.64426345,-0.2662146,-0.7060637,-0.12461361,9.65827465057373,-1.6536751985549927,-0.7823509573936462,3.657819986343384,-3.9928531646728516, -2.0675339698791504
115,112508154,0.6439996,-0.26593858,-0.7064024,-0.124647275,9.640897750854492,-1.6073757410049438,-0.7147697806358337,0.9169409275054932,-4.399531364440918, -2.2178804874420166
116,112524821,0.64352405,-0.26599085,-0.70675,-0.12502095,9.625259399414062,-1.607996940612793,-0.7098537087440491,-2.7938337326049805,-5.116675853729248, -2.2922215461730957
117,112541488,0.6429233,-0.2662483,-0.7070958,-0.12560758,9.642626762390137,-1.6218525171279907,-0.8147167563438416,-4.568857669830322,-5.6012420654296875, -2.404738426208496
118,112558155,0.6424092,-0.26630777,-0.707475,-0.12597549,9.687759399414062,-1.6174123287200928,-0.8437570929527283,-2.0724520683288574,-5.640622138977051, -2.446640729904175
119,112574822,0.6419713,-0.26628283,-0.70784336,-0.12619111,9.74759292602539,-1.5180057287216187,-0.8759755492210388,0.027335157617926598,-5.5929436683654785, -2.2373595237731934
120,112591489,0.6416171,-0.26620576,-0.7081792,-0.12627017,9.794624328613281,-1.4094913005828857,-0.8697119951248169,0.5310600996017456,-5.182255744934082, -1.6686545610427856
121,112608156,0.64131707,-0.26631606,-0.7083871,-0.12639555,9.800799369812012,-1.3813434839248657,-0.9070374369621277,-0.32780420780181885,-4.486667156219482, -0.6997262835502625
122,112624823,0.64106256,-0.26666206,-0.7084601,-0.12654875,9.803512573242188,-1.3400275707244873,-0.8912187814712524,-1.8847235441207886,-3.786748170852661, 0.6819445490837097
123,112641490,0.6409196,-0.26709574,-0.70841926,-0.1265864,9.81661319732666,-1.383537769317627,-0.8974984884262085,-1.4810289144515991,-3.0722179412841797, 1.9241095781326294
124,112658157,0.6409279,-0.26742327,-0.70832276,-0.12639302,9.772191047668457,-1.4844695329666138,-0.9067736864089966,-0.00457186670973897,-2.387103796005249, 2.7291038036346436
125,112674824,0.6410766,-0.26759717,-0.7081867,-0.12603326,9.72620677947998,-1.5551904439926147,-0.9113813638687134,1.873383641242981,-1.749808669090271, 2.886340379714966
126,112691491,0.64133084,-0.26765904,-0.708015,-0.12557276,9.696550369262695,-1.5908821821212769,-0.8838925957679749,2.730333089828491,-1.13998281955719, 2.9972429275512695
127,112708158,0.64159393,-0.26776892,-0.7077989,-0.12521115,9.69433879852295,-1.599907636642456,-0.8214908242225647,1.9028249979019165,-0.7631559371948242, 2.9048449993133545
128,112724825,0.64169407,-0.26821315,-0.70753145,-0.1252588,9.679492950439453,-1.56549072265625,-0.7946352958679199,-2.02656626701355,-0.869512677192688, 2.7001867294311523
129,112741492,0.64171773,-0.26874632,-0.7072813,-0.12540762,9.615622520446777,-1.699251413345337,-0.8134462237358093,-2.6565752029418945,-1.2991148233413696, 2.529491424560547
130,112758159,0.641704,-0.26918787,-0.70709085,-0.12560481,9.592575073242188,-1.7407351732254028,-0.7874424457550049,-2.782973527908325,-1.5537177324295044, 1.7642605304718018
131,112774826,0.6416861,-0.26937893,-0.7070225,-0.12567076,9.559206008911133,-1.849709391593933,-0.8086385726928711,-1.209009051322937,-2.1192586421966553, 0.9297985434532166
132,112791493,0.64166844,-0.2692984,-0.7070812,-0.12560456,9.586618423461914,-1.7706716060638428,-0.7839720845222473,0.803835391998291,-2.7233471870422363, -0.06906464695930481
133,112808160,0.6416137,-0.26907805,-0.707231,-0.12551144,9.623443603515625,-1.722900629043579,-0.7835168242454529,1.3103777170181274,-3.2170701026916504, -0.8014340996742249
134,112824827,0.6414991,-0.26886386,-0.7074154,-0.1255177,9.671150207519531,-1.6774901151657104,-0.8271614909172058,0.9795130491256714,-3.5527381896972656, -1.3705357313156128
135,112841494,0.64135915,-0.26861084,-0.70763516,-0.1255357,9.693840026855469,-1.6481304168701172,-0.8305065035820007,1.5178920030593872,-3.8735241889953613, -1.7755876779556274
136,112858161,0.641252,-0.2682158,-0.70789814,-0.1254462,9.703838348388672,-1.6314237117767334,-0.8412160873413086,2.470210552215576,-3.953794240951538, -1.996292233467102
137,112874828,0.641169,-0.2677377,-0.70817894,-0.12530626,9.666947364807129,-1.6456847190856934,-0.8421809673309326,3.2513272762298584,-3.976691961288452, -2.205676317214966
138,112891495,0.6410267,-0.26742047,-0.7084224,-0.1253349,9.686627388000488,-1.5937724113464355,-0.8141546249389648,1.3808128833770752,-3.918461561203003, -2.1152379512786865
139,112908162,0.64073867,-0.26758793,-0.7085348,-0.12581395,9.702167510986328,-1.5349863767623901,-0.8083919286727905,-3.0938098430633545,-3.7019195556640625, -1.6654404401779175
140,112924829,0.6404646,-0.2678391,-0.70860493,-0.12627986,9.694101333618164,-1.500521183013916,-0.8494802713394165,-3.390212059020996,-3.5730738639831543, -1.1076468229293823
141,112941496,0.6402726,-0.26797038,-0.70868385,-0.12653072,9.704757690429688,-1.5026092529296875,-0.8585425019264221,-1.7313417196273804,-3.512807607650757, -0.6722949743270874
142,112958163,0.6400993,-0.2681627,-0.70872927,-0.12674592,9.702401161193848,-1.4957568645477295,-0.7974823713302612,-1.3919862508773804,-3.486541748046875, -0.20332641899585724
143,112974830,0.63995945,-0.2683054,-0.70878613,-0.12683247,9.695606231689453,-1.5555158853530884,-0.8512027859687805,-0.6208518743515015,-3.5684127807617188, 0.15781906247138977
144,112991497,0.63988847,-0.26827627,-0.7088877,-0.12668459,9.738785743713379,-1.5315672159194946,-0.8670592308044434,0.907899796962738,-3.6447513103485107, 0.4180825352668762
145,113008164,0.6398586,-0.26825204,-0.7089726,-0.12641157,9.743799209594727,-1.4650647640228271,-0.8658280968666077,1.9035038948059082,-3.6854116916656494, 1.0088649988174438
146,113024831,0.63985467,-0.26836157,-0.7089797,-0.12615868,9.778926849365234,-1.428493857383728,-0.8769861459732056,1.3054347038269043,-3.3351070880889893, 1.7271863222122192
147,113041498,0.6398649,-0.268696,-0.70886177,-0.12605758,9.728974342346191,-1.465402603149414,-0.8818727135658264,-0.7406296730041504,-2.6125214099884033, 2.451897382736206
148,113058165,0.6399073,-0.269083,-0.70869476,-0.12595575,9.696805953979492,-1.5504916906356812,-0.8386592864990234,-0.8863275051116943,-2.317488431930542, 2.8214759826660156
149,113074832,0.63998723,-0.26941058,-0.7085241,-0.1258092,9.665905952453613,-1.6419867277145386,-0.8558429479598999,-0.4841312766075134,-2.1486363410949707, 2.8009729385375977
150,113091499,0.640014,-0.26979184,-0.708364,-0.12575717,9.610751152038574,-1.666473627090454,-0.8391233682632446,-1.3835725784301758,-2.3273494243621826, 2.596212387084961
151,113108166,0.64005405,-0.2700453,-0.7082584,-0.12560451,9.604597091674805,-1.6976780891418457,-0.8149214386940002,-0.5472921133041382,-2.550525188446045, 2.3711276054382324
152,113124833,0.64004606,-0.27025163,-0.7082143,-0.12545007,9.643739700317383,-1.681092619895935,-0.8240523934364319,0.04288206622004509,-3.109471559524536, 1.918743371963501
153,113141500,0.6400152,-0.2703597,-0.7082436,-0.12520914,9.655854225158691,-1.6675559282302856,-0.8335133194923401,1.11281418800354,-3.676715612411499, 1.6291917562484741
154,113158167,0.6399764,-0.27030382,-0.70836157,-0.124860495,9.666694641113281,-1.6544972658157349,-0.8343033194541931,1.8229262828826904,-4.082664966583252, 1.2312986850738525
155,113174834,0.6399154,-0.2702744,-0.70847774,-0.12457684,9.658912658691406,-1.6631557941436768,-0.811735212802887,1.6889336109161377,-4.164215087890625, 1.0010660886764526
156,113191501,0.6397148,-0.27044064,-0.7086077,-0.12450779,9.637118339538574,-1.674480676651001,-0.7760336995124817,-0.26872846484184265,-4.7302565574646, 0.8309208750724792
157,113208168,0.6392999,-0.2709477,-0.7087293,-0.12484398,9.635507583618164,-1.6959280967712402,-0.7489367723464966,-4.502188205718994,-5.239053249359131, 0.5967055559158325
158,113224835,0.63858926,-0.27192202,-0.7088235,-0.1258236,9.601059913635254,-1.6952238082885742,-0.822763979434967,-10.12266731262207,-5.813085556030273, -0.1890474110841751
159,113241502,0.6379977,-0.27256247,-0.7089776,-0.12656823,9.660988807678223,-1.703847885131836,-0.9186543226242065,-6.850220203399658,-5.735030651092529, -0.8679249286651611
160,113258169,0.6375389,-0.27284545,-0.7092151,-0.12693897,9.670183181762695,-1.6515052318572998,-0.9659140706062317,-3.0398693084716797,-5.877359390258789, -1.035252571105957
161,113274836,0.63718545,-0.27291304,-0.70948666,-0.12705077,9.692512512207031,-1.6077940464019775,-0.9494284987449646,-0.39785489439964294,-5.859879016876221, -0.9619362354278564
162,113291503,0.63691944,-0.27290422,-0.7097353,-0.12701437,9.705976486206055,-1.581363320350647,-0.9574865102767944,1.3776495456695557,-5.659574031829834, -0.660321056842804
163,113308170,0.63665354,-0.27291813,-0.7099731,-0.12698983,9.652761459350586,-1.5886166095733643,-0.8604780435562134,1.2488688230514526,-5.6308112144470215, -0.5835341811180115
164,113324837,0.6361471,-0.2733065,-0.71017057,-0.12758656,9.576504707336426,-1.677477478981018,-0.761255145072937,-4.606624603271484,-5.691579341888428, -1.4911589622497559
165,113341504,0.63559425,-0.2737074,-0.7103698,-0.1283708,9.62863540649414,-1.794256567955017,-0.9779021739959717,-4.863801002502441,-5.747042179107666, -2.436049699783325
166,113358171,0.63520676,-0.2736909,-0.71064806,-0.12878323,9.69408893585205,-1.8244227170944214,-1.1194558143615723,-1.1150490045547485,-5.583441257476807, -2.8195486068725586
167,113374838,0.6349023,-0.2733088,-0.7110397,-0.12893431,9.56948471069336,-2.055241107940674,-1.0327857732772827,2.9611551761627197,-6.006524562835693, -3.781229019165039
168,113391505,0.63458115,-0.27260652,-0.711616,-0.12882355,9.490198135375977,-1.771479606628418,-0.8874908685684204,5.379929542541504,-7.04622220993042, -4.5257391929626465
169,113408172,0.6341344,-0.2719269,-0.71226555,-0.12886986,9.568096160888672,-1.778108835220337,-0.8244005441665649,4.56561279296875,-7.760189533233643, -5.402706146240234
170,113424839,0.6335111,-0.2710147,-0.71309054,-0.1292936,9.42762565612793,-2.082895278930664,-0.8267483115196228,3.1064956188201904,-8.424444198608398, -8.608817100524902
171,113441506,0.63251036,-0.27006954,-0.7141784,-0.13016249,9.37088680267334,-2.2249746322631836,-0.7991077303886414,1.105361819267273,-10.66284465789795, -11.6537504196167
172,113458173,0.6310176,-0.26899594,-0.71565807,-0.13149752,9.35731315612793,-2.0797312259674072,-0.7578233480453491,-1.9438915252685547,-13.699971199035645, -15.399044036865234
173,113474840,0.6291497,-0.2679691,-0.7174012,-0.1330364,9.462004661560059,-1.4630788564682007,-0.8013293743133545,-1.9123119115829468,-16.634288787841797, -17.220487594604492
174,113491507,0.62690425,-0.2674782,-0.71914685,-0.13518386,9.63761043548584,-0.9725244045257568,-0.9040612578392029,-8.204190254211426,-17.846128463745117, -17.523584365844727
175,113508174,0.62428695,-0.2680459,-0.7206749,-0.13800387,9.84841537475586,-0.9479191303253174,-1.2532994747161865,-16.849515914916992,-18.524925231933594, -15.139249801635742
176,113524841,0.62189955,-0.2686189,-0.72206044,-0.1404052,9.978226661682129,-0.6969720125198364,-1.345235824584961,-15.679533004760742,-17.38900375366211, -12.596305847167969
177,113541508,0.6197672,-0.26920518,-0.7233244,-0.14219366,9.949945449829102,-0.6655884981155396,-1.373242735862732,-11.926613807678223,-16.80645751953125, -9.491507530212402
178,113558175,0.6178803,-0.26995406,-0.7243819,-0.14359537,9.922171592712402,-0.44918292760849,-1.4361257553100586,-10.651618957519531,-15.556649208068848, -6.3460540771484375
179,113574842,0.61633927,-0.27074182,-0.72524357,-0.14438319,9.944069862365723,-0.6339997053146362,-1.3970378637313843,-7.390934944152832,-14.173081398010254, -2.785242795944214
180,113591509,0.6151456,-0.2715331,-0.72589195,-0.14472951,9.911426544189453,-0.5040399432182312,-1.504846215248108,-4.595778942108154,-12.395196914672852, -0.16275599598884583
181,113608176,0.6142096,-0.27224594,-0.72643036,-0.14466472,9.894946098327637,-0.5451401472091675,-1.3407270908355713,-2.051193952560425,-11.31365966796875, 1.7265464067459106
182,113624843,0.61325544,-0.27308002,-0.72697395,-0.14440937,9.773951530456543,-0.8076943755149841,-1.219965934753418,-1.557034969329834,-11.932514190673828, 3.126012086868286
183,113641510,0.61225754,-0.27387333,-0.72766626,-0.14365277,9.59248161315918,-1.334092378616333,-1.2633768320083618,1.2015373706817627,-13.70705509185791, 4.727601528167725
184,113658177,0.6112934,-0.2744579,-0.72850245,-0.14239901,9.466812133789062,-1.341559648513794,-1.371974229812622,4.825507640838623,-14.905118942260742, 5.514335632324219
185,113674844,0.61034817,-0.27484635,-0.729424,-0.140981,9.43814754486084,-1.3467199802398682,-1.4195865392684937,6.561705589294434,-15.30141544342041, 5.075616359710693
186,113691511,0.6094056,-0.27525872,-0.7303008,-0.13970807,9.50848388671875,-1.3793120384216309,-1.575631856918335,5.733273029327393,-14.872231483459473, 4.655144214630127
187,113708178,0.60828596,-0.2760056,-0.73107255,-0.13907641,9.702152252197266,-1.0827884674072266,-1.5648484230041504,0.7021535634994507,-14.441143989562988, 3.6591804027557373
188,113724845,0.60706323,-0.27718827,-0.7316524,-0.13901766,9.735051155090332,-1.1965014934539795,-1.7124263048171997,-4.352023601531982,-13.503561973571777, 3.7169880867004395
189,113741512,0.60598826,-0.27827013,-0.73217773,-0.13878,9.690879821777344,-1.4087862968444824,-1.8278175592422485,-2.9656193256378174,-12.762866973876953, 4.238218784332275
190,113758179,0.60515183,-0.27898613,-0.73270047,-0.13823253,9.62282657623291,-1.7395151853561401,-1.969646692276001,0.5240553617477417,-11.790441513061523, 3.9195711612701416
191,113774846,0.6047178,-0.27929533,-0.7331411,-0.13716659,9.589705467224121,-1.5868979692459106,-1.912804365158081,5.646123886108398,-10.04383373260498, 4.511327266693115
192,113791513,0.60431075,-0.2799132,-0.733357,-0.13654646,9.759627342224121,-0.48642024397850037,-1.37180495262146,1.8432633876800537,-8.392746925354004, 4.68157434463501
193,113808180,0.6035017,-0.28128803,-0.73351854,-0.13643065,9.663263320922852,-0.8969841599464417,-1.578097939491272,-4.518197059631348,-9.986344337463379, 6.137093544006348
194,113824847,0.6026916,-0.28287023,-0.73365664,-0.13599704,9.654045104980469,-1.3245896100997925,-1.7563399076461792,-3.8915836811065674,-10.71030330657959, 8.586235046386719
195,113841514,0.6018529,-0.28442776,-0.73385483,-0.13539273,9.574581146240234,-1.5887025594711304,-1.644652247428894,-2.8879880905151367,-11.431929588317871, 9.010650634765625
196,113858181,0.6011052,-0.2858062,-0.73407495,-0.13461557,9.545079231262207,-1.4810553789138794,-1.8309022188186646,-1.0621978044509888,-11.256789207458496, 8.842220306396484
197,113874848,0.60029334,-0.28725353,-0.73423326,-0.13429397,9.631134986877441,-1.3567750453948975,-1.7603925466537476,-3.8367080688476562,-10.503121376037598, 7.3593974113464355
198,113891515,0.5991559,-0.28899387,-0.73441815,-0.13462818,9.54752254486084,-1.5280553102493286,-1.707562804222107,-8.867085456848145,-11.262605667114258, 5.746732711791992
199,113908182,0.5978957,-0.29038307,-0.7348217,-0.13503928,9.562959671020508,-1.6491769552230835,-1.827989935874939,-9.685194969177246,-12.038850784301758, 3.569920301437378
200,113924849,0.59670204,-0.29121155,-0.73541427,-0.13530909,9.408403396606445,-1.9688081741333008,-1.938553810119629,-6.363121032714844,-12.250614166259766, 0.9883500337600708
201,113941516,0.59567225,-0.29133454,-0.7362013,-0.13530172,9.367236137390137,-2.0183348655700684,-1.982344388961792,-1.5654491186141968,-12.121883392333984, -1.7077020406723022
202,113958183,0.59475005,-0.29090235,-0.7371541,-0.13510059,9.346807479858398,-1.9530971050262451,-1.9866161346435547,2.0531728267669678,-12.130322456359863, -3.9857606887817383
203,113974850,0.59386957,-0.29011187,-0.7382212,-0.13484605,9.3704195022583,-1.7963550090789795,-2.0200088024139404,3.974254846572876,-12.162467002868652, -5.797066688537598
204,113991517,0.5930457,-0.2890391,-0.73940784,-0.13427365,9.34144401550293,-1.8259810209274292,-2.030585289001465,6.962132930755615,-12.737707138061523, -6.132787227630615
205,114008184,0.5922751,-0.28770205,-0.7407293,-0.13325925,9.407194137573242,-1.6008676290512085,-2.118373394012451,10.51439094543457,-13.653775215148926, -5.908050537109375
206,114024851,0.59158695,-0.28611252,-0.7421525,-0.13181122,9.446427345275879,-1.5570855140686035,-2.1027324199676514,14.008332252502441,-14.274826049804688, -5.555493354797363
207,114041518,0.5911946,-0.28388914,-0.7436837,-0.1297331,9.377840995788574,-1.8856430053710938,-2.2005574703216553,20.482398986816406,-13.87116527557373, -6.167308330535889
208,114058185,0.5913535,-0.28063303,-0.745359,-0.12643662,9.380983352661133,-1.8403245210647583,-2.292480707168579,32.11146926879883,-13.093998908996582, -6.2939772605896
209,114074852,0.59210235,-0.27609,-0.74728894,-0.12144323,9.297711372375488,-1.8896379470825195,-2.3418798446655273,47.398231506347656,-13.254660606384277, -5.96701717376709
210,114091519,0.59309536,-0.27067143,-0.7494785,-0.11513933,9.329179763793945,-1.6726137399673462,-2.220702886581421,58.37431335449219,-14.805188179016113, -5.413735866546631
211,114108186,0.5939886,-0.2648448,-0.75183547,-0.10852819,9.615875244140625,-0.9736155867576599,-2.0037596225738525,61.56894302368164,-16.247804641723633, -6.632811546325684
212,114124853,0.5944731,-0.2590003,-0.75430006,-0.10272232,9.929143905639648,-0.38360530138015747,-1.6892116069793701,56.82511901855469,-17.331092834472656, -10.45577621459961
213,114141520,0.59419554,-0.2540809,-0.75679886,-0.09813505,9.616987228393555,-0.9663940072059631,-1.7833456993103027,45.4075813293457,-19.93719482421875, -11.152459144592285
214,114158187,0.59321314,-0.25012758,-0.75932777,-0.09463516,9.464792251586914,-1.162334680557251,-2.040618419647217,34.6019287109375,-22.501256942749023, -11.047927856445312
215,114174854,0.59149975,-0.24740921,-0.7618158,-0.09248629,9.485589027404785,-1.0165958404541016,-2.1220943927764893,21.237092971801758,-24.641706466674805, -10.4866361618042
216,114191521,0.58914757,-0.24575895,-0.76428723,-0.09150421,9.54463005065918,-0.9517523646354675,-2.122375726699829,9.696721076965332,-26.62200927734375, -9.985857963562012
217,114208188,0.58616585,-0.24486335,-0.76683956,-0.091700144,9.704822540283203,-0.5518119931221008,-2.048633098602295,-0.5507259964942932,-28.755199432373047, -11.299860000610352
218,114224855,0.58245283,-0.2446271,-0.7695615,-0.09317394,9.702653884887695,-0.8297626972198486,-1.9298217296600342,-11.051867485046387,-31.5830135345459, -13.682124137878418
219,114241522,0.5781135,-0.24455877,-0.7725909,-0.09528592,9.470539093017578,-1.425115942955017,-2.214918375015259,-15.943082809448242,-35.194122314453125, -16.24958038330078
220,114258189,0.5736175,-0.24407285,-0.77581954,-0.09744595,9.446695327758789,-1.6104512214660645,-2.4494242668151855,-14.663267135620117,-36.48430633544922, -19.11176109313965
221,114274856,0.56916255,-0.24298628,-0.77916676,-0.099553905,9.546626091003418,-1.4086843729019165,-2.503399610519409,-11.861053466796875,-36.431678771972656, -22.307598114013672
222,114291523,0.56464916,-0.24146496,-0.78264564,-0.10164623,9.48451042175293,-1.5493448972702026,-2.5677733421325684,-10.0731782913208,-37.005130767822266, -24.852867126464844
223,114308190,0.559985,-0.23962986,-0.7862615,-0.10386233,9.575055122375488,-1.4645625352859497,-2.785219430923462,-9.667603492736816,-37.94034194946289, -27.381139755249023
224,114324857,0.5552298,-0.23749073,-0.79001194,-0.105827205,9.409058570861816,-1.444681167602539,-2.8689937591552734,-7.183154582977295,-39.15912628173828, -28.368839263916016
225,114341524,0.5503359,-0.23532298,-0.79376173,-0.1081477,9.834233283996582,-0.7644632458686829,-3.0885400772094727,-9.22348403930664,-39.31918716430664, -30.009912490844727
226,114358191,0.545192,-0.23339471,-0.7975206,-0.11069655,9.694538116455078,-0.9419535398483276,-2.9846103191375732,-11.753918647766113,-40.53929901123047, -29.767972946166992
227,114374858,0.54004854,-0.23142143,-0.8012784,-0.11289241,9.855929374694824,-0.8677815794944763,-3.2700934410095215,-9.636341094970703,-41.08390426635742, -28.702945709228516
228,114391525,0.53513587,-0.22914281,-0.8050161,-0.11433425,9.72634220123291,-1.3501613140106201,-3.2733428478240967,-3.984229564666748,-40.7161865234375, -27.38570213317871
229,114408192,0.5303703,-0.2271234,-0.80850893,-0.11591327,10.302364349365234,-1.183342695236206,-3.5068042278289795,-5.656339645385742,-39.003944396972656, -25.989866256713867
230,114424859,0.5256951,-0.22542019,-0.8117265,-0.11802835,10.604269027709961,-0.9375979900360107,-3.2338831424713135,-9.864933967590332,-36.935794830322266, -25.716838836669922
231,114441526,0.52094734,-0.22421613,-0.81470615,-0.12080958,11.1271390914917,-0.3811439275741577,-2.967344045639038,-15.688318252563477,-35.89730453491211, -25.055070877075195
232,114458193,0.51611644,-0.22326371,-0.817537,-0.12413907,11.446288108825684,0.12188657373189926,-2.6578571796417236,-19.900178909301758,-35.26446533203125, -25.457809448242188
233,114474860,0.5112989,-0.2218643,-0.82040757,-0.12759796,12.303668975830078,0.16132239997386932,-2.499990463256836,-18.96622085571289,-34.84453582763672, -28.47209358215332
234,114491527,0.5063663,-0.22015543,-0.8233573,-0.13117816,12.206318855285645,0.2590266764163971,-2.036398410797119,-18.646686553955078,-35.43571472167969, -30.86197853088379
235,114508194,0.5011736,-0.21847016,-0.82632405,-0.13522057,12.329743385314941,0.24214009940624237,-1.6049162149429321,-21.69878578186035,-36.43144607543945, -32.59849548339844
236,114524861,0.49562222,-0.21678673,-0.82936364,-0.13970782,12.127701759338379,0.2917667627334595,-1.1611573696136475,-24.67860221862793,-38.216400146484375, -34.574153900146484
237,114541528,0.48973376,-0.21505421,-0.83246756,-0.14460476,11.963829040527344,0.22362545132637024,-0.7353057861328125,-27.26064109802246,-39.87980270385742, -36.689002990722656
238,114558195,0.48344845,-0.21356404,-0.8355621,-0.15001377,11.781336784362793,-0.1796206682920456,-0.050534170120954514,-31.575590133666992,-41.79813766479492, -37.43998336791992
239,114574862,0.47646683,-0.21315677,-0.83836585,-0.15711945,11.392022132873535,0.3480088412761688,1.0619592666625977,-46.22401809692383,-43.67584228515625, -37.21672058105469
240,114591529,0.4687703,-0.21369645,-0.8407001,-0.16676965,11.032126426696777,0.3974561393260956,1.6741324663162231,-65.5126724243164,-43.80662155151367, -40.250083923339844
241,114608196,0.46061492,-0.21443956,-0.8428924,-0.17714989,9.99124813079834,-0.7827373147010803,1.8029370307922363,-71.18228149414062,-45.429439544677734, -41.8397331237793
242,114624863,0.45236695,-0.21510221,-0.8450337,-0.18711874,9.431098937988281,-0.9525820016860962,0.4971883296966553,-68.72238159179688,-46.555328369140625, -41.19124221801758
243,114641530,0.4439035,-0.2161584,-0.8470351,-0.19686826,9.257488250732422,-0.12247183173894882,-2.3145647048950195,-69.16146087646484,-48.37873077392578, -38.45647048950195
244,114658197,0.433737,-0.2173221,-0.8494348,-0.20761527,9.962651252746582,0.6500564217567444,-5.568148612976074,-77.27936553955078,-58.23906326293945, -43.9143180847168
245,114674864,0.4219924,-0.21720704,-0.8529915,-0.21713834,12.003538131713867,0.43222716450691223,-6.059796333312988,-67.01407623291016,-70.86966705322266, -51.83701705932617
246,114691531,0.40928656,-0.21642883,-0.8573803,-0.22481635,11.929014205932617,0.5078379511833191,-5.021191120147705,-54.466007232666016,-80.68413543701172, -53.19274139404297
247,114708198,0.39562634,-0.21569142,-0.86212,-0.23174646,10.748353004455566,0.3653160035610199,-4.985743045806885,-51.05429458618164,-88.51786041259766, -52.985198974609375
248,114724865,0.38197923,-0.21571751,-0.8661217,-0.23956472,10.801549911499023,0.6001889705657959,-3.722193479537964,-59.56908416748047,-86.35496520996094, -49.90508270263672
249,114741532,0.37123102,-0.21766162,-0.8676136,-0.24911387,10.515897750854492,-0.5584628582000732,-0.13902541995048523,-74.76083374023438,-63.16307067871094, -34.6894416809082
250,114758199,0.36514103,-0.22268777,-0.8654893,-0.26078808,8.350601196289062,-3.1197166442871094,2.148895740509033,-94.54930877685547,-28.422122955322266, -8.559995651245117
251,114774866,0.3639897,-0.22911115,-0.8610512,-0.27131236,5.745178699493408,-3.211106300354004,2.117042064666748,-87.8779525756836,2.324244737625122, 14.745316505432129
252,114791533,0.367333,-0.2363269,-0.85435426,-0.281594,6.417263984680176,-2.173389434814453,1.5641406774520874,-85.64219665527344,32.61781692504883, 31.727968215942383
253,114808200,0.37457848,-0.24399646,-0.845434,-0.2922302,7.035715579986572,-1.286890983581543,0.4397188127040863,-86.89900970458984,60.75465774536133, 44.434757232666016
254,114824867,0.38495484,-0.25097743,-0.8354569,-0.30138382,7.638907432556152,-0.8048815727233887,-0.6479483246803284,-73.4271011352539,80.50302124023438, 52.1123046875
255,114841534,0.3988075,-0.25679633,-0.8251347,-0.30685687,8.29318904876709,-1.1078988313674927,-0.7667418718338013,-43.96760559082031,97.39131164550781, 62.81412124633789
256,114858201,0.41584334,-0.26213914,-0.8142778,-0.30872205,8.497438430786133,-1.3259516954421997,-0.5101068615913391,-17.75113296508789,111.48284149169922, 77.52433013916016
257,114874868,0.4351453,-0.26703927,-0.8027901,-0.3080044,9.036357879638672,-0.9751023650169373,-0.7871497869491577,0.667654812335968,122.17278289794922, 88.2619857788086
258,114891535,0.45640263,-0.27091444,-0.790649,-0.30524826,9.980731964111328,-0.17336784303188324,-1.4641205072402954,17.146669387817383,133.2620391845703, 93.96385955810547
259,114908202,0.4794363,-0.27342588,-0.7777487,-0.30080956,10.675241470336914,0.5107496976852417,-2.1068673133850098,32.25883102416992,144.9973907470703, 96.97004699707031
260,114924869,0.5039729,-0.2744161,-0.76406634,-0.29480484,10.71996784210205,0.6321268677711487,-2.643496513366699,46.84307861328125,155.88536071777344, 98.67391967773438
261,114941536,0.52931255,-0.27420342,-0.7498421,-0.2870152,10.7105131149292,-0.04281178116798401,-2.9288878440856934,60.79803466796875,161.21945190429688, 101.36128234863281
262,114958203,0.55523556,-0.2731413,-0.7351196,-0.2769599,11.037860870361328,-0.9256568551063538,-2.9619662761688232,75.6758041381836,163.68724060058594, 107.51924133300781
263,114974870,0.5815846,-0.27128246,-0.719765,-0.26477125,11.26048469543457,-1.164176344871521,-3.549006700515747,89.08159637451172,166.0508270263672, 113.84394836425781
264,114991537,0.6084046,-0.26786014,-0.70402104,-0.24989863,11.276983261108398,-1.7974272966384888,-4.202425956726074,108.77813720703125,168.1162872314453, 118.65383911132812
265,115008204,0.6355489,-0.2620497,-0.68820965,-0.23189496,12.040498733520508,-2.1159603595733643,-4.058612823486328,134.40457153320312,168.6727752685547, 121.10575866699219
266,115024871,0.66249424,-0.25512806,-0.67150253,-0.21235786,12.19625473022461,-1.5252224206924438,-3.379412889480591,144.73529052734375,171.01385498046875, 124.07447052001953
267,115041538,0.68879855,-0.24801713,-0.65350676,-0.19228454,12.843022346496582,-1.3118700981140137,-3.217028856277466,145.07919311523438,173.59658813476562, 127.2040786743164
268,115058205,0.714569,-0.2387962,-0.63503766,-0.17057256,14.39164924621582,-1.1305557489395142,-3.6507041454315186,160.91848754882812,173.7634735107422, 125.81485748291016
269,115074872,0.7383854,-0.22907263,-0.6167394,-0.14814027,14.091623306274414,-0.753919780254364,-5.0573835372924805,163.5403289794922,164.12376403808594, 124.80280303955078
270,115091539,0.759587,-0.21993107,-0.5990398,-0.12573493,12.376398086547852,-0.6192871928215027,-7.032931327819824,156.98275756835938,149.7884063720703, 123.72117614746094
271,115108206,0.7760815,-0.21456988,-0.5834769,-0.1058877,10.455931663513184,1.0491394996643066,-8.964594841003418,121.45722198486328,120.19096374511719, 118.78079986572266
272,115124873,0.7885533,-0.21077882,-0.57089895,-0.08848914,10.77675724029541,2.44502592086792,-9.579605102539062,99.5252456665039,90.94573974609375, 104.82555389404297
273,115141540,0.7970901,-0.20874463,-0.5617741,-0.07404791,10.155890464782715,3.7132620811462402,-9.15847110748291,74.82222747802734,60.318260192871094, 88.43550109863281
274,115158207,0.8018255,-0.20685504,-0.5570172,-0.0633931,9.012744903564453,4.3641886711120605,-9.37901782989502,56.20004653930664,27.325063705444336, 60.17935562133789
275,115174874,0.8026833,-0.20448074,-0.55735666,-0.056928046,8.380473136901855,4.07047176361084,-10.123275756835938,39.5589714050293,-9.224438667297363, 26.411054611206055
276,115191541,0.7998544,-0.20169583,-0.56263715,-0.054693274,8.384540557861328,3.5322306156158447,-9.428772926330566,22.393810272216797,-44.31450653076172, -6.802191257476807
277,115208208,0.79328203,-0.20250581,-0.57116944,-0.058828417,9.717310905456543,2.361616849899292,-4.821475505828857,-25.96213150024414,-69.04493713378906, -33.769771575927734
278,115224875,0.78579164,-0.20864701,-0.5778483,-0.0713395,14.706318855285645,-2.833477020263672,10.091388702392578,-89.96028137207031,-52.97671127319336, -56.25364303588867
279,115241542,0.7787158,-0.21102053,-0.5859641,-0.07561935,10.9132080078125,-9.356200218200684,5.832016468048096,-35.63447952270508,-69.19512939453125, -28.6184024810791
280,115258209,0.771144,-0.2107364,-0.5959765,-0.07576013,8.236292839050293,-1.1916123628616333,-2.209883451461792,-4.453492164611816,-86.05233001708984, -20.288440704345703
281,115274876,0.76433504,-0.2061192,-0.60607594,-0.077324964,11.145666122436523,-0.5103520154953003,-4.298580646514893,13.843533515930176,-79.04237365722656, -45.328128814697266
282,115291543,0.75756025,-0.19694132,-0.6177076,-0.07585519,15.797439575195312,1.5569713115692139,-2.177100419998169,51.329437255859375,-88.77668762207031, -50.530879974365234
283,115308210,0.7487567,-0.19105417,-0.63015854,-0.07590995,13.786012649536133,2.4579272270202637,0.8501187562942505,25.39365577697754,-101.28282928466797, -46.622249603271484
284,115324877,0.73998666,-0.18707642,-0.6415624,-0.07628921,9.117371559143066,1.6392855644226074,1.0552787780761719,13.646954536437988,-96.3383560180664, -38.587650299072266
285,115341544,0.73168534,-0.18487261,-0.6516006,-0.076652765,9.128464698791504,-0.9266502857208252,-0.16072401404380798,4.5722432136535645,-88.3038558959961, -28.666311264038086
286,115358211,0.7234887,-0.18428363,-0.66081357,-0.07700238,10.258430480957031,-0.2975863218307495,0.176713764667511,-3.7898709774017334,-84.56967163085938, -20.27286148071289
287,115374878,0.7151832,-0.18588428,-0.6691958,-0.07834119,10.574835777282715,0.021975195035338402,-0.08161301910877228,-19.751689910888672,-80.85950469970703, -14.25477123260498
288,115391545,0.70699644,-0.18904321,-0.6767376,-0.08028053,10.358150482177734,-0.7569764852523804,-0.27889102697372437,-30.477394104003906,-76.27201080322266, -8.900126457214355
289,115408212,0.6992792,-0.19239666,-0.68354166,-0.082237996,10.114299774169922,-1.5320013761520386,-0.7123110890388489,-31.30333709716797,-70.60187530517578, -6.873108386993408
290,115424879,0.69230443,-0.19468021,-0.68982416,-0.08340879,9.933701515197754,-1.764371395111084,-0.9059234857559204,-21.773298263549805,-65.05475616455078, -7.024939060211182
291,115441546,0.6859655,-0.19587544,-0.6957357,-0.0838823,9.728846549987793,-1.7672648429870605,-0.68559330701828,-12.64784049987793,-60.59281539916992, -8.023070335388184
292,115458213,0.6799028,-0.19673659,-0.7014093,-0.08397741,9.477838516235352,-2.3076274394989014,-0.8835279941558838,-9.027770042419434,-58.47990417480469, -7.372579574584961
293,115474880,0.67442876,-0.19727865,-0.70658463,-0.08345959,9.59121036529541,-1.839464545249939,-1.0221693515777588,-4.0728325843811035,-53.9677619934082, -5.051965236663818
294,115491547,0.6695575,-0.19739491,-0.7112533,-0.08274538,10.1240873336792,-2.006688117980957,-1.7587257623672485,-0.6179628372192383,-48.722476959228516, -5.190367698669434
295,115508214,0.66607744,-0.19538221,-0.7153392,-0.08035387,10.038257598876953,-2.337315320968628,-2.0014567375183105,18.939655303955078,-40.30504608154297, -6.311039924621582
296,115524881,0.66400963,-0.1910997,-0.71892554,-0.07562155,9.278963088989258,-2.042703151702881,-1.5421911478042603,42.466453552246094,-32.96358871459961, -5.319198131561279
297,115541548,0.66223085,-0.18651758,-0.72228897,-0.07042913,9.551199913024902,-0.9733352065086365,-0.8593159317970276,46.3709831237793,-30.97075843811035, -4.269863128662109
298,115558215,0.65983117,-0.18367477,-0.7255788,-0.066498406,9.818236351013184,-1.1547050476074219,-0.902397632598877,31.352258682250977,-32.9533805847168, -1.5864235162734985
299,115574882,0.6573115,-0.18033405,-0.7290608,-0.062384415,10.375752449035645,-0.3542085289955139,-0.8668605089187622,34.460304260253906,-34.438743591308594, -3.539769172668457
300,115591549,0.65432537,-0.17772949,-0.73266107,-0.058978666,10.227607727050781,-0.32127007842063904,-0.8744152188301086,27.055051803588867,-36.759735107421875, -3.3927345275878906
301,115608216,0.651087,-0.17570955,-0.73626614,-0.055895988,9.690717697143555,-0.7857000231742859,-1.0654546022415161,22.491491317749023,-37.9052734375, -2.00534725189209
302,115624883,0.6477628,-0.17394954,-0.7398312,-0.052868124,9.372706413269043,-0.8623925447463989,-1.1909775733947754,20.930908203125,-38.20295333862305, -0.9196045398712158
303,115641550,0.6441542,-0.17275201,-0.7434165,-0.050538283,9.640677452087402,-0.9094766974449158,-1.136473536491394,14.541862487792969,-39.11625289916992, -1.2951911687850952
304,115658217,0.6400939,-0.17202358,-0.7472154,-0.048549436,9.53696346282959,-1.464195966720581,-1.393621802330017,10.258792877197266,-42.13699722290039, -0.8185873627662659
305,115674884,0.635837,-0.17115685,-0.7511759,-0.046386804,9.594219207763672,-1.3918853998184204,-1.6136983633041382,11.58055305480957,-44.02389144897461, -1.0255399942398071
306,115691551,0.6313932,-0.17041881,-0.7552062,-0.044314098,9.570021629333496,-1.4694840908050537,-1.5437477827072144,10.355107307434082,-45.23592758178711, -0.8994864225387573
307,115708218,0.62728417,-0.16958804,-0.7589116,-0.042518348,9.776973724365234,-1.525599479675293,-1.6985410451889038,9.611796379089355,-41.73944854736328, -2.1036739349365234
308,115724885,0.62324166,-0.16886307,-0.7624603,-0.04134726,9.529656410217285,-1.3423283100128174,-1.7355451583862305,5.927690505981445,-40.02437973022461, -4.047482967376709
309,115741552,0.61865395,-0.16847506,-0.7663102,-0.04064706,9.484114646911621,-1.1932220458984375,-1.7736026048660278,1.4670605659484863,-43.72813034057617, -4.805563926696777
310,115758219,0.6135297,-0.16841455,-0.7704444,-0.0404199,9.725729942321777,-1.2710586786270142,-1.9855586290359497,-2.9617738723754883,-47.313743591308594, -5.571779727935791
311,115774886,0.6080221,-0.16883482,-0.7746823,-0.04088184,9.973342895507812,-1.2658640146255493,-2.204383611679077,-9.055541038513184,-49.12335968017578, -6.159397125244141
312,115791553,0.60203546,-0.17002109,-0.7790031,-0.04243207,10.16584587097168,-1.104502558708191,-2.3919241428375244,-18.586807250976562,-50.97795104980469, -6.860612392425537
313,115808220,0.59550023,-0.17203884,-0.78341126,-0.04527011,10.597481727600098,-0.7508659958839417,-2.32289719581604,-29.541831970214844,-53.02092361450195, -7.999233245849609
314,115824887,0.5881425,-0.17470802,-0.7881071,-0.04952729,10.804818153381348,-1.2409672737121582,-2.4488868713378906,-40.73522186279297,-57.16054916381836, -10.893850326538086
315,115841554,0.5802302,-0.17786904,-0.79289824,-0.054847214,11.676424980163574,-2.1129722595214844,-1.9808470010757446,-49.11737060546875,-59.45124435424805, -12.829626083374023
316,115858221,0.5721496,-0.18148224,-0.7974073,-0.062057164,12.045731544494629,-1.9553172588348389,-1.3597108125686646,-61.540714263916016,-57.1192626953125, -17.630765914916992
317,115874888,0.5635717,-0.18501242,-0.8019471,-0.070982605,12.744770050048828,-0.4533221423625946,-0.6341366171836853,-71.23117065429688,-57.812496185302734, -25.091690063476562
318,115891555,0.55419207,-0.18713559,-0.8070709,-0.08055025,13.526568412780762,-0.36047983169555664,0.07374143600463867,-70.05546569824219,-63.02511215209961, -36.469058990478516
319,115908222,0.5439656,-0.1868518,-0.8130847,-0.08989673,14.190091133117676,-0.008144487626850605,0.8109135031700134,-60.253021240234375,-70.10848236083984, -50.59497833251953
320,115924889,0.53259397,-0.18433368,-0.8199685,-0.1000828,15.11611270904541,-0.5606692433357239,2.021855115890503,-57.52155303955078,-77.35514068603516, -68.05049896240234
321,115941556,0.5202716,-0.17976682,-0.8275338,-0.110406026,15.136163711547852,-2.8632664680480957,2.457200050354004,-51.526851654052734,-83.69166564941406, -81.62701416015625
322,115958223,0.50711614,-0.17679411,-0.83467567,-0.12204116,13.705666542053223,-3.4008140563964844,4.043697357177734,-66.0503921508789,-86.57322692871094, -77.38676452636719
323,115974890,0.4933138,-0.17645232,-0.8405162,-0.13798232,12.155388832092285,-3.6146559715270996,3.7055742740631104,-101.82274627685547,-82.79864501953125, -76.30302429199219
324,115991557,0.47829235,-0.17932954,-0.84522235,-0.15708931,10.057031631469727,-3.555234909057617,3.119396448135376,-133.60360717773438,-85.2770767211914, -68.26634216308594
325,116008224,0.46359143,-0.18347542,-0.84902793,-0.17484774,9.69730281829834,-1.729503870010376,-0.5522163510322571,-130.52281188964844,-83.5360336303711, -55.05138397216797
326,116024891,0.4495781,-0.18757221,-0.85258216,-0.18920955,10.029871940612793,1.3243708610534668,-6.723026752471924,-109.97505187988281,-82.96553802490234, -43.40235137939453
327,116041558,0.43556848,-0.18994723,-0.8563284,-0.20224328,13.438352584838867,1.5923182964324951,-6.454604625701904,-96.61199188232422,-82.9881362915039, -49.64411163330078
328,116058225,0.41978407,-0.19242722,-0.86056757,-0.21488786,12.440780639648438,1.2166122198104858,-5.639737129211426,-96.26780700683594,-95.56939697265625, -50.9896354675293
329,116074892,0.4044529,-0.1960362,-0.8635085,-0.22878145,11.49734115600586,-0.36947187781333923,-1.989426851272583,-108.23827362060547,-89.1588134765625, -45.54947280883789
330,116091559,0.39243442,-0.20227404,-0.86346865,-0.24393196,10.679072380065918,-2.6568570137023926,2.363157272338867,-123.24163818359375,-63.66790771484375, -24.24431610107422
331,116108226,0.38539353,-0.21000265,-0.86018515,-0.25971615,7.830775260925293,-3.785168170928955,4.059993743896484,-129.5533905029297,-27.034902572631836, -4.302213191986084
332,116124893,0.38327363,-0.21917154,-0.85441256,-0.27394292,4.868310451507568,-3.853625774383545,3.9077935218811035,-121.50939178466797,3.7981252670288086, 20.662519454956055
333,116141560,0.38686538,-0.22839345,-0.84671515,-0.28503612,5.168424606323242,-3.2136592864990234,3.013640880584717,-98.27033233642578,37.573081970214844, 42.83641052246094
334,116158227,0.39590752,-0.23648793,-0.8379742,-0.29177096,6.580202579498291,-2.8781373500823975,1.9635729789733887,-63.39409255981445,67.41877746582031, 60.140377044677734
335,116174894,0.41018304,-0.24308175,-0.82827413,-0.2943188,7.8751020431518555,-1.6933701038360596,1.222764253616333,-28.609201431274414,96.35711669921875, 74.9085693359375
336,116191561,0.42861,-0.24966931,-0.8166756,-0.2949574,8.356382369995117,-1.0041139125823975,0.8488101959228516,-14.625067710876465,122.14730834960938, 91.80159759521484
337,116208228,0.44994068,-0.2566624,-0.80318934,-0.29421937,8.559798240661621,-1.173653483390808,0.5488883852958679,-6.934637546539307,140.8049774169922, 107.24263763427734
338,116224895,0.4736775,-0.26274326,-0.7885776,-0.29110402,9.157851219177246,-0.9210768342018127,-0.07182003557682037,10.985756874084473,155.2008514404297, 116.39258575439453
339,116241562,0.4993457,-0.26764137,-0.773006,-0.285454,10.300743103027344,-0.4763043224811554,-1.0044101476669312,30.149749755859375,166.56663513183594, 123.82096099853516
340,116258229,0.5266401,-0.27086696,-0.75665456,-0.27704763,11.577404975891113,0.026281895115971565,-1.8872500658035278,52.0072021484375,176.08157348632812, 129.01748657226562
341,116274896,0.554642,-0.27265137,-0.73963195,-0.26641726,12.174665451049805,-0.1285363882780075,-2.3633742332458496,68.83941650390625,180.78419494628906, 132.17538452148438
342,116291563,0.58322453,-0.273213,-0.72176147,-0.25350496,12.229509353637695,-0.5474085807800293,-2.297865152359009,84.64395904541016,184.92662048339844, 137.32391357421875
343,116308230,0.6120059,-0.27239892,-0.70307165,-0.23861735,12.753047943115234,-0.6354477405548096,-2.0722479820251465,98.9134750366211,187.88389587402344, 140.3185577392578
344,116324897,0.64033383,-0.27143514,-0.683051,-0.22301859,13.122190475463867,-0.9748734831809998,-2.483819007873535,99.942626953125,190.20901489257812, 144.3594970703125
345,116341564,0.6681831,-0.26984462,-0.661961,-0.20621236,13.27668285369873,-2.0238447189331055,-3.7552666664123535,105.84652709960938,191.3975372314453, 148.0229034423828
346,116358231,0.69532716,-0.26768452,-0.6400501,-0.18761988,14.876382827758789,-2.1539719104766846,-4.719313621520996,114.11848449707031,189.49940490722656, 154.18798828125
347,116374898,0.7204297,-0.2668396,-0.6174611,-0.16887827,15.63404369354248,-0.7621146440505981,-5.9168009757995605,103.85791778564453,181.85055541992188, 159.33538818359375
348,116391565,0.74278843,-0.26669246,-0.5955062,-0.15004487,13.853102684020996,-1.1827013492584229,-7.743628025054932,96.49531555175781,166.16702270507812, 158.450927734375
349,116408232,0.7625213,-0.2646826,-0.57618177,-0.12852755,11.287362098693848,-0.9441720247268677,-8.8013334274292,114.91256713867188,139.09078979492188, 157.04461669921875
350,116424899,0.7793388,-0.26013362,-0.5600897,-0.10612021,12.578817367553711,1.866361141204834,-7.647585391998291,129.32211303710938,111.33238220214844, 143.2357940673828
351,116441566,0.7922265,-0.25600064,-0.5470819,-0.0868495,11.883469581604004,3.0723564624786377,-7.254155158996582,110.2460708618164,85.08155822753906, 119.714599609375
352,116458233,0.80058116,-0.2525392,-0.5386652,-0.07165089,9.810157775878906,5.19537353515625,-9.564920425415039,86.04100799560547,49.89274597167969, 89.345458984375
353,116474900,0.80363446,-0.25000772,-0.53645444,-0.062328268,8.982550621032715,6.609297275543213,-11.87384033203125,53.02765655517578,5.959291934967041, 47.14313507080078
354,116491567,0.80271137,-0.24515378,-0.54066885,-0.056847796,8.23082160949707,4.975423336029053,-11.464340209960938,47.62989807128906,-36.47561264038086, 4.690135478973389
355,116508234,0.7982907,-0.23742369,-0.55073667,-0.055240408,8.282086372375488,4.340633869171143,-10.263994216918945,45.51935958862305,-74.01305389404297, -38.54629135131836
356,116524901,0.79039156,-0.23111457,-0.56424093,-0.059158914,10.789941787719727,2.9610629081726074,-6.301562786102295,12.437878608703613,-97.46784973144531, -70.37430572509766
357,116541568,0.7820756,-0.23198749,-0.5742607,-0.069026664,16.334346771240234,-6.431446552276611,11.460548400878906,-51.7496223449707,-73.55492401123047, -69.42488098144531
358,116558235,0.7748402,-0.23094276,-0.58431304,-0.06976152,10.207795143127441,-10.720117568969727,5.599820613861084,-3.6612935066223145,-83.2099609375, -27.44783592224121
359,116574902,0.76776564,-0.22633027,-0.5956778,-0.06692437,7.346026420593262,3.361105442047119,-8.900308609008789,30.582080841064453,-93.56568145751953, -24.838613510131836
360,116591569,0.760142,-0.21656185,-0.6085096,-0.07072203,20.61538314819336,5.979589462280273,-5.109363079071045,30.457569122314453,-90.78631591796875, -83.47944641113281
361,116608236,0.7494761,-0.21305475,-0.62270314,-0.07165721,17.710268020629883,-0.5172192454338074,1.3963125944137573,5.8437323570251465,-117.88186645507812, -45.74005889892578
362,116624903,0.7391465,-0.21186379,-0.6351964,-0.07281694,7.0400390625,5.374059200286865,1.3600051403045654,-7.404215335845947,-108.50267791748047, -34.30641555786133
363,116641570,0.7293509,-0.21392137,-0.6453501,-0.07621503,8.433784484863281,-2.776712417602539,-0.5735671520233154,-34.083778381347656,-92.67662811279297, -27.771574020385742
364,116658237,0.7210248,-0.21324298,-0.65497345,-0.07523833,9.703930854797363,-2.8033037185668945,-0.43472597002983093,0.9340962767601013,-88.50833892822266, -16.446958541870117
365,116674904,0.7133494,-0.2104212,-0.6644709,-0.073036246,10.409162521362305,-1.5486414432525635,-0.5393011569976807,17.968721389770508,-85.65392303466797, -19.52616310119629
366,116691571,0.7055426,-0.20830445,-0.67357135,-0.07156118,10.957246780395508,-1.058172345161438,-0.38992512226104736,10.80126953125,-83.6200942993164, -19.3734188079834
367,116708238,0.6980082,-0.2074154,-0.68169725,-0.07108119,10.093276977539062,-1.1169657707214355,-0.6071768999099731,0.1477821171283722,-76.82218170166016, -16.98908233642578
368,116724905,0.6909446,-0.20788041,-0.68865234,-0.0716907,9.382993698120117,-2.054288864135742,-0.6037338376045227,-11.358817100524902,-68.11817169189453, -13.976929664611816
369,116741572,0.68423194,-0.20868121,-0.6949805,-0.072671734,9.428780555725098,-2.3755810260772705,-0.8610396385192871,-14.519457817077637,-63.127750396728516, -13.095947265625
370,116758239,0.6778625,-0.20959829,-0.70079416,-0.07388371,9.538710594177246,-2.0079128742218018,-0.4486836791038513,-15.93747615814209,-58.80597686767578, -12.732067108154297
371,116774906,0.67183334,-0.21016146,-0.70635074,-0.0744394,9.80228328704834,-2.123077630996704,-0.9949842691421509,-10.768643379211426,-56.75080490112305, -10.84599494934082
372,116791573,0.66661656,-0.20935324,-0.7115729,-0.07387834,10.190763473510742,-1.6383707523345947,-1.3617275953292847,1.9907863140106201,-52.18372344970703, -11.46059513092041
373,116808240,0.66172683,-0.20791657,-0.7166943,-0.07237558,9.806520462036133,-2.170851945877075,-1.2738816738128662,9.89587688446045,-51.16679763793945, -9.914965629577637
374,116824907,0.65725803,-0.20567022,-0.7217214,-0.06950059,9.343762397766113,-2.08982515335083,-1.491387963294983,20.893770217895508,-50.2332649230957, -7.330380439758301
375,116841574,0.6535771,-0.20194322,-0.72651684,-0.065035164,9.50930118560791,-1.4992988109588623,-1.5160136222839355,36.47832489013672,-46.82622146606445, -6.799169540405273
376,116858241,0.6505077,-0.19701071,-0.73105514,-0.059876427,9.997628211975098,-0.849317729473114,-1.284751296043396,46.09278106689453,-43.04934310913086, -9.08358383178711
377,116874908,0.6471879,-0.1924358,-0.7355779,-0.055153955,10.194215774536133,-0.8087151646614075,-1.247322916984558,41.95197677612305,-43.80646896362305, -9.321377754211426
378,116891575,0.6434472,-0.18863866,-0.74014884,-0.05070853,9.910872459411621,-1.0127040147781372,-1.4055368900299072,36.54835510253906,-46.08974838256836, -6.845065593719482
379,116908242,0.6394634,-0.18548416,-0.7446661,-0.046420705,9.72219181060791,-1.0137428045272827,-1.4281071424484253,32.571285247802734,-47.121376037597656, -4.29038143157959
380,116924909,0.63529694,-0.18342026,-0.7489442,-0.042869583,9.555397033691406,-1.2099740505218506,-1.5374640226364136,23.693416595458984,-46.4249153137207, -1.7011350393295288
381,116941576,0.6308387,-0.18274441,-0.7530051,-0.04038357,9.452920913696289,-1.324410080909729,-1.5835449695587158,11.712236404418945,-46.05668640136719, 0.9778813719749451
382,116958243,0.62617385,-0.18291682,-0.756927,-0.03885547,9.664786338806152,-1.1542507410049438,-1.7848751544952393,2.774522304534912,-45.566314697265625, 1.3282649517059326
383,116974910,0.621332,-0.1834515,-0.7608207,-0.03800451,9.673355102539062,-1.3598048686981201,-1.7447463274002075,-2.540132761001587,-45.620933532714844, 0.28539159893989563
384,116991577,0.616289,-0.18407507,-0.7647741,-0.037749775,9.872096061706543,-1.2472816705703735,-1.8644126653671265,-6.278053283691406,-46.211219787597656, -1.9275752305984497
385,117008244,0.61109596,-0.18486519,-0.768721,-0.038142122,9.873993873596191,-0.9293174147605896,-1.902100682258606,-10.579000473022461,-46.207942962646484, -3.8256072998046875
386,117024911,0.60561043,-0.18608455,-0.77270114,-0.039269883,9.736262321472168,-1.0233325958251953,-1.9757730960845947,-16.633480072021484,-47.08191680908203, -4.764708042144775
387,117041578,0.5998421,-0.18751813,-0.7767639,-0.040799208,9.713685989379883,-1.2584012746810913,-2.1317875385284424,-19.998016357421875,-48.48337936401367, -5.480761528015137
388,117058245,0.5938498,-0.1888577,-0.78093916,-0.042539243,9.842536926269531,-1.2585320472717285,-2.3975088596343994,-20.994165420532227,-49.85559844970703, -7.061404705047607
389,117074912,0.587475,-0.1898803,-0.78541994,-0.04398389,9.707601547241211,-2.0797393321990967,-2.8573856353759766,-18.52244758605957,-53.45616149902344, -8.067938804626465
390,117091579,0.5810548,-0.19075853,-0.78989035,-0.045390483,10.25816535949707,-2.356903553009033,-2.4189658164978027,-17.799787521362305,-53.671104431152344, -8.701361656188965
391,117108246,0.5741848,-0.19222367,-0.79439944,-0.04787306,10.725915908813477,-2.3969883918762207,-2.3616085052490234,-26.568767547607422,-55.052085876464844, -10.013418197631836
392,117124913,0.566576,-0.19449371,-0.7990596,-0.051656514,10.987491607666016,-1.811883568763733,-1.8995732069015503,-37.78361892700195,-58.24238204956055, -11.204278945922852
393,117141580,0.55821335,-0.19686244,-0.80399936,-0.056821562,11.664373397827148,-1.144256353378296,-1.7059874534606934,-46.67164611816406,-61.679237365722656, -16.689538955688477
394,117158247,0.5491713,-0.19844578,-0.8093966,-0.06251343,12.234673500061035,-0.5333482623100281,-1.3113429546356201,-47.31085968017578,-66.19447326660156, -23.93814468383789
395,117174914,0.5392796,-0.19935727,-0.81527984,-0.06894843,12.73360538482666,0.08585010468959808,-1.0154743194580078,-49.860172271728516,-71.48387145996094, -31.50768280029297
396,117191581,0.5285317,-0.19970426,-0.82154864,-0.076362655,13.289632797241211,0.5442326068878174,-0.4339227080345154,-54.24394226074219,-76.135986328125, -39.23133850097656
397,117208248,0.5170806,-0.19916253,-0.828055,-0.08536709,14.290873527526855,0.7908012866973877,0.3215332627296448,-60.83428192138672,-78.36186981201172, -50.71846008300781
398,117224915,0.50435716,-0.19742,-0.83524996,-0.094906144,13.774605751037598,-0.45612430572509766,1.3750600814819336,-60.94122314453125,-86.66775512695312, -61.14065933227539
399,117241582,0.4905696,-0.19505425,-0.84287715,-0.104182996,13.353257179260254,-0.7803428769111633,2.5044660568237305,-58.43464660644531,-94.2824935913086, -65.099609375
400,117258249,0.47649062,-0.19266132,-0.85000426,-0.11546274,14.523275375366211,-0.8756510615348816,4.7773051261901855,-70.69849395751953,-91.64241027832031, -71.56498718261719
401,117274916,0.46227545,-0.19094014,-0.856072,-0.13032597,14.584336280822754,-1.956964373588562,6.465342998504639,-94.86094665527344,-84.83759307861328, -78.10650634765625
402,117291583,0.4481758,-0.19189627,-0.8603473,-0.14872065,12.412435531616211,-2.99652099609375,6.8322672843933105,-125.61483001708984,-76.31782531738281, -71.15242767333984
403,117308250,0.43544048,-0.19730148,-0.8617493,-0.16985995,10.18621826171875,-2.9809136390686035,2.5125949382781982,-156.704833984375,-60.40473175048828, -48.15754699707031
404,117324917,0.4226979,-0.20266712,-0.8630493,-0.18814556,9.470826148986816,0.3284839689731598,-6.251409530639648,-139.81210327148438,-64.00531005859375, -39.76933670043945
405,117341584,0.40877685,-0.20490593,-0.8657355,-0.20351364,14.993111610412598,0.47086724638938904,-8.588046073913574,-113.2601089477539,-75.02144622802734, -53.325164794921875
406,117358251,0.39393106,-0.20555387,-0.86972743,-0.21480465,14.221659660339355,-0.08206623047590256,-6.308990478515625,-84.0015640258789,-87.70206451416016, -54.49633026123047
407,117374918,0.3785339,-0.20763531,-0.8732939,-0.22573923,11.20665454864502,-0.03549854829907417,-4.86094331741333,-87.16928100585938,-92.47241973876953, -45.203651428222656
408,117391585,0.36419016,-0.21286802,-0.8737127,-0.24223836,12.923108100891113,1.7615396976470947,-2.745112895965576,-132.17813110351562,-74.90277099609375, -34.6671028137207
409,117408252,0.35397193,-0.22132339,-0.8689634,-0.26575047,13.321642875671387,-1.7655714750289917,1.343592643737793,-184.9532012939453,-32.300357818603516, -18.467777252197266
410,117424919,0.3482024,-0.23159246,-0.86167437,-0.28746787,5.0339765548706055,-5.575661659240723,1.884665846824646,-176.51910400390625,-5.625450611114502, 8.664546966552734
411,117441586,0.34840858,-0.24149708,-0.854356,-0.30061126,2.505870819091797,-5.56933069229126,1.6359140872955322,-115.40910339355469,16.914085388183594, 38.828006744384766
412,117458253,0.3557122,-0.24966665,-0.84730554,-0.30530235,4.391456604003906,-3.661314010620117,1.2615907192230225,-49.2889289855957,47.521846771240234, 63.064491271972656
413,117474920,0.36844486,-0.2565175,-0.8390922,-0.3072005,5.3525590896606445,-0.9425317645072937,0.1894945502281189,-22.93048095703125,79.96339416503906, 75.57716369628906
414,117491587,0.38538802,-0.26300883,-0.8284276,-0.30985594,6.716198921203613,0.4888317883014679,-0.31273525953292847,-24.141977310180664,112.55989074707031, 84.790283203125
415,117508254,0.4057405,-0.2704784,-0.8150923,-0.312796,6.727085590362549,-0.9807071685791016,-0.931442379951477,-27.87699317932129,137.48764038085938, 101.69955444335938
416,117524921,0.42910805,-0.2784999,-0.80037934,-0.31256643,7.0847487449646,-1.9217240810394287,-0.9473276138305664,-9.009872436523438,151.1519317626953, 122.67073059082031
417,117541588,0.4554278,-0.28594643,-0.78489417,-0.30783403,8.73134708404541,-1.6276757717132568,-0.630169153213501,21.455276489257812,162.2935333251953, 140.602783203125
418,117558255,0.48426625,-0.29171768,-0.7684583,-0.29976583,10.68045711517334,-0.27651405334472656,-0.6876260042190552,47.644996643066406,175.84524536132812, 149.19923400878906
419,117574922,0.5146201,-0.29592273,-0.7505409,-0.2903184,11.531947135925293,0.7866730093955994,-1.1989657878875732,60.136444091796875,189.2346649169922, 151.6161346435547
420,117591589,0.5460369,-0.2977856,-0.73161083,-0.27913025,11.790409088134766,0.6522769927978516,-2.0313405990600586,77.55997467041016,199.4290008544922, 149.8879852294922
421,117608256,0.57890373,-0.29614002,-0.71207285,-0.26481038,12.579750061035156,0.05581563711166382,-2.3914103507995605,108.30107879638672,209.33233642578125, 148.05258178710938
422,117624923,0.61208385,-0.2932369,-0.69095457,-0.24889371,13.857654571533203,-0.8712708950042725,-3.034492254257202,118.8948974609375,216.20567321777344, 152.0712127685547
423,117641590,0.6446906,-0.2902761,-0.66791475,-0.23238857,15.209598541259766,-1.0549882650375366,-4.684514045715332,117.49188995361328,220.50186157226562, 157.19561767578125
424,117658257,0.6757084,-0.28977203,-0.64236987,-0.21636093,15.401803016662598,-1.4528290033340454,-6.3094964027404785,97.22809600830078,221.3813934326172, 168.85275268554688
425,117674924,0.704418,-0.2904411,-0.6159993,-0.19996247,14.633785247802734,-1.7210001945495605,-8.728555679321289,87.59904479980469,212.60179138183594, 173.994384765625
426,117691591,0.7300561,-0.2888527,-0.592464,-0.18046997,14.715490341186523,-1.6426602602005005,-11.203824043273926,109.40153503417969,182.87489318847656, 169.5555419921875
427,117708258,0.7535259,-0.28162026,-0.57320505,-0.1559665,13.275909423828125,0.7915225028991699,-12.073101043701172,159.18638610839844,149.7425079345703, 160.56871032714844
428,117724925,0.7725518,-0.27255023,-0.55825967,-0.13125277,13.192913055419922,3.4565930366516113,-11.933229446411133,165.57235717773438,111.55994415283203, 141.34300231933594
429,117741592,0.785116,-0.26647252,-0.54787654,-0.11143349,10.887443542480469,6.2293009757995605,-14.371493339538574,122.91193389892578,69.11165618896484, 112.51158905029297
430,117758259,0.79133946,-0.26196286,-0.5439345,-0.09640365,8.773241996765137,7.181063175201416,-16.477527618408203,89.73358917236328,18.175376892089844, 75.98252868652344
431,117774926,0.7913182,-0.2568119,-0.54807293,-0.08648604,7.871124744415283,6.462609767913818,-15.634949684143066,68.24549865722656,-39.35476303100586, 27.16050910949707
432,117791593,0.7860683,-0.25111312,-0.5587888,-0.082429595,8.434200286865234,6.92893123626709,-13.302125930786133,43.84493637084961,-84.02596282958984, -21.446264266967773
433,117808260,0.77788395,-0.24930604,-0.5704591,-0.08555767,12.913594245910645,3.0884761810302734,0.8268142342567444,-9.301316261291504,-90.14215087890625, -48.56035614013672
434,117824927,0.77233297,-0.24890694,-0.5776445,-0.088739544,15.946240425109863,-11.402774810791016,18.093210220336914,-15.183208465576172,-56.56523513793945, -34.03356170654297
435,117841594,0.7670999,-0.24279188,-0.58799213,-0.08292165,9.0834379196167,3.275824785232544,-4.081833839416504,53.35660934448242,-84.16266632080078, -14.23347282409668
436,117858261,0.760165,-0.23583335,-0.5994581,-0.08474963,13.561628341674805,2.0761916637420654,-8.02421760559082,24.690771102905273,-83.65982055664062, -60.76859664916992
437,117874928,0.75150967,-0.22692752,-0.6140989,-0.0813664,18.793350219726562,-3.8295767307281494,-1.6479294300079346,55.42200469970703,-114.58389282226562, -47.67257308959961
438,117891595,0.7428495,-0.21498406,-0.6293041,-0.077029005,10.280350685119629,5.73235559463501,1.251784324645996,75.45813751220703,-117.28726196289062, -56.465675354003906
439,117908262,0.7342724,-0.20823836,-0.641873,-0.07403128,8.839982032775879,0.31135547161102295,-0.16298618912696838,41.82689666748047,-104.24944305419922, -36.82357406616211
440,117924929,0.7258767,-0.20447718,-0.65286845,-0.07110405,9.75029468536377,-1.8184460401535034,-0.8953033685684204,25.908266067504883,-96.93342590332031, -21.659929275512695
441,117941596,0.71911603,-0.19831714,-0.6627579,-0.06553978,11.03855037689209,-0.38499870896339417,-0.4797458350658417,51.478843688964844,-86.6131820678711, -16.928604125976562
442,117958263,0.71279573,-0.19395621,-0.67124856,-0.061067745,10.824763298034668,0.4165150821208954,0.014019735157489777,37.57597351074219,-77.01980590820312, -12.026403427124023
443,117974930,0.70632476,-0.19402179,-0.6781496,-0.059789557,10.040168762207031,-0.2547944486141205,0.06936639547348022,0.27402830123901367,-67.54033660888672, -5.183479309082031
444,117991597,0.7000506,-0.19532393,-0.6843257,-0.058965173,9.938204765319824,-1.8333895206451416,-0.2733646631240845,-7.881153106689453,-63.025733947753906, -0.5691991448402405
445,118008264,0.6942577,-0.19483164,-0.6905749,-0.05616087,9.881429672241211,-1.824817180633545,-0.17095784842967987,10.748169898986816,-63.0611572265625, 0.6041417717933655
446,118024931,0.6889838,-0.19336222,-0.6965494,-0.05226891,9.91003131866455,-1.7047374248504639,-0.5391192436218262,21.164575576782227,-60.384971618652344, 1.7130531072616577
447,118041598,0.6843269,-0.19163063,-0.70187557,-0.048432436,9.776354789733887,-1.794545292854309,-0.8369908332824707,22.73069953918457,-54.204498291015625, 1.2685165405273438
448,118058265,0.6801064,-0.18971394,-0.7067065,-0.04506222,9.860480308532715,-2.463557720184326,-1.1855813264846802,21.757909774780273,-49.10472106933594, -1.0310240983963013
449,118074932,0.67640173,-0.18688743,-0.71121687,-0.04153429,9.79020881652832,-1.639739751815796,-0.9547562003135681,27.351703643798828,-45.03158950805664, -4.151782035827637
450,118091599,0.6729856,-0.1838911,-0.71542436,-0.037990108,9.785510063171387,-0.7571128010749817,-0.8551076650619507,28.50374412536621,-42.197383880615234, -4.44285774230957
451,118108266,0.6696496,-0.18227255,-0.7190929,-0.035387605,9.815362930297852,-0.6090372204780579,-0.9618578553199768,17.456308364868164,-38.49165725708008, -1.3196641206741333
452,118124933,0.6663258,-0.1815841,-0.72245306,-0.033159982,10.11731243133545,-1.0213006734848022,-0.8853700160980225,11.262083053588867,-36.7827033996582, 1.9452242851257324
453,118141600,0.66258574,-0.18184966,-0.7258988,-0.03134601,10.093265533447266,-1.3761570453643799,-1.083250641822815,4.334723472595215,-38.959503173828125, 4.587586402893066
454,118158267,0.65841633,-0.18288286,-0.729475,-0.030144837,9.904892921447754,-1.5721644163131714,-1.124601125717163,-2.7300355434417725,-41.11134719848633, 5.369126319885254
455,118174934,0.65405905,-0.1842243,-0.73308784,-0.02917464,9.3313570022583,-1.795365571975708,-0.9855391383171082,-5.513489723205566,-42.00908279418945, 5.780426979064941
456,118191601,0.6497927,-0.18567051,-0.7365441,-0.028278284,9.232257843017578,-1.6649746894836426,-1.0445908308029175,-6.27522611618042,-40.79108428955078, 6.186830043792725
457,118208268,0.6455529,-0.1871421,-0.73991644,-0.027632752,9.485405921936035,-1.5878561735153198,-0.9980771541595459,-7.643771648406982,-39.98222351074219, 5.301584243774414
458,118224935,0.64101374,-0.18855041,-0.7435169,-0.027079703,9.701627731323242,-1.4607590436935425,-1.1433840990066528,-8.175090789794922,-42.404693603515625, 4.214565753936768
459,118241602,0.63613796,-0.18998498,-0.74732506,-0.027209371,9.67253303527832,-1.398285150527954,-1.338226318359375,-12.182129859924316,-44.17703628540039, 1.0067979097366333
460,118258269,0.63099575,-0.1919178,-0.75110775,-0.029153427,9.888073921203613,-0.5277799963951111,-1.3795692920684814,-24.037763595581055,-43.17410659790039, -4.386430263519287
461,118274936,0.6253255,-0.19493675,-0.75490767,-0.032910835,9.795022010803223,-1.1172115802764893,-1.1892553567886353,-38.808433532714844,-43.81786346435547, -6.765164375305176
462,118291603,0.6184305,-0.19815429,-0.75957155,-0.036475226,9.03073787689209,-3.308380603790283,-1.3335939645767212,-40.107154846191406,-54.21242904663086, -6.337708950042725
463,118308270,0.61140585,-0.19940928,-0.76483047,-0.03813118,9.3485746383667,-2.986603021621704,-2.184656858444214,-21.829710006713867,-59.542598724365234, -9.334887504577637
464,118324937,0.60432655,-0.19933861,-0.770428,-0.038667258,9.36729621887207,-2.775726795196533,-2.239851236343384,-10.360040664672852,-62.45206069946289, -12.093558311462402
465,118341604,0.5972476,-0.19856514,-0.77611387,-0.038926225,9.640265464782715,-2.045869827270508,-2.3759665489196777,-5.953042984008789,-63.0189323425293, -14.799558639526367
466,118358271,0.5901847,-0.19807376,-0.7815644,-0.04008313,10.159049987792969,-1.4633551836013794,-2.5064520835876465,-11.945962905883789,-60.82627868652344, -16.66336441040039
467,118374938,0.5830977,-0.1982096,-0.78671247,-0.042362165,10.591328620910645,-1.0619430541992188,-2.6445515155792236,-20.64079475402832,-58.38374710083008, -17.440773010253906
468,118391605,0.5758073,-0.19897231,-0.7916864,-0.045714777,11.138644218444824,-0.8279803395271301,-2.4852418899536133,-29.28803253173828,-57.51930618286133, -18.173561096191406
469,118408272,0.56833,-0.20023794,-0.7964757,-0.05033217,11.679859161376953,-0.7018555402755737,-1.6683623790740967,-38.474605560302734,-56.25105285644531, -20.245019912719727
470,118424939,0.5602114,-0.20185931,-0.8013828,-0.056592852,12.166935920715332,-0.042251091450452805,-1.425438404083252,-49.7069206237793,-58.1120491027832, -25.096895217895508
471,118441606,0.55119336,-0.20322514,-0.80670446,-0.06414351,12.390968322753906,-0.4365192651748657,-0.9892512559890747,-56.9159049987793,-62.809688568115234, -32.389503479003906
472,118458273,0.54132575,-0.2035907,-0.8126183,-0.07190057,12.789121627807617,-0.890650749206543,-0.7528302073478699,-55.19565963745117,-69.07459259033203, -39.91812515258789
473,118474940,0.53075325,-0.2028069,-0.8189885,-0.08018245,13.59996509552002,-1.239913821220398,-0.3962100148200989,-54.61267852783203,-73.45218658447266, -49.28266143798828
474,118491607,0.5190354,-0.20084897,-0.82606393,-0.08877863,13.36977767944336,-1.6487441062927246,0.27815714478492737,-53.30750274658203,-81.44060516357422, -58.66474914550781
475,118508274,0.50669557,-0.19805291,-0.8334006,-0.097361825,13.214792251586914,-0.943169891834259,0.939121663570404,-50.94685745239258,-85.46878051757812, -64.13382720947266
476,118524941,0.4937149,-0.19574498,-0.84042716,-0.10776421,13.543009757995605,-0.7882496118545532,2.763859510421753,-64.1517333984375,-85.97117614746094, -67.6942138671875
477,118541608,0.48014086,-0.19364277,-0.84699017,-0.120731466,14.149650573730469,-1.1478725671768188,4.746911525726318,-80.81311798095703,-84.60795593261719, -75.04557037353516
478,118558275,0.46618772,-0.19262902,-0.8526088,-0.13646375,13.112082481384277,-1.7720584869384766,5.566885471343994,-101.79560089111328,-81.02081298828125, -76.92156219482422
479,118574942,0.4517204,-0.19578156,-0.85635346,-0.15581386,10.864914894104004,-2.3840255737304688,3.4795620441436768,-138.7997283935547,-77.24662780761719, -62.13890838623047
480,118591609,0.43875858,-0.20178819,-0.8580835,-0.17454623,9.80276107788086,-1.9729307889938354,-0.7865909337997437,-144.1638946533203,-66.07941436767578, -39.14213180541992
481,118608276,0.42501298,-0.20667318,-0.8602755,-0.19125302,10.871957778930664,1.1111481189727783,-6.610534191131592,-129.3695831298828,-73.58443450927734, -41.27909851074219
482,118624943,0.41099072,-0.20993303,-0.8626725,-0.20691055,14.563121795654297,-0.16797716915607452,-6.364684581756592,-118.53644561767578,-75.15522766113281, -48.50425720214844
483,118641610,0.39702585,-0.21159035,-0.86596704,-0.21840821,12.849907875061035,-0.2090683877468109,-4.483380317687988,-87.9805679321289,-81.08231353759766, -47.5067138671875
484,118658277,0.38265535,-0.21487056,-0.8686028,-0.23007773,11.210953712463379,0.27172431349754333,-4.310368537902832,-95.02313232421875,-83.90251922607422, -38.001792907714844
485,118674944,0.3693618,-0.22061005,-0.8682808,-0.24696724,12.955610275268555,1.7363905906677246,-2.3278443813323975,-135.7686767578125,-65.87483978271484, -31.011661529541016
486,118691611,0.36053273,-0.22792748,-0.8643631,-0.2663508,9.980411529541016,-2.905153274536133,1.091260313987732,-153.99557495117188,-29.016407012939453, -14.93039608001709
487,118708278,0.35763833,-0.23571517,-0.8589867,-0.28049293,4.757540702819824,-4.783329486846924,2.59975528717041,-117.39314270019531,0.7575265765190125, 13.943748474121094
488,118724945,0.3614051,-0.24275021,-0.85313934,-0.28742522,4.07900333404541,-4.219927787780762,1.7648899555206299,-63.097015380859375,31.00428581237793, 40.7783203125
489,118741612,0.37149554,-0.24776746,-0.84709054,-0.28816837,4.993479251861572,-2.890845537185669,1.0010870695114136,-11.64358901977539,62.242271423339844, 57.11280822753906
490,118758279,0.38649443,-0.25137687,-0.839772,-0.28673336,5.573200225830078,-1.2404112815856934,0.7172125577926636,10.46900463104248,93.13758850097656, 66.34034729003906
491,118774946,0.40519103,-0.25519097,-0.830091,-0.2857412,6.402795791625977,0.4201967418193817,-0.14760026335716248,9.099674224853516,121.11354064941406, 77.70762634277344
492,118791613,0.4265535,-0.2603717,-0.81737727,-0.28662568,7.144198894500732,-0.20471344888210297,-0.698165237903595,-6.694983005523682,145.37823486328125, 90.83795928955078
493,118808280,0.45066726,-0.26593637,-0.802807,-0.28579515,8.138113021850586,-1.3085907697677612,-0.7673496007919312,3.085697650909424,162.4562225341797, 106.7650146484375
494,118824947,0.47730345,-0.27084795,-0.7871513,-0.28145462,9.83822250366211,-0.8304719924926758,-0.538970947265625,26.960908889770508,174.6016387939453, 120.96488952636719
495,118841614,0.5056276,-0.27457482,-0.7701328,-0.2754015,11.40119457244873,0.3883015215396881,-0.9536114931106567,40.62271499633789,187.29742431640625, 125.97191619873047
496,118858281,0.5352512,-0.27706566,-0.7515338,-0.26821417,11.312921524047852,0.9908682703971863,-1.6334394216537476,50.393463134765625,199.8592529296875, 128.82199096679688
497,118874948,0.56548685,-0.2783539,-0.7317237,-0.25947136,11.268547058105469,0.6420832276344299,-2.1071481704711914,61.797271728515625,206.7310028076172, 131.7885284423828
498,118891615,0.5965514,-0.27779716,-0.7109469,-0.2480138,12.584692001342773,-0.3361416161060333,-2.3339173793792725,82.49747467041016,212.76551818847656, 136.41928100585938
499,118908282,0.6279598,-0.27611446,-0.6889894,-0.23392761,13.7333984375,-1.512023687362671,-2.2235920429229736,98.61620330810547,216.20401000976562, 144.56602478027344
500,118924949,0.6585331,-0.27520338,-0.6654048,-0.21871202,14.095525741577148,-3.0291080474853516,-3.448441505432129,96.41850280761719,215.9091796875, 154.86534118652344
501,118941616,0.6883312,-0.27417982,-0.640563,-0.201757,15.687981605529785,-1.6461873054504395,-6.195629119873047,101.52802276611328,214.97569274902344, 163.4502716064453
502,118958283,0.7156367,-0.27386436,-0.61556625,-0.18423332,16.23192596435547,-1.6492398977279663,-8.199166297912598,95.76210021972656,202.75396728515625, 166.12173461914062
503,118974950,0.740271,-0.27114853,-0.5932104,-0.16303436,13.961294174194336,-2.902771472930908,-9.666913032531738,121.46592712402344,174.6758575439453, 165.72589111328125
504,118991617,0.76264393,-0.26334932,-0.57458144,-0.13740014,11.265681266784668,-0.13905221223831177,-10.437318801879883,165.40823364257812,144.03988647460938, 158.1075897216797
505,119008284,0.78067213,-0.25347534,-0.56008846,-0.1122648,12.313380241394043,2.871553421020508,-10.726754188537598,170.3829345703125,108.17041778564453, 135.7440643310547
506,119024951,0.79359907,-0.24417658,-0.54984754,-0.090814695,11.80558967590332,5.325266361236572,-10.31080436706543,147.50230407714844,71.81558227539062, 106.8993911743164
507,119041618,0.8014683,-0.2382136,-0.5433416,-0.075390466,10.001590728759766,6.533507347106934,-10.499811172485352,100.36615753173828,40.4852180480957, 77.29109191894531
508,119058285,0.80416244,-0.2355472,-0.54175633,-0.06589082,8.53007698059082,5.6624298095703125,-10.309675216674805,54.15861129760742,2.1664316654205322, 46.3154296875
509,119074952,0.80271727,-0.23355915,-0.5452684,-0.061471514,8.75567626953125,4.655059814453125,-9.426227569580078,27.108509063720703,-33.38629150390625, 10.704408645629883
510,119091619,0.79751533,-0.23223437,-0.55334616,-0.06201297,8.713471412658691,3.138502836227417,-8.774788856506348,0.7648913264274597,-64.8680419921875, -23.035308837890625
511,119108286,0.7890764,-0.23412982,-0.56393445,-0.06723487,9.950972557067871,0.3087413012981415,-4.204704761505127,-38.78346633911133,-84.74842071533203, -41.78129196166992
512,119124953,0.7812128,-0.24069764,-0.5707158,-0.077817515,15.363546371459961,-5.567663192749023,13.279020309448242,-85.74443817138672,-55.345489501953125, -46.31760025024414
513,119141620,0.77405894,-0.24469991,-0.5781442,-0.081881806,10.670919418334961,-6.770387172698975,7.490996360778809,-44.89430618286133,-65.57278442382812, -22.07442283630371
514,119158287,0.7676991,-0.24366772,-0.5871133,-0.08101175,8.717439651489258,1.1805912256240845,-3.071706771850586,3.7044637203216553,-76.1526870727539, -18.016555786132812
515,119174954,0.7610773,-0.23839656,-0.59763896,-0.08220164,12.390996932983398,-0.9694358706474304,-6.202393531799316,18.200496673583984,-79.5771255493164, -48.724708557128906
516,119191621,0.75457996,-0.22852069,-0.6101331,-0.078268066,17.477018356323242,-1.6054590940475464,-3.1188807487487793,64.67918395996094,-95.08268737792969, -43.98133850097656
517,119208288,0.7465314,-0.2202286,-0.62346226,-0.07406654,12.054644584655762,3.295898675918579,1.6153497695922852,55.6104736328125,-107.14604949951172, -38.08110046386719
518,119224955,0.7381838,-0.21531309,-0.63519096,-0.07251413,8.999850273132324,2.134376049041748,1.1638798713684082,25.648624420166016,-97.93353271484375, -34.88447570800781
519,119241622,0.7306394,-0.21213299,-0.6451932,-0.069944,10.094514846801758,-1.3719508647918701,-0.649088978767395,21.610286712646484,-88.05146789550781, -19.155651092529297
520,119258289,0.7230258,-0.21113265,-0.65422606,-0.06815916,10.737062454223633,-1.2477275133132935,0.18743252754211426,6.616291522979736,-83.39265441894531, -12.056174278259277
521,119274956,0.7150156,-0.21246304,-0.6625602,-0.068021685,10.238639831542969,-0.43812549114227295,0.2032490372657776,-13.277592658996582,-80.41829681396484, -8.933345794677734
522,119291623,0.70691216,-0.21546708,-0.6701344,-0.06906385,9.800654411315918,-1.8363831043243408,-0.1859605312347412,-27.370738983154297,-76.18128967285156, -6.033186435699463
523,119308290,0.69905066,-0.21863586,-0.6771981,-0.07021479,9.668231964111328,-2.44112491607666,-0.5802059769630432,-28.554466247558594,-72.51834106445312, -4.938195705413818
524,119324957,0.69156474,-0.22103718,-0.6839799,-0.07108355,9.501304626464844,-3.211348295211792,-0.7188628315925598,-23.122020721435547,-69.48198699951172, -6.563378810882568
525,119341624,0.6846851,-0.22173578,-0.69066375,-0.0708803,9.32588005065918,-2.7317285537719727,-0.5966233611106873,-9.10837173461914,-66.97215270996094, -9.050474166870117
526,119358291,0.678315,-0.22148456,-0.69708496,-0.070047446,9.289047241210938,-2.337095022201538,-0.8999207615852356,-1.0015097856521606,-63.82512664794922, -9.96617603302002
527,119374958,0.67267054,-0.2215259,-0.70254564,-0.06979412,9.997800827026367,-1.9246511459350586,-1.2211871147155762,7.748647212982178,-57.825401306152344, -10.112722396850586
528,119391625,0.6679787,-0.22013548,-0.7075529,-0.06866268,10.426389694213867,-1.2248413562774658,-1.2925387620925903,17.69589614868164,-51.28152847290039, -11.865428924560547
529,119408292,0.6640014,-0.21749833,-0.71231073,-0.06641431,10.184747695922852,-0.38487115502357483,-0.8950849771499634,19.765844345092773,-45.59429168701172, -11.415186882019043
530,119424959,0.6602967,-0.2153016,-0.7166056,-0.064270355,9.869124412536621,-0.03135177493095398,-0.7502683997154236,17.440324783325195,-42.2058219909668, -8.911980628967285
531,119441626,0.6566081,-0.21388756,-0.7205671,-0.062464837,10.022902488708496,-0.3634587228298187,-0.893792450428009,12.09687328338623,-40.474395751953125, -6.082197189331055
532,119458293,0.65289134,-0.21278991,-0.7243763,-0.061098106,10.345882415771484,-0.8565201759338379,-0.9980623722076416,8.389251708984375,-39.43452835083008, -6.278554916381836
533,119474960,0.64896595,-0.21178646,-0.7283023,-0.05971806,9.887256622314453,-2.088078260421753,-1.1314239501953125,7.77562141418457,-41.07398223876953, -6.006996154785156
534,119491627,0.64510894,-0.20982707,-0.7325153,-0.056826845,9.328150749206543,-2.425389051437378,-1.4516140222549438,19.82130241394043,-43.835323333740234, -4.453803539276123
535,119508294,0.6414177,-0.20742889,-0.73669153,-0.05332169,9.150097846984863,-2.1651506423950195,-1.418217658996582,25.081501007080078,-43.563167572021484, -3.8418235778808594
536,119524961,0.63781923,-0.2054315,-0.74056774,-0.050446767,9.3998384475708,-1.588795781135559,-1.4229567050933838,20.141239166259766,-41.02992630004883, -4.144190788269043
537,119541628,0.63383925,-0.20431231,-0.7444055,-0.04863776,9.76114273071289,-1.4147591590881348,-1.3404313325881958,10.307814598083496,-41.61638641357422, -4.432613372802734
538,119558295,0.6294922,-0.2038566,-0.7482856,-0.047451533,9.64452838897705,-1.4336273670196533,-1.389916181564331,3.726435899734497,-43.0424919128418, -3.937441110610962
539,119574962,0.6248595,-0.20359042,-0.7522728,-0.046780273,9.621567726135254,-1.2820924520492554,-1.4962661266326904,-0.1114032194018364,-44.330928802490234, -5.438063144683838
540,119591629,0.61985046,-0.2035494,-0.75640285,-0.046998393,9.674742698669434,-1.2767075300216675,-1.4796123504638672,-6.1606316566467285,-45.735679626464844, -8.417088508605957
541,119608296,0.6145928,-0.20389977,-0.7605103,-0.04822634,9.781639099121094,-0.9403966665267944,-1.6676025390625,-13.43687915802002,-45.66279220581055, -10.73644733428955
542,119624963,0.6087012,-0.20455703,-0.76494265,-0.050029982,9.421602249145508,-1.671212911605835,-1.5010169744491577,-18.524194717407227,-49.661041259765625, -12.227579116821289
543,119641630,0.6021451,-0.20465575,-0.77003706,-0.050806254,9.001592636108398,-2.9172587394714355,-2.078157424926758,-11.494343757629395,-57.1968879699707, -12.032254219055176
544,119658297,0.59536904,-0.2036055,-0.77560914,-0.050121274,9.211252212524414,-2.4501633644104004,-2.4513118267059326,0.8492202162742615,-62.00491714477539, -12.835281372070312
545,119674964,0.5884864,-0.20242408,-0.78120935,-0.049209762,9.265172004699707,-2.5587589740753174,-2.7556731700897217,2.4508190155029297,-62.96887969970703, -12.699090003967285
546,119691631,0.58166766,-0.20160064,-0.7865409,-0.048731003,9.784353256225586,-1.5525952577590942,-2.9531655311584473,-1.3298550844192505,-61.06473159790039, -12.147090911865234
547,119708298,0.5744904,-0.20185123,-0.79167664,-0.04966003,10.166620254516602,-0.9936319589614868,-3.3600263595581055,-13.801149368286133,-60.63645935058594, -11.821477890014648
548,119724965,0.56714207,-0.20330909,-0.7964315,-0.05209185,10.792768478393555,-1.2330576181411743,-2.3754396438598633,-27.116317749023438,-58.39765548706055, -10.71312141418457
549,119741632,0.55936044,-0.20541231,-0.801125,-0.055873305,11.376911163330078,-1.5188672542572021,-2.254459857940674,-37.65182113647461,-58.897220611572266, -12.511180877685547
550,119758299,0.5511891,-0.20757997,-0.80586416,-0.06070635,12.177322387695312,-0.9454358816146851,-1.6506354808807373,-44.22685241699219,-59.7869758605957, -16.4173583984375
551,119774966,0.54239595,-0.20911556,-0.8109575,-0.06653277,12.976401329040527,-0.166471928358078,-1.306424617767334,-48.078407287597656,-62.93231964111328, -24.445274353027344
552,119791633,0.5328782,-0.20957431,-0.8165982,-0.072720185,13.259798049926758,0.5086396336555481,-0.7148672938346863,-46.862545013427734,-68.04917907714844, -32.90629196166992
553,119808300,0.52260965,-0.20895663,-0.82271993,-0.07968354,14.3540678024292,0.5599150061607361,-0.22170284390449524,-48.111846923828125,-72.42667388916016, -42.84889221191406
554,119824967,0.5109625,-0.20742819,-0.82960266,-0.08747344,14.173391342163086,-0.6642932891845703,0.4636937379837036,-51.07034683227539,-81.34154510498047, -52.810302734375
555,119841634,0.4983974,-0.20540547,-0.8368581,-0.09528191,13.461634635925293,-0.37487784028053284,0.7641836404800415,-50.52464294433594,-87.63783264160156, -56.785377502441406
556,119858301,0.4849047,-0.20422488,-0.84391445,-0.10473456,13.2760009765625,-1.0033844709396362,2.062380075454712,-64.30826568603516,-90.59801483154297, -57.910919189453125
557,119874968,0.47113448,-0.20387006,-0.85015255,-0.11709604,14.473251342773438,-1.185804843902588,3.8749570846557617,-84.91766357421875,-86.07926177978516, -61.89169692993164
558,119891635,0.45721,-0.20456822,-0.8551893,-0.13327909,14.43729305267334,-2.251995086669922,6.075545310974121,-111.85357666015625,-78.69648742675781, -66.58988952636719
559,119908302,0.4435054,-0.20793246,-0.8581387,-0.15383843,13.256522178649902,-2.9957783222198486,6.88709831237793,-147.5762481689453,-67.2640151977539, -61.59326171875
560,119924969,0.43117303,-0.21524316,-0.858067,-0.17743321,10.087867736816406,-1.4634989500045776,3.023808240890503,-178.7674560546875,-49.91962814331055, -41.87118148803711
561,119941636,0.41943112,-0.22285515,-0.8571429,-0.19929978,8.468252182006836,2.1470537185668945,-5.552855014801025,-169.626953125,-46.89997100830078, -33.056766510009766
562,119958303,0.40764236,-0.225549,-0.85801476,-0.21625814,13.692572593688965,2.1490931510925293,-7.866227626800537,-124.11112213134766,-53.10682678222656, -50.724979400634766
563,119974970,0.39415243,-0.2282369,-0.85950667,-0.23195136,13.63020133972168,-0.570155918598175,-6.537120819091797,-118.3422622680664,-66.82119750976562, -50.73678207397461
564,119991637,0.38009018,-0.23011297,-0.8623113,-0.24289969,11.231849670410156,-1.3051140308380127,-6.177443981170654,-86.92082977294922,-79.91511535644531, -45.702877044677734
565,120008304,0.36610213,-0.23383576,-0.86363214,-0.2557947,12.069100379943848,1.6606582403182983,-4.561211585998535,-105.67418670654297,-75.59365844726562, -37.427764892578125
566,120024971,0.35644832,-0.24000666,-0.860221,-0.27452245,12.094154357910156,-0.5469217300415039,0.8980581164360046,-147.83277893066406,-32.88481521606445, -22.384851455688477
567,120041638,0.35191134,-0.24799788,-0.8537098,-0.29297864,5.914173126220703,-4.4740214347839355,1.5802991390228271,-148.09642028808594,1.0381693840026855, 3.74735689163208
568,120058305,0.3531954,-0.2559477,-0.8465636,-0.30508247,2.7342100143432617,-5.591760635375977,0.8567659854888916,-102.08726501464844,25.976451873779297, 31.603200912475586
569,120074972,0.36173472,-0.26090518,-0.8406621,-0.30718878,3.652352809906006,-4.335178375244141,0.9935487508773804,-21.28789710998535,53.86985778808594, 51.42924880981445
570,120091639,0.3752564,-0.2637043,-0.8349405,-0.30416846,4.159130096435547,-1.8077465295791626,0.5844279527664185,23.002229690551758,77.57086944580078, 61.86650085449219
571,120108306,0.39271915,-0.2662037,-0.8271037,-0.30134368,5.7802605628967285,0.18222063779830933,0.2315184473991394,25.367626190185547,106.62181854248047, 71.70823669433594
572,120124973,0.41339582,-0.27024108,-0.81605613,-0.30021188,6.734484672546387,-0.6590322256088257,-0.2892777919769287,10.82227897644043,133.46609497070312, 88.41929626464844
573,120141640,0.43701303,-0.2751015,-0.8029446,-0.2976913,7.607244491577148,-1.83392333984375,-0.5980327725410461,17.476099014282227,151.54112243652344, 106.88174438476562
574,120158307,0.4635579,-0.2796732,-0.78854346,-0.2917143,9.087060928344727,-1.2339670658111572,-0.8428478240966797,40.31768798828125,165.61952209472656, 124.08699798583984
575,120174974,0.4923215,-0.28333327,-0.772546,-0.28375307,10.745668411254883,0.02090725675225258,-1.139738917350769,55.0417594909668,180.73312377929688, 132.98089599609375
576,120191641,0.52260065,-0.28588092,-0.7548073,-0.27464122,11.00818920135498,0.5506197810173035,-1.7759008407592773,64.47248077392578,194.5885772705078, 137.3250732421875
577,120208308,0.55387324,-0.28731936,-0.73542964,-0.26422837,10.780116081237793,0.27794015407562256,-2.001115322113037,74.07605743408203,205.1645965576172, 141.3618927001953
578,120224975,0.5856912,-0.2871945,-0.71479064,-0.25211254,12.085667610168457,-0.5271875858306885,-1.9324100017547607,87.42935180664062,212.20523071289062, 143.4527130126953
579,120241642,0.6183054,-0.284593,-0.6932277,-0.23694256,13.767705917358398,-1.1237787008285522,-2.1152517795562744,112.396240234375,218.1094207763672, 146.81460571289062
580,120258309,0.65028936,-0.2824423,-0.66952896,-0.2215456,15.007155418395996,-1.2456238269805908,-3.1244962215423584,106.83531951904297,223.02052307128906, 153.11264038085938
581,120274976,0.68091106,-0.28224266,-0.64350575,-0.2063997,16.143840789794922,-1.1246976852416992,-5.71116828918457,90.77081298828125,224.69515991210938, 163.4449462890625
582,120291643,0.7087095,-0.2845691,-0.6167646,-0.19066724,16.15055274963379,-1.7497451305389404,-7.677021503448486,75.03448486328125,210.92172241210938, 174.79248046875
583,120308310,0.7329523,-0.28658557,-0.5923025,-0.17271037,14.726428985595703,-3.0601511001586914,-9.1289701461792,81.99117279052734,180.90609741210938, 175.2239990234375
584,120324977,0.75475705,-0.28401154,-0.57195264,-0.1501692,12.019668579101562,-0.7792484760284424,-10.445356369018555,123.9060287475586,146.80516052246094, 168.6581573486328
585,120341644,0.77336603,-0.27757743,-0.55578977,-0.12631306,12.969785690307617,2.6761350631713867,-10.274080276489258,147.225341796875,114.07421875, 148.87591552734375
586,120358311,0.78768677,-0.2703029,-0.54361814,-0.104722574,12.614838600158691,4.137101173400879,-9.876455307006836,138.3246307373047,81.67371368408203, 122.36072540283203
587,120374978,0.79707026,-0.26480064,-0.5355805,-0.087831646,10.290316581726074,5.751892566680908,-10.430109977722168,104.98445892333984,48.438331604003906, 92.39707946777344
588,120391645,0.80040514,-0.26315093,-0.5329949,-0.07759404,8.738917350769043,6.097628593444824,-10.738484382629395,51.67289733886719,6.229835510253906, 56.65079879760742
589,120408312,0.7989923,-0.26202917,-0.5363461,-0.072706595,8.56828784942627,5.22396183013916,-10.052671432495117,23.762060165405273,-34.28532409667969, 15.973466873168945
590,120424979,0.79379576,-0.25985238,-0.54507494,-0.07252261,8.410292625427246,4.604389190673828,-9.612443923950195,8.112126350402832,-68.63815307617188, -25.241592407226562
591,120441646,0.7854828,-0.25896809,-0.5567027,-0.077689946,10.940521240234375,3.0324528217315674,-3.689117670059204,-23.096195220947266,-87.09539794921875, -56.254878997802734
592,120458313,0.7772734,-0.26333046,-0.5642665,-0.09004075,16.675247192382812,-4.899139404296875,14.922505378723145,-80.915283203125,-54.70307540893555, -67.59927368164062
593,120474980,0.770621,-0.26277605,-0.5732488,-0.09207944,10.103095054626465,-7.083309650421143,6.194074630737305,-10.978106498718262,-72.01860046386719, -33.166690826416016
594,120491647,0.76375896,-0.26122236,-0.58311135,-0.091746524,7.519049644470215,-0.7968676686286926,-3.695953845977783,3.83532452583313,-81.22014617919922, -26.31952667236328
595,120508314,0.7573865,-0.25512433,-0.59398776,-0.09196164,11.85082721710205,0.19877929985523224,-4.935781478881836,27.039840698242188,-80.67897033691406, -48.921775817871094
596,120524981,0.7512649,-0.24571036,-0.6058922,-0.09012754,17.9613037109375,2.890059232711792,-2.928290367126465,53.780052185058594,-86.43058013916016, -53.40884780883789
597,120541648,0.74249977,-0.24181364,-0.61826366,-0.08928127,12.99968433380127,-0.04264608770608902,1.0354571342468262,16.99226951599121,-101.54366302490234, -37.878360748291016
598,120558315,0.7342026,-0.23909877,-0.6292478,-0.08846719,8.548988342285156,-0.6278661489486694,0.3978041708469391,10.753725051879883,-93.1499252319336, -30.400741577148438
599,120574982,0.7271423,-0.23540482,-0.63914365,-0.085703015,9.16661548614502,-2.4474539756774902,-0.42840635776519775,25.514631271362305,-84.92610168457031, -22.249908447265625
600,120591649,0.7207381,-0.23174365,-0.648118,-0.082312346,10.02669620513916,-1.032750129699707,0.027183949947357178,28.619028091430664,-78.46502685546875, -17.11812400817871
601,120608316,0.7143055,-0.23009329,-0.65603983,-0.08023346,10.940340042114258,0.17790982127189636,0.009375125169754028,12.176252365112305,-72.4316177368164, -12.998172760009766
602,120624983,0.7073298,-0.23199394,-0.662834,-0.08071732,10.825958251953125,0.2171018272638321,0.011970728635787964,-18.299976348876953,-67.2595443725586, -8.063888549804688
603,120641650,0.69996387,-0.23648079,-0.6687445,-0.083121926,10.297689437866211,-0.5395058393478394,0.013462476432323456,-40.741703033447266,-63.12760925292969, -4.404088497161865
604,120658317,0.6926749,-0.24170524,-0.674061,-0.086153716,9.805730819702148,-1.1411693096160889,0.08671177923679352,-47.38419723510742,-59.33638000488281, -3.0080554485321045
605,120674984,0.6858858,-0.24590117,-0.6791727,-0.08842211,9.519852638244629,-1.3297291994094849,-0.0729585587978363,-38.23491287231445,-56.727821350097656, -3.499457359313965
606,120691651,0.67931306,-0.25007775,-0.6839167,-0.090849325,9.999564170837402,-2.051926612854004,-0.7279197573661804,-38.741119384765625,-53.72438430786133, -3.585859537124634
607,120708318,0.67327106,-0.25398308,-0.68818456,-0.09274434,9.974642753601074,-3.3486032485961914,-1.3962364196777344,-34.35406494140625,-49.7665901184082, -1.2342534065246582
608,120724985,0.66835576,-0.25471583,-0.6927833,-0.092047416,9.975115776062012,-2.8197295665740967,-1.2384777069091797,-21.067012786865234,-44.7639045715332, -3.195992946624756
609,120741652,0.66398203,-0.2564539,-0.69624215,-0.092772536,9.576571464538574,-1.7409193515777588,-0.8108682036399841,-23.738868713378906,-37.10653305053711, -3.0262889862060547
610,120758319,0.65958387,-0.26011455,-0.6987187,-0.09530181,9.25758171081543,-1.9902546405792236,-0.9894153475761414,-30.33975601196289,-33.47185134887695, -1.2230920791625977
611,120774986,0.65548253,-0.26343703,-0.70114124,-0.096671075,9.395073890686035,-3.0441224575042725,-1.2652413845062256,-21.520719528198242,-33.947879791259766, 2.532041311264038
612,120791653,0.65204537,-0.2654236,-0.70359564,-0.096649244,9.95157241821289,-2.224623203277588,-1.3212482929229736,-4.303617000579834,-33.29331588745117, 2.3224856853485107
613,120808320,0.64835393,-0.2679935,-0.7059839,-0.09697589,9.77137279510498,-2.500596046447754,-1.0104817152023315,-7.544868469238281,-34.360137939453125, 3.256290912628174
614,120824987,0.64482355,-0.26967686,-0.7086604,-0.09632451,9.096172332763672,-2.2842483520507812,-0.9170104265213013,1.686789870262146,-36.10924530029297, 2.764705181121826
615,120841654,0.64140064,-0.2703308,-0.71158224,-0.09580215,9.563382148742676,-0.29980289936065674,-0.5017184615135193,7.338796615600586,-36.08855438232422, -3.5055885314941406
616,120858321,0.63717467,-0.27169436,-0.7147689,-0.096419424,9.60872745513916,-0.9166792631149292,-0.5647500157356262,-2.8894104957580566,-39.49302291870117, -6.1602349281311035
617,120874988,0.6325796,-0.2728364,-0.71832496,-0.09702395,9.71525764465332,-1.3104784488677979,-0.9583682417869568,-3.3113210201263428,-42.567359924316406, -8.100646018981934
618,120891655,0.62766325,-0.2737777,-0.72220135,-0.09752302,9.547614097595215,-1.6726996898651123,-1.3550641536712646,-2.8716025352478027,-45.475364685058594, -9.485044479370117
619,120908322,0.6225887,-0.27404627,-0.7264412,-0.09780613,9.388629913330078,-1.8771915435791016,-1.415307641029358,-0.32648783922195435,-47.45933532714844, -12.569308280944824
620,120924989,0.61741996,-0.27255228,-0.73155373,-0.09663294,9.21392822265625,-2.407391309738159,-1.6205217838287354,6.574085235595703,-51.36709976196289, -15.337925910949707
621,120941656,0.6121315,-0.26992807,-0.7371917,-0.09477824,9.237350463867188,-2.4551634788513184,-1.7809978723526,14.920695304870605,-54.736045837402344, -19.2115478515625
622,120958323,0.6066716,-0.26635906,-0.74333864,-0.09192914,9.078521728515625,-2.777297258377075,-2.0530166625976562,23.94796371459961,-58.98777389526367, -20.8909969329834
623,120974990,0.60123324,-0.26162666,-0.74985975,-0.08821318,9.30353832244873,-2.09045672416687,-2.10011887550354,33.50362014770508,-61.29852294921875, -23.915891647338867
624,120991657,0.5958464,-0.25601465,-0.7565481,-0.08402113,9.709521293640137,-1.3300657272338867,-2.2627909183502197,39.783050537109375,-62.05453109741211, -26.766132354736328
625,121008324,0.590147,-0.25041202,-0.7632532,-0.08041111,9.915350914001465,-0.9774391055107117,-2.1517820358276367,36.17625045776367,-62.73909378051758, -29.315479278564453
626,121024991,0.5838114,-0.24537447,-0.76997447,-0.07807562,10.310175895690918,-0.8386462926864624,-2.09702205657959,26.109848022460938,-64.27510070800781, -31.900634765625
627,121041658,0.5766557,-0.24107413,-0.77679133,-0.07712211,10.758204460144043,-0.6998200416564941,-2.395857095718384,14.502484321594238,-67.08077239990234, -34.1431999206543
628,121058325,0.56862146,-0.23764788,-0.78371555,-0.0773575,10.981966972351074,-1.0959422588348389,-2.7140655517578125,3.291489601135254,-70.70951080322266, -34.82789993286133
629,121074992,0.56051433,-0.23518637,-0.79015267,-0.07855572,11.29662036895752,-2.212252378463745,-1.7366864681243896,-6.04653787612915,-68.15447998046875, -32.63681411743164
630,121091659,0.55177164,-0.23385489,-0.79640657,-0.08122486,12.531309127807617,-1.736232876777649,-1.6959147453308105,-19.52529525756836,-69.16908264160156, -32.2280387878418
631,121108326,0.54205996,-0.2333844,-0.80272174,-0.0856826,13.223969459533691,-0.9629167914390564,-0.8974685668945312,-34.11421585083008,-72.35587310791016, -34.94622802734375
632,121124993,0.53137684,-0.23277912,-0.8093414,-0.09176089,14.085548400878906,-0.25562548637390137,-0.3544244170188904,-43.93821334838867,-76.23249816894531, -42.7906494140625
633,121141660,0.51957536,-0.23160025,-0.81645995,-0.09897952,14.4340238571167,-0.38079673051834106,0.45740267634391785,-49.65882110595703,-82.16565704345703, -51.64845275878906
634,121158327,0.5067404,-0.22945918,-0.8240947,-0.10691824,14.513652801513672,-0.5489659905433655,0.9812918901443481,-51.55657196044922,-88.09705352783203, -61.14923095703125
635,121174994,0.49348503,-0.2267025,-0.8316973,-0.115582116,14.2645263671875,-1.1614916324615479,1.6051743030548096,-54.20576095581055,-88.86569213867188, -67.43090057373047
636,121191661,0.4799035,-0.2243417,-0.8387413,-0.12600508,14.075886726379395,-1.7818130254745483,3.38765025138855,-66.55890655517578,-86.51268768310547, -70.54821014404297
637,121208328,0.46582636,-0.2234257,-0.84466004,-0.14013223,13.650252342224121,-1.7480547428131104,5.1222429275512695,-94.43064880371094,-81.32174682617188, -73.17359924316406
638,121224995,0.4509269,-0.22520018,-0.84904283,-0.15835759,12.219067573547363,-2.7925848960876465,5.668485641479492,-129.59442138671875,-77.61791229248047, -69.16291809082031
639,121241662,0.43664655,-0.22983003,-0.8512984,-0.17835332,10.505392074584961,-2.3445122241973877,3.322248697280884,-150.14791870117188,-67.91194915771484, -54.09360885620117
640,121258329,0.42318794,-0.235457,-0.8525146,-0.19670272,8.982009887695312,-0.3969210386276245,-3.9339232444763184,-143.48475646972656,-63.89533996582031, -40.743412017822266
641,121274996,0.40770936,-0.24041755,-0.85420674,-0.21518435,12.618281364440918,1.9735428094863892,-8.340340614318848,-144.9518585205078,-75.99916076660156, -48.59321594238281
642,121291663,0.3922494,-0.24337085,-0.8566895,-0.23020692,14.698358535766602,0.6559922695159912,-6.253183841705322,-117.8011474609375,-80.8267593383789, -51.997596740722656
643,121308330,0.37516147,-0.24598287,-0.8600936,-0.24287066,11.71701431274414,0.3602031171321869,-5.878770351409912,-104.25765228271484,-96.32634735107422, -51.82164001464844
644,121324997,0.35847816,-0.24992616,-0.8619682,-0.25698653,12.194620132446289,0.4682203233242035,-2.8857526779174805,-118.16333770751953,-89.7560806274414, -44.486412048339844
645,121341664,0.3456252,-0.25644228,-0.86024123,-0.2734347,12.654747009277344,-2.6994900703430176,1.955898404121399,-138.11610412597656,-58.75093078613281, -22.095060348510742
646,121358331,0.3381767,-0.2653858,-0.8555975,-0.288376,7.234589576721191,-5.657875061035156,3.6886043548583984,-130.94602966308594,-27.161035537719727, 11.03849983215332
647,121374998,0.33791292,-0.27347392,-0.84989506,-0.2978362,2.944718360900879,-3.771007776260376,2.90883207321167,-85.74173736572266,9.201931953430176, 34.815391540527344
648,121391665,0.34421182,-0.28054696,-0.8429827,-0.30363274,4.2898736000061035,-2.8646762371063232,1.9731836318969727,-52.13935089111328,45.534908294677734, 53.049964904785156
649,121408332,0.35596988,-0.28663352,-0.834925,-0.30663943,5.514787673950195,-2.8870368003845215,0.9796265363693237,-25.516660690307617,76.5439682006836, 67.49494934082031
650,121424999,0.37273875,-0.29148415,-0.82578605,-0.3068896,6.758531093597412,-1.3869643211364746,0.09031479805707932,0.9048175811767578,105.10579681396484, 79.79890441894531
651,121441666,0.39301914,-0.29685456,-0.814351,-0.30699614,7.370077133178711,-0.48266783356666565,-0.5164650678634644,2.572690486907959,129.52130126953125, 95.10211944580078
652,121458333,0.41558927,-0.3033113,-0.8006553,-0.3069849,7.481046199798584,-1.2232298851013184,-0.7518303394317627,0.19012637436389923,145.90164184570312, 110.93563842773438
653,121475000,0.44111726,-0.30886942,-0.78604805,-0.30355352,8.920398712158203,-0.8974604606628418,-0.7120876312255859,25.820215225219727,159.54209899902344, 123.88636779785156
654,121491667,0.46900305,-0.31325173,-0.7702256,-0.29776335,10.946547508239746,0.3795749545097351,-0.9024014472961426,44.60281753540039,173.3954620361328, 132.17552185058594
655,121508334,0.4984886,-0.31618184,-0.75310904,-0.29045847,11.699599266052246,0.8998335003852844,-1.4951025247573853,58.10658645629883,185.72308349609375, 135.44187927246094
656,121525001,0.52893746,-0.31755328,-0.73474026,-0.28203332,11.471175193786621,0.9980685710906982,-1.7196176052093506,68.84082794189453,195.66041564941406, 135.88404846191406
657,121541668,0.55970585,-0.31786877,-0.7150767,-0.27268144,11.95604419708252,0.3275417685508728,-2.338542938232422,75.56326293945312,202.00144958496094, 137.40170288085938
658,121558335,0.5906084,-0.3167442,-0.69485486,-0.26083046,13.093517303466797,-1.1417752504348755,-2.8455522060394287,92.62770080566406,202.05599975585938, 141.4549102783203
659,121575002,0.623053,-0.31072026,-0.67536825,-0.2431798,13.829194068908691,-1.6966272592544556,-3.1426637172698975,114.67967224121094,204.37255859375, 146.2547607421875
660,121591669,0.6536313,-0.3081081,-0.65260136,-0.22792074,13.98879337310791,-2.0147502422332764,-4.568432807922363,109.6541748046875,207.44789123535156, 152.3409881591797
661,121608336,0.68303597,-0.3060428,-0.62820923,-0.21249412,14.91064167022705,-1.2131937742233276,-6.262075424194336,102.90938568115234,208.3482208251953, 157.18695068359375
662,121625003,0.7100594,-0.30531296,-0.60306317,-0.19726977,15.626649856567383,-1.6534862518310547,-7.222636699676514,89.64888763427734,200.18846130371094, 160.1621551513672
663,121641670,0.7347108,-0.30340397,-0.57962394,-0.17939617,13.879509925842285,-2.486340284347534,-8.644559860229492,103.73914337158203,178.19569396972656, 161.45773315429688
664,121658337,0.7575937,-0.29730892,-0.5593669,-0.15737982,12.30897045135498,-0.2036174088716507,-8.995889663696289,141.6649627685547,151.7555694580078, 156.92926025390625
665,121675004,0.7765734,-0.2899555,-0.542622,-0.13572465,12.669841766357422,1.9196275472640991,-9.165750503540039,142.6726531982422,120.71391296386719, 138.875244140625
666,121691671,0.7909194,-0.28373972,-0.5294453,-0.116733305,11.463390350341797,4.126856327056885,-9.986088752746582,120.77436065673828,88.79682159423828, 117.55831909179688
667,121708338,0.7982494,-0.28341883,-0.5211017,-0.104524456,9.115639686584473,6.423436641693115,-12.585700035095215,54.24701690673828,45.66176986694336, 87.19271087646484
668,121725005,0.7989604,-0.2855945,-0.5200112,-0.098424524,8.281634330749512,7.06539249420166,-13.656024932861328,11.007941246032715,-7.527744293212891, 43.85774612426758
669,121741672,0.795296,-0.28610662,-0.52562416,-0.09678422,8.95599365234375,5.856131076812744,-11.719691276550293,0.19244910776615143,-49.88330841064453, -2.5688483715057373
670,121758339,0.7879255,-0.28505668,-0.536741,-0.09912608,8.960468292236328,5.390119552612305,-10.767014503479004,-9.248208999633789,-84.30638122558594, -43.15724182128906
671,121775006,0.777495,-0.28536677,-0.55028117,-0.10610705,11.954060554504395,2.4690909385681152,-3.1112117767333984,-38.051937103271484,-100.3905029296875, -69.99104309082031
672,121791673,0.7696736,-0.28921118,-0.5571058,-0.11659166,18.575998306274414,-12.06202507019043,23.017107009887695,-69.9814682006836,-50.25918960571289, -60.17462921142578
673,121808340,0.7641591,-0.28505367,-0.56745,-0.11316469,8.058267593383789,-4.720176696777344,3.7382655143737793,32.98656463623047,-81.59124755859375, -22.454370498657227
674,121825007,0.758716,-0.27809867,-0.57898784,-0.108557895,6.391186237335205,0.6009056568145752,-5.639614105224609,53.35609817504883,-87.76106262207031, -29.503173828125
675,121841674,0.75401014,-0.26631516,-0.5912395,-0.104792185,13.677536964416504,-0.8186907768249512,-4.339771270751953,77.16305541992188,-83.24283599853516, -53.911415100097656
676,121858341,0.74672705,-0.25745565,-0.6049408,-0.10080884,17.57111358642578,2.4937632083892822,-3.6062867641448975,59.23292922973633,-103.6483383178711, -45.3847770690918
677,121875008,0.7375149,-0.25197324,-0.61897904,-0.09719432,13.572135925292969,1.2298038005828857,0.07808062434196472,37.194393157958984,-115.00605773925781, -35.081268310546875
678,121891675,0.7278135,-0.24927151,-0.63175184,-0.09508569,8.813390731811523,-2.5911290645599365,-0.2828493118286133,14.996015548706055,-109.91049194335938, -28.970787048339844
679,121908342,0.72051626,-0.2427136,-0.6435227,-0.08846212,9.447732925415039,-2.7841310501098633,-0.7768661379814148,57.378841400146484,-99.67243194580078, -19.870006561279297
680,121925009,0.7141872,-0.23675592,-0.65351695,-0.08245713,9.862338066101074,-0.1662932187318802,-0.3501929044723511,52.21275329589844,-85.9135971069336, -16.761255264282227
681,121941676,0.7079515,-0.23443733,-0.6615075,-0.07907091,10.164645195007324,-0.33654963970184326,-0.1906241476535797,21.594282150268555,-73.45999908447266, -9.946259498596191
682,121958343,0.7012542,-0.2353554,-0.6683182,-0.07875031,10.601800918579102,0.4707804024219513,0.2437898814678192,-9.483243942260742,-66.64784240722656, -8.483807563781738
683,121975010,0.6939776,-0.23810568,-0.6746853,-0.08062996,10.467485427856445,-0.5060147643089294,0.18348968029022217,-29.601848602294922,-64.63015747070312, -10.239295959472656
684,121991677,0.68668306,-0.24080032,-0.6809323,-0.082543,9.748706817626953,-1.2181755304336548,-0.06139978766441345,-29.58597183227539,-64.08304595947266, -10.454572677612305
685,122008344,0.67955697,-0.24306329,-0.6870402,-0.084252395,9.604040145874023,-1.834360122680664,-0.6310795545578003,-26.390357971191406,-62.758399963378906, -11.187226295471191
686,122025011,0.6728473,-0.24462512,-0.692922,-0.08540779,10.234441757202148,-1.767025113105774,-0.9639787673950195,-19.93459129333496,-60.27277374267578, -11.301193237304688
