PacketCounter,SampleTimeFine,Quat_W,Quat_X,Quat_Y,Quat_Z,Acc_X,Acc_Y,Acc_Z,Gyr_X,Gyr_Y,Gyr_Z 
1,379392972,0.69999,0.040962134,-0.71219605,-0.03336359,0,0,0,0,0, 0
2,379409639,0.7002303,0.040739413,-0.7119801,-0.03320093,9.77575397491455,0.9880273342132568,-0.2030239999294281,-2.062514066696167,0.7824744582176208, 0.1157245934009552
3,379426306,0.7002137,0.04023479,-0.712027,-0.033157874,9.75883674621582,1.001449704170227,-0.16801951825618744,-2.174518346786499,0.6656933426856995, 0.11590386927127838
4,379442973,0.70024693,0.039894704,-0.712014,-0.03314892,9.760860443115234,0.96930330991745,-0.17550818622112274,-1.9663124084472656,0.5251691937446594, 0.0795082151889801
5,379459640,0.700277,0.03968089,-0.71200335,-0.0330015,9.766274452209473,0.976823091506958,-0.15939699113368988,-1.6658244132995605,0.4075300991535187, -0.0019081461941823363
6,379476307,0.7003245,0.039361976,-0.71197337,-0.03302104,9.753242492675781,1.0041069984436035,-0.15214374661445618,-1.9886467456817627,0.30128857493400574, 0.02097039856016636
7,379492974,0.7003701,0.038976848,-0.71193945,-0.03323979,9.756956100463867,1.008424997329712,-0.14856131374835968,-2.542879819869995,0.11841391026973724, 0.030178161337971687
8,379509641,0.70039886,0.038822167,-0.71191674,-0.033303298,9.76727294921875,1.0058726072311401,-0.15171581506729126,-2.926084518432617,-0.2516576051712036, 0.08401606231927872
9,379526308,0.7004151,0.038597062,-0.71190387,-0.033499163,9.764121055603027,1.0108686685562134,-0.1701103150844574,-2.978346824645996,-0.3169827461242676, -0.03371911868453026
10,379542975,0.7004189,0.03850021,-0.71189964,-0.033618193,9.78211498260498,1.007309913635254,-0.1517559289932251,-3.076610565185547,-0.3507659435272217, -0.130752831697464
11,379559642,0.70040745,0.03818722,-0.71191,-0.033992693,9.767881393432617,0.9943583011627197,-0.18220774829387665,-2.9341139793395996,-0.38287144899368286, -0.2909218370914459
12,379576309,0.70038706,0.037979305,-0.7119291,-0.03424271,9.797988891601562,0.9413906335830688,-0.21390430629253387,-2.663989543914795,-0.37303614616394043, -0.21206034719944
13,379592976,0.70037943,0.03779386,-0.711936,-0.034457706,9.760218620300293,0.9740481376647949,-0.18118755519390106,-2.120116949081421,-0.020118776708841324, -0.37224215269088745
14,379609643,0.70038676,0.03765053,-0.71192855,-0.034620333,9.81338882446289,0.9632040858268738,-0.223428413271904,-1.8863881826400757,0.1383661925792694, -0.3418911099433899
15,379626310,0.7003724,0.03741456,-0.71194416,-0.034846988,9.76639461517334,0.9589850306510925,-0.20337514579296112,-1.5570729970932007,0.10930860787630081, -0.2655012607574463
16,379642977,0.70037997,0.037391707,-0.7119374,-0.034856483,9.769673347473145,0.9907880425453186,-0.20401005446910858,-1.2690964937210083,0.2776736915111542, -0.26197952032089233
17,379659644,0.7003864,0.03733531,-0.7119311,-0.034916528,9.78036117553711,0.9921287894248962,-0.19580426812171936,-1.122182011604309,0.3222653865814209, -0.3014870584011078
18,379676311,0.70043474,0.037644967,-0.71188235,-0.03460865,9.790632247924805,0.9805523753166199,-0.2242213487625122,-0.8694230318069458,0.5686722993850708, -0.22988677024841309
19,379692978,0.700456,0.037287805,-0.71186185,-0.034981757,9.777771949768066,0.9699909687042236,-0.19363127648830414,-0.5516847372055054,0.7050855755805969, -0.347090482711792
20,379709645,0.7005177,0.037353944,-0.7117984,-0.034965795,9.779135704040527,0.9921623468399048,-0.18846872448921204,-0.34283876419067383,0.912971019744873, -0.48874154686927795
21,379726312,0.70058393,0.037404183,-0.7117315,-0.034950368,9.788259506225586,1.013803243637085,-0.16486889123916626,-0.6744078993797302,0.9001007080078125, -0.3826921284198761
22,379742979,0.70064616,0.037325855,-0.71166676,-0.03510374,9.779335021972656,1.0125840902328491,-0.18780769407749176,-1.3834956884384155,0.8261312246322632, -0.5329234600067139
23,379759646,0.70072275,0.03735601,-0.7115867,-0.035169754,9.76724624633789,1.0330073833465576,-0.1643996238708496,-1.9271637201309204,0.856674313545227, -0.5852373838424683
24,379776313,0.7007961,0.03729904,-0.71150887,-0.035336807,9.747453689575195,0.9761800765991211,-0.21289752423763275,-2.6721856594085693,0.7697319984436035, -0.6013093590736389
25,379792980,0.7009027,0.037256435,-0.711398,-0.035499282,9.791099548339844,0.9852244853973389,-0.12890587747097015,-1.6637243032455444,1.2119097709655762, -0.6755350232124329
26,379809647,0.70098644,0.037379697,-0.71130675,-0.03554785,9.861228942871094,0.9512457847595215,-0.11977244913578033,-1.3535159826278687,0.9136625528335571, -0.9288700819015503
27,379826314,0.7010343,0.037508667,-0.71125054,-0.035592917,9.803635597229004,0.9923381209373474,-0.1553608775138855,-0.9609372019767761,0.55800461769104, -0.9808767437934875
28,379842981,0.70108825,0.0375755,-0.7111878,-0.035712823,9.750164031982422,1.0746910572052002,-0.17988620698451996,-1.58712899684906,0.5756005048751831, -1.0371347665786743
29,379859648,0.7011326,0.03758672,-0.71113545,-0.035874434,9.699198722839355,1.059727668762207,-0.15172551572322845,-2.8245558738708496,0.3789847493171692, -0.8988905549049377
30,379876315,0.7011397,0.03752144,-0.7111196,-0.036116894,9.730513572692871,1.0821826457977295,-0.06321293860673904,-3.624222755432129,-0.03608829528093338, -0.8744688630104065
31,379892982,0.70108396,0.03720227,-0.7111673,-0.03658634,9.745502471923828,1.0961753129959106,-0.09926651418209076,-4.825316905975342,-0.7150681614875793, -0.7003664374351501
32,379909649,0.700972,0.036737915,-0.71126974,-0.037203576,9.760974884033203,1.0791460275650024,-0.12883511185646057,-6.091917514801025,-1.345845103263855, -0.664470374584198
33,379926316,0.7008665,0.03625476,-0.7113665,-0.037809677,9.798757553100586,0.9736546277999878,-0.16365806758403778,-6.020853519439697,-1.290265440940857, -0.49657899141311646
34,379942983,0.7007377,0.035826974,-0.71148515,-0.038370226,9.783975601196289,0.9786632061004639,-0.18380068242549896,-5.36852502822876,-1.464150071144104, -0.5812674760818481
35,379959650,0.7006248,0.03548457,-0.711585,-0.038891014,9.760272979736328,1.021437168121338,-0.2442522794008255,-5.282530307769775,-1.3063247203826904, -0.8240886926651001
36,379976317,0.70053613,0.034983713,-0.7116614,-0.039539512,9.780405044555664,1.0248045921325684,-0.16417689621448517,-5.306670665740967,-0.9705549478530884, -0.6874577403068542
37,379992984,0.7004537,0.034876052,-0.7117359,-0.039756946,9.764629364013672,1.034058690071106,-0.18706588447093964,-4.530028820037842,-1.065053105354309, -0.4871407747268677
38,380009651,0.7003753,0.03452048,-0.71180654,-0.0401787,9.782953262329102,1.0998915433883667,-0.1543053537607193,-4.849636554718018,-0.9401910305023193, -0.2863115668296814
39,380026318,0.70028967,0.033954013,-0.7118831,-0.040794317,9.776677131652832,1.0525736808776855,-0.19673512876033783,-5.996957778930664,-1.030258059501648, -0.17928892374038696
40,380042985,0.7002454,0.033696923,-0.71192175,-0.041090474,9.782144546508789,0.9978123903274536,-0.19680216908454895,-5.416881561279297,-0.7377994656562805, -0.10998094081878662
41,380059652,0.7001757,0.033434987,-0.7119847,-0.041400574,9.767887115478516,0.9915817975997925,-0.17616795003414154,-4.244472503662109,-0.8463587760925293, -0.1890089213848114
42,380076319,0.7000905,0.03327223,-0.7120657,-0.041579824,9.748213768005371,1.0371886491775513,-0.18149015307426453,-3.235421657562256,-0.9651761651039124, -0.05677054449915886
43,380092986,0.6999895,0.033101927,-0.71216416,-0.04173064,9.720706939697266,1.0731804370880127,-0.160038024187088,-3.021260976791382,-1.1130894422531128, 0.11603192239999771
44,380109653,0.6998788,0.03296002,-0.71227497,-0.041806307,9.746574401855469,1.104201316833496,-0.17701390385627747,-3.2792835235595703,-1.2833757400512695, 0.36301520466804504
45,380126320,0.69975376,0.032513343,-0.71239924,-0.042131934,9.76093864440918,1.0619754791259766,-0.20576384663581848,-3.570359230041504,-1.311203956604004, 0.6286957859992981
46,380142987,0.699628,0.032168563,-0.7125248,-0.04236157,9.774134635925293,0.9743401408195496,-0.2197619378566742,-3.1218421459198,-1.3196941614151, 0.6052600741386414
47,380159654,0.6995282,0.03211104,-0.71262264,-0.04240499,9.759509086608887,0.9402490854263306,-0.2640947699546814,-2.317155122756958,-1.085978388786316, 0.10512091219425201
48,380176321,0.6994472,0.032045133,-0.7126969,-0.042544484,9.806079864501953,0.8641756772994995,-0.23675251007080078,-1.5128014087677002,-0.7487489581108093, -0.36074209213256836
49,380192988,0.69940615,0.03225183,-0.712733,-0.04245923,9.855050086975098,0.9228009581565857,-0.21160754561424255,-0.20335203409194946,-0.34816622734069824, -0.6298803091049194
50,380209655,0.6993619,0.032294687,-0.7127665,-0.042590164,9.856749534606934,1.0162076950073242,-0.22365348041057587,-0.7251723408699036,-0.30726274847984314, -0.9143733382225037
51,380226322,0.6993323,0.032418225,-0.7127856,-0.04266354,9.810535430908203,1.0274385213851929,-0.23237593472003937,-1.746606707572937,-0.30635347962379456, -1.0033390522003174
52,380242989,0.69930416,0.032271307,-0.7127992,-0.043007795,9.767823219299316,0.9965109825134277,-0.23393112421035767,-1.980860710144043,-0.15317675471305847, -1.024367094039917
53,380259656,0.69930655,0.03249279,-0.71278673,-0.043009344,9.757513999938965,0.9713314771652222,-0.23973718285560608,-0.9514990448951721,0.052064213901758194, -1.1393938064575195
54,380276323,0.69929796,0.032702144,-0.71278524,-0.04301505,9.745990753173828,0.9939022660255432,-0.20009402930736542,0.5944771766662598,0.11896459758281708, -1.1400213241577148
55,380292990,0.69925344,0.03298051,-0.7128203,-0.042946,9.743959426879883,1.0503730773925781,-0.19548843801021576,1.3376938104629517,-0.1958347111940384, -1.1263569593429565
56,380309657,0.6992053,0.03343229,-0.7128608,-0.042707346,9.767114639282227,1.095725655555725,-0.1738390028476715,1.5798487663269043,-0.3086586594581604, -1.1294175386428833
57,380326324,0.6991426,0.033592105,-0.7129117,-0.042757723,9.799293518066406,1.087950348854065,-0.1816764622926712,0.11289438605308533,-0.444009006023407, -1.1039201021194458
58,380342991,0.6990999,0.03370175,-0.712941,-0.042881057,9.781328201293945,1.029273271560669,-0.2047421783208847,-0.41573256254196167,-0.270495742559433, -1.201555848121643
59,380359658,0.6990655,0.03383331,-0.71296054,-0.04301105,9.784686088562012,1.0325493812561035,-0.2291673719882965,-0.15356093645095825,-0.1594134271144867, -1.3464083671569824
60,380376325,0.6990421,0.034066983,-0.712971,-0.04303658,9.759725570678711,1.0884791612625122,-0.2411212921142578,-0.35632386803627014,-0.13701514899730682, -1.3226909637451172
61,380392992,0.6990194,0.03416397,-0.7129804,-0.04317348,9.756028175354004,1.079899549484253,-0.2144564390182495,-0.7511436939239502,-0.103129543364048, -1.1973681449890137
62,380409659,0.6989909,0.034294304,-0.7129974,-0.043248765,9.772819519042969,1.0740545988082886,-0.22159680724143982,-0.8437592387199402,-0.20607979595661163, -1.0495829582214355
63,380426326,0.6989656,0.034460332,-0.71301365,-0.043255545,9.76306438446045,1.0670353174209595,-0.2254137247800827,-0.7757574915885925,-0.20846176147460938, -0.8837790489196777
64,380442993,0.69894445,0.034621637,-0.7130274,-0.04324278,9.778155326843262,1.0443168878555298,-0.2554306089878082,-0.2929580807685852,-0.12717986106872559, -0.7730937600135803
65,380459660,0.69895035,0.034819208,-0.7130164,-0.04317319,9.771303176879883,1.07474684715271,-0.24867872893810272,0.1474330723285675,0.1526324599981308, -0.6779168844223022
66,380476327,0.6989704,0.035083316,-0.712994,-0.04300382,9.796651840209961,1.0646333694458008,-0.25612112879753113,0.37748634815216064,0.2603594660758972, -0.5108965039253235
67,380492994,0.6990229,0.035449296,-0.71294254,-0.042700596,9.76662540435791,1.1044186353683472,-0.21153981983661652,0.44959890842437744,0.5076116323471069, -0.34469568729400635
68,380509661,0.6990596,0.035422605,-0.7129038,-0.042770833,9.781092643737793,1.1328305006027222,-0.22473305463790894,-0.6624467968940735,0.44999590516090393, -0.26177456974983215
69,380526328,0.69913274,0.035354715,-0.7128301,-0.042858116,9.76993179321289,1.122690200805664,-0.24606242775917053,-1.9307748079299927,0.6739532947540283, -0.1140277311205864
70,380542995,0.69921356,0.035192378,-0.71274924,-0.04301675,9.731517791748047,1.0696871280670166,-0.22532573342323303,-2.3476600646972656,0.7462325096130371, 0.0049496544525027275
71,380559662,0.69929117,0.035053704,-0.7126729,-0.04313385,9.743500709533691,1.049781084060669,-0.20047472417354584,-1.8340100049972534,0.748537540435791, 0.08505336940288544
72,380576329,0.69934785,0.034971002,-0.71261716,-0.04320292,9.750274658203125,1.0687963962554932,-0.22088810801506042,-1.1523537635803223,0.5923513770103455, 0.034826867282390594
73,380592996,0.69937193,0.034851745,-0.71259344,-0.043299317,9.752535820007324,1.0894429683685303,-0.19609752297401428,-0.9940544366836548,0.31283989548683167, 0.07192686200141907
74,380609663,0.69939905,0.03478065,-0.7125674,-0.043348156,9.77670669555664,1.0790883302688599,-0.20613978803157806,-1.2990376949310303,0.27703335881233215, 0.0810321718454361
75,380626330,0.69943464,0.03477065,-0.712535,-0.04331566,9.782211303710938,1.0700089931488037,-0.22765424847602844,-1.6384954452514648,0.27210289239883423, 0.19248583912849426
76,380642997,0.69944894,0.034696177,-0.7125214,-0.04336765,9.778410911560059,1.07387375831604,-0.21949565410614014,-1.9226429462432861,0.08780673146247864, 0.09210966527462006
77,380659664,0.6994752,0.034627065,-0.7124969,-0.04340391,9.782622337341309,1.0682545900344849,-0.23319849371910095,-2.0512185096740723,0.18065276741981506, 0.1463189423084259
78,380676331,0.6995361,0.034621194,-0.7124389,-0.04337908,9.778905868530273,1.0641323328018188,-0.21913114190101624,-2.286266565322876,0.4553874433040619, 0.14661350846290588
79,380692998,0.6995996,0.034510355,-0.71237785,-0.043444816,9.772513389587402,1.0521957874298096,-0.2160152941942215,-2.325108051300049,0.5345306396484375, 0.20744365453720093
80,380709665,0.6996779,0.034403767,-0.7123001,-0.043542184,9.768967628479004,1.068737268447876,-0.22773657739162445,-2.7031514644622803,0.655307412147522, 0.036888692528009415
81,380726332,0.69974774,0.034220964,-0.71222943,-0.04371937,9.768532752990723,1.0593360662460327,-0.21092836558818817,-2.7532243728637695,0.6191293597221375, 0.012825560756027699
82,380742999,0.6998141,0.034144472,-0.7121639,-0.043786056,9.762984275817871,1.066651701927185,-0.20937404036521912,-2.916748523712158,0.4997613728046417, 0.04349676892161369
83,380759666,0.69986904,0.033982016,-0.71210676,-0.043963924,9.745255470275879,1.0890215635299683,-0.18149496614933014,-3.2558860778808594,0.4216810464859009, -0.08311320096254349
84,380776333,0.6999058,0.033744127,-0.7120663,-0.044215832,9.759547233581543,1.069387674331665,-0.19433969259262085,-3.6228010654449463,0.24951252341270447, -0.07564711570739746
85,380793000,0.69992614,0.033449754,-0.712042,-0.044509765,9.778693199157715,1.071157455444336,-0.20858433842658997,-3.900238275527954,0.08752501010894775, -0.006287919357419014
86,380809667,0.69995654,0.033226486,-0.71200794,-0.044739857,9.792030334472656,1.0438064336776733,-0.2203541100025177,-3.8947315216064453,0.14935405552387238, -0.03583216667175293
87,380826334,0.6999998,0.032946687,-0.71195835,-0.045055665,9.765362739562988,1.0324913263320923,-0.21266335248947144,-3.4395036697387695,0.38022691011428833, -0.1926843225955963
88,380843001,0.7000457,0.032867115,-0.7119105,-0.04516037,9.761764526367188,1.0634795427322388,-0.18118196725845337,-2.927096366882324,0.333880752325058, -0.13563205301761627
89,380859668,0.7000698,0.032683525,-0.71188265,-0.0453555,9.746033668518066,1.0744966268539429,-0.19900214672088623,-2.5885090827941895,0.21753504872322083, -0.08495733141899109
90,380876335,0.70010024,0.032638144,-0.7118516,-0.045408286,9.758092880249023,1.0765559673309326,-0.17992322146892548,-2.4642491340637207,0.20361456274986267, -0.05516975373029709
91,380893002,0.7001162,0.03269118,-0.7118365,-0.045360062,9.754263877868652,1.0796458721160889,-0.18889565765857697,-2.2742795944213867,0.021162495017051697, -0.03895691782236099
92,380909669,0.7001181,0.032743648,-0.7118366,-0.045292653,9.770819664001465,1.0246747732162476,-0.21017393469810486,-2.2984325885772705,-0.12988200783729553, 0.057634979486465454
93,380926336,0.70012015,0.03274345,-0.7118358,-0.045273382,9.772668838500977,1.037116289138794,-0.20541658997535706,-1.365285038948059,0.009226975031197071, 0.05691782757639885
94,380943003,0.70012593,0.03279689,-0.7118307,-0.04522546,9.77774715423584,1.024490237236023,-0.222482830286026,-0.9849491715431213,0.07182440906763077, -0.07029405236244202
95,380959670,0.7001309,0.032929882,-0.7118262,-0.04512014,9.762774467468262,1.0397214889526367,-0.2104993462562561,-0.7738876342773438,0.055317025631666183, -0.18046706914901733
96,380976337,0.70014256,0.03300991,-0.71181345,-0.04508275,9.770953178405762,1.0453202724456787,-0.2299254685640335,-1.0235987901687622,0.13699592649936676, -0.2560885548591614
97,380993004,0.7001544,0.033040456,-0.7117995,-0.045096733,9.768866539001465,1.0762710571289062,-0.21383066475391388,-1.2677263021469116,0.14717698097229004, -0.26761430501937866
98,381009671,0.7001663,0.032981902,-0.7117836,-0.04520624,9.767455101013184,1.077634334564209,-0.19716718792915344,-1.7823237180709839,0.15270932018756866, -0.29747867584228516
99,381026338,0.7002054,0.03314799,-0.71174496,-0.04508732,9.773446083068848,1.0738338232040405,-0.2144964039325714,-1.937139630317688,0.25733718276023865, -0.2572539448738098
100,381043005,0.70024794,0.03318371,-0.7116993,-0.045121707,9.760171890258789,1.0882879495620728,-0.20207974314689636,-2.2263071537017822,0.35750845074653625, -0.37520045042037964
101,381059672,0.7002798,0.03319696,-0.711664,-0.045174085,9.770100593566895,1.056824803352356,-0.20531395077705383,-2.268542528152466,0.26244693994522095, -0.35419803857803345
102,381076339,0.7003341,0.033165358,-0.7116052,-0.045281794,9.790339469909668,1.0730845928192139,-0.22440531849861145,-2.1959433555603027,0.5256174206733704, -0.4101105332374573
103,381093006,0.7004257,0.033266187,-0.71150726,-0.045330435,9.790315628051758,1.0659198760986328,-0.24192187190055847,-2.525604248046875,0.8140803575515747, -0.7532309889793396
104,381109673,0.7005522,0.033241097,-0.71137035,-0.045539267,9.817809104919434,1.0137159824371338,-0.25554725527763367,-2.882337808609009,1.2208869457244873, -0.9238628149032593
105,381126340,0.7007275,0.03327798,-0.7111841,-0.045724865,9.828840255737305,0.9928886294364929,-0.23554101586341858,-2.810622215270996,1.6927496194839478, -1.1128077507019043
106,381143007,0.7009437,0.033303004,-0.7109542,-0.045968104,9.808674812316895,0.9648955464363098,-0.23573890328407288,-2.341935634613037,2.18507719039917, -1.3489441871643066
107,381159674,0.7011736,0.033505242,-0.7107128,-0.0460488,9.752601623535156,1.0309535264968872,-0.1829063892364502,-1.6507896184921265,2.2982337474823, -1.428048849105835
108,381176341,0.70138985,0.033675097,-0.7104835,-0.046170224,9.76048469543457,1.1158447265625,-0.11827919632196426,-1.685200572013855,2.190526247024536, -1.4765211343765259
109,381193008,0.7015733,0.033838183,-0.71028745,-0.046278242,9.721610069274902,1.121264100074768,-0.11230752617120743,-2.1094367504119873,1.8147494792938232, -1.3749027252197266
110,381209675,0.7016963,0.033958934,-0.71015155,-0.04641064,9.726592063903809,1.1180927753448486,-0.09647133946418762,-2.3035805225372314,1.2174932956695557, -1.2901885509490967
111,381226342,0.70176286,0.034124874,-0.7100737,-0.046475556,9.718082427978516,1.0884332656860352,-0.09322404116392136,-2.1657583713531494,0.6378521919250488, -1.183921456336975
112,381243009,0.7017568,0.03429468,-0.71006864,-0.04651818,9.728405952453613,1.086121678352356,-0.09190808981657028,-1.4493842124938965,-0.0002305142697878182, -1.1079668998718262
113,381259676,0.7016884,0.034565277,-0.7101298,-0.046414983,9.71754264831543,1.1340053081512451,-0.09227800369262695,-0.9728344082832336,-0.6492564082145691, -0.8942034244537354
114,381276343,0.7015563,0.03467594,-0.71025383,-0.04643247,9.714315414428711,1.1501703262329102,-0.10066749155521393,-0.9841935634613037,-1.1942178010940552, -0.7125837206840515
115,381293010,0.70136106,0.03475156,-0.7104428,-0.046435833,9.708646774291992,1.138948917388916,-0.12068362534046173,-1.3618656396865845,-1.8628758192062378, -0.4710175395011902
116,381309677,0.7011555,0.034917705,-0.71064734,-0.04628351,9.73323917388916,1.1606130599975586,-0.14631372690200806,-1.3164416551589966,-2.0573019981384277, -0.1453392654657364
117,381326344,0.7009169,0.035043783,-0.7108849,-0.0461531,9.747878074645996,1.1727557182312012,-0.1504354327917099,-1.7203537225723267,-2.4114866256713867, -0.05218587815761566
118,381343011,0.70068556,0.035116527,-0.71111983,-0.04599138,9.797709465026855,1.1453646421432495,-0.21023039519786835,-1.8463045358657837,-2.3738110065460205, 0.36743342876434326
119,381359678,0.70047224,0.03496124,-0.7113358,-0.046019804,9.801355361938477,1.1468470096588135,-0.2225048989057541,-2.315080404281616,-2.1244454383850098, 0.5487968921661377
120,381376345,0.70031464,0.035034083,-0.7115004,-0.04581647,9.799042701721191,1.0836046934127808,-0.26647019386291504,-2.4201056957244873,-1.7413434982299805, 0.5898541212081909
121,381393012,0.7001923,0.034897793,-0.7116277,-0.04581397,9.807610511779785,1.077898621559143,-0.2534423768520355,-2.1671159267425537,-1.2334434986114502, 0.6139683723449707
122,381409679,0.7001157,0.03474518,-0.7117107,-0.045811497,9.795793533325195,1.1056087017059326,-0.24182231724262238,-2.1395442485809326,-0.7812258005142212, 0.6919206380844116
123,381426346,0.700066,0.034576107,-0.7117657,-0.0458462,9.772093772888184,1.102270245552063,-0.23040476441383362,-2.6416425704956055,-0.5494436025619507, 0.5991386771202087
124,381443013,0.7000453,0.034375552,-0.7117893,-0.045945603,9.782118797302246,1.0816658735275269,-0.2389594316482544,-3.4520537853240967,-0.31461358070373535, 0.44827982783317566
125,381459680,0.70003325,0.034085914,-0.71180135,-0.04615978,9.772797584533691,1.0943347215652466,-0.23668479919433594,-3.884089231491089,-0.20307029783725739, 0.32099756598472595
126,381476347,0.7000184,0.03377688,-0.71181333,-0.046427347,9.758654594421387,1.1027802228927612,-0.1969449818134308,-4.434109210968018,-0.25361695885658264, 0.160508394241333
127,381493014,0.6999958,0.033539213,-0.7118307,-0.046671096,9.719635963439941,1.1641039848327637,-0.1658758521080017,-4.443675518035889,-0.3414941430091858, -0.06830906867980957
128,381509681,0.6999561,0.033218775,-0.71186495,-0.04697229,9.790021896362305,1.0364596843719482,-0.24433553218841553,-5.092727184295654,-0.5453456044197083, 0.06332098692655563
129,381526348,0.69992584,0.032984737,-0.7118868,-0.047256928,9.747848510742188,1.0314759016036987,-0.17118285596370697,-4.748762130737305,-0.420983225107193, -0.2823416292667389
130,381543015,0.6999017,0.032965586,-0.7119043,-0.047363635,9.786115646362305,1.0156786441802979,-0.22443650662899017,-3.7457168102264404,-0.36349543929100037, -0.4681873917579651
131,381559682,0.69984686,0.032829855,-0.711948,-0.04761035,9.735822677612305,1.0755809545516968,-0.1591280996799469,-3.5890052318573,-0.5475611090660095, -0.6023723483085632
132,381576349,0.6997702,0.032736734,-0.7120153,-0.047796182,9.720934867858887,1.1035341024398804,-0.16764819622039795,-3.0622031688690186,-0.739169716835022, -0.5217562913894653
133,381593016,0.6996719,0.03269827,-0.7121057,-0.047912963,9.74644660949707,1.1061419248580933,-0.22269800305366516,-2.91986083984375,-0.9782258868217468, -0.4511549174785614
134,381609683,0.69958466,0.032585196,-0.7121836,-0.0481069,9.781896591186523,1.0102177858352661,-0.24773530662059784,-2.783729076385498,-0.8028172254562378, -0.4701339304447174
135,381626350,0.6995321,0.032762524,-0.71223,-0.04806215,9.8157320022583,0.9531110525131226,-0.2932017147541046,-1.1786580085754395,-0.4374137222766876, -0.730909526348114
136,381643017,0.6995422,0.033089876,-0.7122147,-0.04791647,9.818378448486328,0.9645911455154419,-0.30875536799430847,0.4467815160751343,0.2970496714115143, -0.9916980266571045
137,381659684,0.69960326,0.033652693,-0.7121498,-0.047596414,9.79524040222168,1.038698434829712,-0.27630043029785156,1.2203618288040161,0.7720243334770203, -1.2915714979171753
138,381676351,0.6997065,0.034043726,-0.71203923,-0.04745508,9.7760591506958,1.1367470026016235,-0.25912171602249146,0.6605066061019897,1.2411079406738281, -1.3315527439117432
139,381693018,0.6998503,0.03422694,-0.71188676,-0.047490217,9.78329086303711,1.1443101167678833,-0.2510295510292053,-0.7169251441955566,1.5963436365127563, -1.166786551475525
140,381709685,0.7000295,0.034409035,-0.71170235,-0.047483716,9.758810997009277,1.110763430595398,-0.2307313084602356,-1.1231424808502197,1.8685935735702515, -0.9458386301994324
141,381726352,0.70020735,0.034686543,-0.71152484,-0.047319103,9.708166122436523,1.1737333536148071,-0.18943190574645996,-0.7528468370437622,1.798530101776123, -0.6392033696174622
142,381743019,0.70037127,0.03512248,-0.7113691,-0.046911538,9.722314834594727,1.2123439311981201,-0.16566309332847595,-0.6753427982330322,1.5139858722686768, -0.2134818434715271
143,381759686,0.7004925,0.035267323,-0.7112571,-0.046688452,9.766715049743652,1.1810883283615112,-0.17437435686588287,-0.7447660565376282,1.214547872543335, 0.2915685772895813
144,381776353,0.70061415,0.03540142,-0.7111492,-0.046404008,9.774779319763184,1.130221962928772,-0.1726834774017334,-0.6958458423614502,1.1861177682876587, 0.6470984220504761
145,381793020,0.70070714,0.03546038,-0.7110699,-0.046170928,9.783270835876465,1.1098304986953735,-0.2045077532529831,-0.5251883864402771,0.9645551443099976, 0.7544668912887573
146,381809687,0.70079076,0.035487644,-0.7109986,-0.045977615,9.769182205200195,1.118200659751892,-0.17960840463638306,-0.834705114364624,0.8649216890335083, 0.7149720788002014
147,381826354,0.7008902,0.035490546,-0.7109127,-0.045789514,9.757826805114746,1.1278722286224365,-0.18658186495304108,-1.2865772247314453,0.9707150459289551, 0.8142597675323486
148,381843021,0.70095897,0.035351597,-0.71085405,-0.04575568,9.736572265625,1.1292015314102173,-0.1448744833469391,-1.9731639623641968,0.6953400373458862, 0.7518032789230347
149,381859688,0.7009885,0.03520137,-0.710833,-0.045745287,9.7317533493042,1.1533252000808716,-0.14840459823608398,-2.9336018562316895,0.21602393686771393, 0.7022938132286072
150,381876355,0.70101035,0.03505347,-0.710821,-0.04571176,9.750959396362305,1.1012771129608154,-0.17102773487567902,-3.1444709300994873,0.10134304314851761, 0.8092523217201233
151,381893022,0.7010069,0.03484141,-0.7108339,-0.045722943,9.760629653930664,1.0834071636199951,-0.15960632264614105,-2.8765625953674316,-0.08153802901506424, 0.8953239321708679
152,381909689,0.7009855,0.034706082,-0.71086645,-0.04565071,9.757484436035156,1.0601664781570435,-0.1858382523059845,-2.0046546459198,-0.20714271068572998, 0.9188235402107239
153,381926356,0.7009686,0.034680195,-0.7108972,-0.04544887,9.759814262390137,1.0693861246109009,-0.19406287372112274,-1.340261459350586,-0.16691797971725464, 1.01310396194458
154,381943023,0.7009509,0.034670655,-0.710928,-0.045245163,9.768640518188477,1.0527993440628052,-0.19130130112171173,-0.9244006872177124,-0.12703900039196014, 0.9357024431228638
155,381959690,0.7009331,0.03473803,-0.71096253,-0.044925142,9.770140647888184,1.0570329427719116,-0.18989680707454681,-0.4700954556465149,-0.14763158559799194, 1.1243014335632324
156,381976357,0.70090276,0.034747798,-0.71100676,-0.044692438,9.755379676818848,1.0845887660980225,-0.20471017062664032,-0.934556245803833,-0.2645792067050934, 0.9783347249031067
157,381993024,0.70090395,0.034727555,-0.7110205,-0.04447027,9.800786972045898,1.0380885601043701,-0.2163086235523224,-0.5253549218177795,0.10080518573522568, 1.0686194896697998
158,382009691,0.70094347,0.034738805,-0.71099716,-0.04421105,9.768196105957031,1.0191566944122314,-0.21180333197116852,-0.2965950667858124,0.4776320457458496, 1.093348503112793
159,382026358,0.7009961,0.034969162,-0.71096283,-0.04374579,9.763922691345215,1.0071325302124023,-0.20435361564159393,0.8068704009056091,0.605721116065979, 1.024565577507019
160,382043025,0.7010295,0.03520122,-0.7109454,-0.04330498,9.747821807861328,0.9960020780563354,-0.19820789992809296,1.4408488273620605,0.5096479058265686, 0.8829017281532288
161,382059692,0.7010475,0.035495307,-0.7109452,-0.042776402,9.772270202636719,1.021567702293396,-0.21177928149700165,2.2961337566375732,0.4078117907047272, 0.9960459470748901
162,382076359,0.70104676,0.03583871,-0.7109629,-0.04220154,9.766108512878418,1.0469796657562256,-0.19447559118270874,2.4583261013031006,0.22488589584827423, 0.9778351783752441
163,382093026,0.7010421,0.036227103,-0.71098685,-0.04153703,9.832545280456543,1.0543475151062012,-0.01417642179876566,3.291520357131958,0.23192940652370453, 1.1865147352218628
164,382109693,0.7012487,0.03702994,-0.71082747,-0.04004222,10.092899322509766,1.0600249767303467,0.6399564743041992,8.9307861328125,2.4293973445892334, 3.179760217666626
165,382126360,0.7027578,0.038227458,-0.7093486,-0.038661513,9.802960395812988,0.9557976722717285,-0.23133131861686707,10.228704452514648,15.257893562316895, 0.712821364402771
166,382143027,0.7037008,0.03942005,-0.70842737,-0.037173152,9.54737377166748,1.0557857751846313,-0.4954396188259125,10.466130256652832,9.773755073547363, 1.2497917413711548
167,382159694,0.70421654,0.0401805,-0.70793116,-0.036030483,9.552291870117188,1.3083611726760864,-0.21940530836582184,6.265284061431885,5.386498928070068, 1.691866397857666
168,382176361,0.7044158,0.040213667,-0.70775497,-0.035554383,9.5856351852417,1.1938544511795044,-0.34274184703826904,-0.9242854118347168,1.8764309883117676, 2.032630205154419
169,382193028,0.70451623,0.03968378,-0.7076884,-0.035485107,9.708951950073242,1.1301077604293823,-0.21623952686786652,-4.323718547821045,0.7662615776062012, 2.812883138656616
170,382209695,0.7045727,0.03921341,-0.7076724,-0.03520828,9.7291259765625,1.103322982788086,-0.24531926214694977,-3.507236957550049,0.33284345269203186, 3.5391182899475098
171,382226362,0.70468295,0.038599215,-0.7076098,-0.034936525,9.822166442871094,1.1126813888549805,-0.1276620328426361,-3.691648244857788,0.8556113839149475, 4.217611789703369
172,382243029,0.7048295,0.03797253,-0.70751476,-0.034588654,9.809920310974121,0.9339459538459778,0.08409254997968674,-3.67193865776062,1.182134985923767, 4.65357780456543
173,382259696,0.7050576,0.037638035,-0.70733863,-0.03390047,9.938395500183105,0.8461806178092957,0.3260610103607178,-0.8659397959709167,2.098839521408081, 4.876127243041992
174,382276363,0.70530933,0.03752151,-0.70713925,-0.032942727,9.848165512084961,0.7792019248008728,0.20471681654453278,2.1220827102661133,2.488664150238037, 5.111430644989014
175,382293030,0.7054156,0.03770282,-0.70707995,-0.03170714,9.733372688293457,0.749676525592804,-0.23763242363929749,4.776571273803711,1.2055964469909668, 5.002155303955078
176,382309697,0.70531446,0.037846453,-0.7072239,-0.030555332,9.725349426269531,0.875186562538147,-0.1697719842195511,4.689589977264404,-0.7659351229667664, 4.773138523101807
177,382326364,0.70497143,0.03785201,-0.7076084,-0.029546566,9.697250366210938,0.8803393840789795,-0.12162839621305466,2.7732856273651123,-3.232207775115967, 4.760037422180176
178,382343031,0.7044776,0.03769458,-0.70815027,-0.028527765,9.808414459228516,0.7294174432754517,-0.19533656537532806,2.3063149452209473,-4.735263347625732, 5.610378742218018
179,382359698,0.7038379,0.037621547,-0.70883775,-0.027314644,9.801790237426758,0.6429501175880432,-0.20487090945243835,4.234555244445801,-6.029563903808594, 6.1394877433776855
180,382376365,0.70301664,0.0379024,-0.7096992,-0.025653865,9.965916633605957,0.43637335300445557,-0.2754991054534912,7.7054762840271,-7.612265586853027, 6.580758571624756
181,382393032,0.70196277,0.038690966,-0.7107841,-0.023178535,9.926006317138672,0.6957494616508484,-0.11288642883300781,14.918603897094727,-9.455925941467285, 8.027676582336426
182,382409699,0.70052695,0.03982008,-0.712234,-0.01998018,9.670614242553711,1.019793152809143,0.1283617466688156,19.885215759277344,-12.87116813659668, 9.882805824279785
183,382426366,0.6985901,0.040756643,-0.71416676,-0.016636608,9.537631034851074,1.0370509624481201,0.3327435553073883,19.836153030395508,-17.65727996826172, 11.60373306274414
184,382443033,0.6961684,0.041674893,-0.71654886,-0.013061905,9.739297866821289,0.8241307139396667,0.42243972420692444,20.968767166137695,-22.172245025634766, 12.895153999328613
185,382459700,0.69334483,0.04258635,-0.71928847,-0.00914122,10.137943267822266,1.013592004776001,0.21656864881515503,22.895889282226562,-25.796037673950195, 14.655488014221191
186,382476367,0.69018537,0.042867362,-0.7223421,-0.0053405715,10.411552429199219,1.283268928527832,0.3354004919528961,20.244701385498047,-29.00716781616211, 17.258384704589844
187,382493034,0.6865797,0.04258457,-0.7258049,-0.0015639651,10.600333213806152,0.9790396094322205,0.6689579486846924,18.34451675415039,-33.196720123291016, 20.03968048095703
188,382509701,0.6822517,0.04223495,-0.7298901,0.0030568545,11.159369468688965,0.6872483491897583,1.3758150339126587,22.57896614074707,-39.56455612182617, 24.53076171875
189,382526368,0.6769014,0.0417205,-0.73483616,0.008933798,11.792792320251465,0.09738689661026001,1.4267526865005493,27.8770694732666,-48.514183044433594, 31.548023223876953
190,382543035,0.6705905,0.041384,-0.7404869,0.016580814,12.586503982543945,-0.5233941078186035,1.5995739698410034,37.88145446777344,-56.29412841796875, 39.112327575683594
191,382559702,0.66359615,0.042944614,-0.7463927,0.02634457,12.689606666564941,2.217897891998291,1.4821057319641113,59.99013137817383,-60.68315124511719, 39.0316047668457
192,382576369,0.65649414,0.04491628,-0.7521699,0.035192307,11.981391906738281,0.642879068851471,2.2842817306518555,58.0080680847168,-61.198360443115234, 32.67536544799805
193,382593036,0.64944386,0.05049925,-0.7572298,0.04770348,12.286049842834473,-0.3139762878417969,0.912151038646698,94.4596939086914,-57.69917678833008, 30.117353439331055
194,382609703,0.64243364,0.056843594,-0.7618676,0.06004889,11.244051933288574,-0.10050840675830841,0.9932183623313904,95.15504455566406,-56.1014404296875, 25.486797332763672
195,382626370,0.63571143,0.06298185,-0.7660495,0.07122197,10.19467830657959,0.3825775682926178,-0.40657275915145874,88.43262481689453,-53.09605026245117, 21.041263580322266
196,382643037,0.6296524,0.069992594,-0.76941085,0.08152167,9.83987808227539,0.7346600890159607,-0.8776934146881104,85.93643951416016,-46.809871673583984, 12.331060409545898
197,382659704,0.62456334,0.07892222,-0.77156407,0.09154724,9.016843795776367,1.6998120546340942,-0.37799617648124695,92.48112487792969,-37.66366195678711, 0.051886752247810364
198,382676371,0.6216689,0.08851154,-0.77180374,0.10006342,8.89086627960205,1.185501217842102,2.767258882522583,87.25032806396484,-19.09217643737793, -12.198987007141113
199,382693038,0.6214997,0.10046444,-0.76902264,0.11067606,8.023199081420898,0.9418703317642212,3.853855609893799,109.01598358154297,7.705767631530762, -19.402217864990234
200,382709705,0.6241512,0.11265502,-0.7637359,0.12021634,7.861635208129883,1.7408256530761719,4.027710914611816,104.24919128417969,32.15152359008789, -28.988088607788086
201,382726372,0.6297698,0.12203608,-0.7567822,0.12561148,8.345510482788086,1.520941138267517,4.513278007507324,69.53829193115234,53.73955154418945, -35.61658477783203
202,382743039,0.6380405,0.12872669,-0.7484314,0.12721837,8.540772438049316,0.6309023499488831,3.7670938968658447,37.16383743286133,72.4559555053711, -41.35480880737305
203,382759706,0.6484626,0.1334685,-0.73871285,0.12643634,9.203825950622559,0.08107902109622955,3.0151073932647705,15.77916145324707,88.88162994384766, -44.85858917236328
204,382776373,0.66042536,0.13604693,-0.7280941,0.1233238,9.67667007446289,-0.08081232756376266,2.5892326831817627,-6.335050582885742,100.27847290039062, -46.404571533203125
205,382793040,0.67354625,0.13657798,-0.7167013,0.11841092,10.166680335998535,-0.09177079796791077,1.849478840827942,-24.905223846435547,109.49039459228516, -46.056800842285156
206,382809707,0.68747,0.13551842,-0.70459044,0.11212568,10.643930435180664,0.05988280847668648,1.3915265798568726,-39.10340118408203,116.68181610107422, -45.926822662353516
207,382826374,0.7018324,0.13303724,-0.69193405,0.10468869,10.642580032348633,0.03805934265255928,1.0815962553024292,-51.30025863647461,121.35322570800781, -45.35615539550781
208,382843041,0.7162839,0.12902546,-0.6789502,0.096522346,10.709903717041016,-0.16778890788555145,0.5739841461181641,-61.99618148803711,123.771240234375, -41.994041442871094
209,382859708,0.7302268,0.12439844,-0.66590565,0.088677004,10.561967849731445,0.18509484827518463,-0.1681331992149353,-63.12953186035156,122.40750885009766, -37.31852722167969
210,382876375,0.74366856,0.11939174,-0.65286905,0.0804043,10.656024932861328,0.9046772718429565,-0.6992320418357849,-66.61840057373047,120.01683807373047, -37.462432861328125
211,382893042,0.756834,0.11306972,-0.63982874,0.07097162,10.849533081054688,0.8719797730445862,-0.5599596500396729,-78.57572937011719,118.67927551269531, -37.38999557495117
212,382909709,0.76940995,0.10663018,-0.62677455,0.06157916,10.676508903503418,0.6696667671203613,-0.4718548655509949,-78.40839385986328,116.39177703857422, -36.393924713134766
213,382926376,0.7811951,0.10076735,-0.61382675,0.052888077,10.353318214416504,0.6641255021095276,-0.6877543330192566,-72.3367919921875,112.79350280761719, -34.909420013427734
214,382943043,0.7921202,0.09532647,-0.6012214,0.044625826,10.200239181518555,0.9442211389541626,-0.8118031024932861,-67.71778106689453,107.64569091796875, -33.856407165527344
215,382959710,0.8021579,0.090599276,-0.58906066,0.03663647,9.949434280395508,1.1640156507492065,-1.0142844915390015,-62.77434158325195,101.65550231933594, -34.93307113647461
216,382976377,0.81126845,0.08681751,-0.5774624,0.029045064,9.719588279724121,1.3022319078445435,-1.0090751647949219,-55.78059387207031,94.9891357421875, -36.08541488647461
217,382993044,0.8193322,0.08391324,-0.56671935,0.021973804,9.727996826171875,1.3984349966049194,-1.0779263973236084,-48.425132751464844,86.40388488769531, -35.9756965637207
218,383009711,0.8263758,0.081103705,-0.55704826,0.014920279,9.541337966918945,1.6885217428207397,-0.6768310070037842,-47.68632888793945,76.57917022705078, -35.58779525756836
219,383026378,0.8323679,0.07745957,-0.5487331,0.0074754213,9.262041091918945,1.817644476890564,-0.2670721411705017,-53.598609924316406,64.91178894042969, -33.791996002197266
220,383043045,0.83726543,0.0734352,-0.54184324,-0.00026780576,8.933117866516113,2.1922526359558105,0.32476168870925903,-56.344783782958984,52.68533706665039, -33.216060638427734
221,383059712,0.8411499,0.068382196,-0.5363948,-0.008461023,8.806166648864746,1.849713921546936,0.25940418243408203,-63.42910385131836,40.549766540527344, -31.21038246154785
222,383076379,0.8439784,0.063070916,-0.53240603,-0.01631948,8.611595153808594,1.9010897874832153,0.17535333335399628,-63.1173210144043,28.525423049926758, -27.675954818725586
223,383093046,0.8457874,0.05759043,-0.5298546,-0.024105242,8.355454444885254,2.0677285194396973,0.5458956956863403,-63.29328918457031,16.63039207458496, -26.120363235473633
224,383109713,0.84659725,0.052264012,-0.5287054,-0.031816725,8.220515251159668,1.7607142925262451,0.20694276690483093,-61.53594207763672,5.0381550788879395, -25.828201293945312
225,383126380,0.8463602,0.048491005,-0.52900505,-0.03843087,8.639398574829102,1.1734617948532104,-0.6605324745178223,-47.783138275146484,-6.299662113189697, -24.739410400390625
226,383143047,0.8448924,0.04662873,-0.53113776,-0.043307118,8.659783363342285,0.6774259209632874,-0.9663779139518738,-29.535926818847656,-20.1617374420166, -21.315021514892578
227,383159714,0.8422921,0.046175282,-0.53492,-0.047670245,8.782459259033203,0.9418627023696899,0.5381563901901245,-18.610368728637695,-33.07594299316406, -23.28270721435547
228,383176381,0.83892566,0.045182705,-0.5398475,-0.052220512,9.682416915893555,0.4965921640396118,4.158844947814941,-21.904937744140625,-42.627620697021484, -22.314207077026367
229,383193048,0.83601683,0.04316466,-0.543912,-0.058073103,9.906549453735352,2.146958351135254,9.739518165588379,-33.02817916870117,-36.7105598449707, -26.1239070892334
230,383209715,0.83317226,0.03737054,-0.54767615,-0.06692219,9.551284790039062,1.0990352630615234,6.08164119720459,-66.11157989501953,-37.38666534423828, -29.287691116333008
231,383226382,0.8296381,0.02859059,-0.5524845,-0.075128764,10.781702041625977,-0.977687656879425,0.6809651851654053,-80.06466674804688,-47.252174377441406, -14.397064208984375
232,383243049,0.8252654,0.019751307,-0.5586364,-0.08045089,13.192789077758789,-0.7415018081665039,-1.7732429504394531,-68.5187759399414,-57.38712692260742, 2.0432403087615967
233,383259716,0.8195928,0.017031323,-0.5664404,-0.08439845,12.781757354736328,4.184780597686768,1.0225658416748047,-27.36541175842285,-67.86394500732422, -14.211407661437988
234,383276383,0.8131666,0.005241544,-0.5742687,-0.09459598,11.103118896484375,-0.07649679481983185,2.3656744956970215,-102.7798080444336,-76.77249145507812, -14.405326843261719
235,383293050,0.8070823,-0.0034968378,-0.58165264,-0.10142078,9.737507820129395,-1.6482504606246948,1.9892971515655518,-72.63377380371094,-70.7547378540039, -7.401059150695801
236,383309717,0.801339,-0.008741243,-0.58863086,-0.10626951,10.073474884033203,-1.9506036043167114,1.742431402206421,-45.308834075927734,-64.66443634033203, -10.159401893615723
237,383326384,0.79626083,-0.0067550805,-0.5955617,-0.10596944,10.344253540039062,-1.2021691799163818,1.1671385765075684,15.667552947998047,-56.647071838378906, -10.602343559265137
238,383343051,0.79160947,0.00015816162,-0.60227364,-0.10305777,9.362323760986328,-0.27656689286231995,2.2724409103393555,53.408748626708984,-50.13177490234375, -16.2095890045166
239,383359718,0.78736776,0.009747272,-0.60848355,-0.09851291,10.021082878112793,-0.7357448935508728,1.4081333875656128,74.29753875732422,-43.809303283691406, -18.221220016479492
240,383376385,0.7830033,0.01940592,-0.6145453,-0.09414529,9.972514152526855,2.049961805343628,2.133326530456543,74.04109954833984,-43.41606903076172, -19.615894317626953
241,383393052,0.77842844,0.024691544,-0.6203153,-0.09299693,9.35938549041748,3.0519754886627197,2.1796698570251465,37.31829833984375,-45.90060043334961, -18.475200653076172
242,383409719,0.7738123,0.026113886,-0.62578696,-0.09446362,8.978981018066406,2.930189609527588,2.1438071727752686,5.068241596221924,-47.43099594116211, -16.077747344970703
243,383426386,0.76924187,0.025984399,-0.6310549,-0.09675547,9.28598690032959,2.0781164169311523,1.8298860788345337,-7.341880798339844,-47.391632080078125, -13.848038673400879
244,383443053,0.76468825,0.02638591,-0.6363247,-0.098217756,9.605854034423828,1.4415570497512817,1.7497597932815552,0.07685793191194534,-46.66814041137695, -11.496251106262207
245,383459720,0.76018775,0.02888406,-0.64168286,-0.09758839,9.403907775878906,1.341192603111267,1.3289847373962402,19.827688217163086,-45.18337631225586, -9.75300407409668
246,383476387,0.7556308,0.03295772,-0.647099,-0.09591048,8.982998847961426,2.328730821609497,1.3123043775558472,32.65361022949219,-44.47604751586914, -11.298091888427734
247,383493054,0.7510784,0.036753073,-0.6524118,-0.09428203,9.33327865600586,2.446295738220215,1.2359024286270142,30.62040138244629,-44.164634704589844, -10.378156661987305
248,383509721,0.74651325,0.039272495,-0.657615,-0.093370676,9.497289657592773,2.05828857421875,1.1410801410675049,20.973587036132812,-44.626220703125, -8.334868431091309
249,383526388,0.74188364,0.04125471,-0.6628259,-0.09256663,9.711833953857422,1.5017012357711792,0.9034591913223267,17.5764217376709,-45.364532470703125, -6.523443222045898
250,383543055,0.7371827,0.04299407,-0.66806126,-0.09169289,10.06493854522705,1.7535126209259033,0.5700420141220093,16.629295349121094,-45.958290100097656, -5.13143253326416
251,383559722,0.7325392,0.04443526,-0.6731942,-0.090672165,9.452717781066895,2.5631937980651855,0.3897024393081665,15.711308479309082,-45.307369232177734, -3.0252938270568848
252,383576389,0.7282741,0.045301672,-0.6778708,-0.089753844,9.28950023651123,2.660130500793457,0.27397042512893677,11.924576759338379,-41.639163970947266, -0.7615859508514404
253,383593056,0.724402,0.045291685,-0.68204904,-0.089440435,9.738090515136719,2.0865559577941895,0.29908162355422974,3.789924383163452,-38.124107360839844, 0.36328595876693726
254,383609723,0.72072697,0.044694226,-0.685927,-0.08977452,10.009824752807617,1.777384877204895,0.13023529946804047,-2.016368865966797,-36.1873893737793, -0.03259230777621269
255,383626390,0.71718276,0.043710466,-0.68956304,-0.09078037,9.950786590576172,1.6974748373031616,0.051173046231269836,-7.6926679611206055,-34.88467788696289, -1.570718765258789
256,383643057,0.7136712,0.04254812,-0.69307274,-0.09226798,9.663951873779297,1.8647130727767944,0.10228873789310455,-10.94859504699707,-34.356441497802734, -3.121062755584717
257,383659724,0.71017504,0.0412981,-0.6965111,-0.09390523,9.77031421661377,1.6020443439483643,0.1049259677529335,-12.14281940460205,-34.032470703125, -3.443054676055908
258,383676391,0.7067095,0.04049115,-0.6999181,-0.095064364,9.639409065246582,1.7505340576171875,-0.13443930447101593,-7.718789100646973,-33.315216064453125, -3.2262911796569824
259,383693058,0.70311713,0.040160086,-0.70343345,-0.095889315,9.423232078552246,2.1839139461517334,-0.012637544423341751,-3.6935455799102783,-34.046138763427734, -3.9464077949523926
260,383709725,0.699348,0.039689854,-0.7070415,-0.097106256,9.339554786682129,2.739750385284424,-0.20269741117954254,-6.151686191558838,-35.55713653564453, -5.242098331451416
261,383726392,0.6956605,0.03892897,-0.71052325,-0.098478496,9.47970962524414,2.3226678371429443,-0.3377242088317871,-8.409199714660645,-34.79134750366211, -4.5160393714904785
262,383743059,0.6918602,0.03793276,-0.71408075,-0.09989753,9.52177619934082,2.0449113845825195,-0.40537694096565247,-9.680904388427734,-35.87860870361328, -3.6248931884765625
263,383759726,0.68790895,0.036786728,-0.71773684,-0.1014003,9.436761856079102,2.021578073501587,-0.3690144419670105,-10.69697093963623,-37.21587371826172, -3.3560242652893066
264,383776393,0.68371385,0.035372324,-0.7215111,-0.10347024,9.148067474365234,2.944490909576416,-0.17601756751537323,-14.619118690490723,-39.31684875488281, -4.844724178314209
265,383793060,0.6793557,0.03280813,-0.7252019,-0.10715391,9.125446319580078,3.625211715698242,-0.4273679554462433,-28.04183578491211,-40.96310043334961, -6.813985347747803
266,383809727,0.6749636,0.028833434,-0.7285993,-0.11285331,8.974120140075684,3.532069206237793,-0.6288360953330994,-44.88042449951172,-41.27020263671875, -9.209988594055176
267,383826394,0.6705381,0.023528418,-0.73170763,-0.12012098,9.401376724243164,2.246023416519165,-1.1016898155212402,-59.11928176879883,-41.450374603271484, -9.830543518066406
268,383843061,0.665879,0.018434668,-0.7349965,-0.12667142,10.131560325622559,0.3522953391075134,-1.5808703899383545,-54.349571228027344,-43.16464614868164, -7.72816276550293
269,383859728,0.6609145,0.015550091,-0.73883027,-0.1306904,9.8875732421875,0.6592212319374084,-1.090955138206482,-30.941120147705078,-44.940704345703125, -7.559731960296631
270,383876395,0.65561455,0.0144039625,-0.74312687,-0.13313341,9.973087310791016,1.1809306144714355,-1.4613317251205444,-14.591082572937012,-47.02161407470703, -9.533553123474121
271,383893062,0.6502081,0.013963926,-0.74755245,-0.13490647,10.125924110412598,1.2538915872573853,-1.6409791707992554,-7.864100456237793,-47.42950439453125, -10.242414474487305
272,383909729,0.6445523,0.014048626,-0.75224304,-0.13596192,10.11561107635498,1.485757827758789,-1.5086541175842285,-1.5688560009002686,-49.33392333984375, -9.97434139251709
273,383926396,0.63864195,0.014238048,-0.7571903,-0.13637109,10.341959953308105,1.9711309671401978,-1.3678144216537476,2.4967947006225586,-51.63176345825195, -7.895445823669434
274,383943063,0.63247806,0.014206067,-0.76234025,-0.13640864,10.568782806396484,2.2983038425445557,-1.3804422616958618,3.6743977069854736,-54.02928924560547, -5.344311237335205
275,383959730,0.62596714,0.014368698,-0.76782995,-0.1356325,11.624610900878906,2.665073871612549,-2.1276025772094727,9.142324447631836,-57.08658218383789, -3.124850273132324
276,383976397,0.61978024,0.016172284,-0.7732233,-0.1331805,10.631311416625977,1.6058629751205444,0.4183643162250519,24.931354522705078,-53.274288177490234, -4.288156509399414
277,383993064,0.6126387,0.020039115,-0.77970576,-0.12779327,12.069501876831055,1.2118468284606934,-0.7005622386932373,50.447879791259766,-60.87887191772461, -3.5405983924865723
278,384009731,0.6047557,0.023526289,-0.7867076,-0.12169059,13.074631690979004,0.850482702255249,-0.5255314111709595,53.24554443359375,-67.3562240600586, 0.8637403249740601
279,384026398,0.5960442,0.026586544,-0.79421103,-0.115123756,12.799068450927734,0.7684300541877747,-0.3683605194091797,54.53554916381836,-74.31100463867188, 4.409723281860352
280,384043065,0.5861591,0.029469606,-0.8024718,-0.10764827,12.884740829467773,0.06653251498937607,0.314042329788208,59.585845947265625,-83.916259765625, 8.234594345092773
281,384059732,0.57539284,0.031342514,-0.8113253,-0.09844816,14.416409492492676,-0.17225490510463715,0.9268250465393066,65.64424896240234,-91.72300720214844, 20.133325576782227
282,384076399,0.5640584,0.032970462,-0.8203702,-0.08800091,13.81717300415039,0.5707012414932251,2.5489354133605957,71.87798309326172,-95.75372314453125, 25.988718032836914
283,384093066,0.5525302,0.036653716,-0.8294366,-0.07349723,14.790007591247559,-0.6658522486686707,4.003044605255127,102.79945373535156,-95.039794921875, 29.958757400512695
284,384109733,0.5409451,0.0437718,-0.8382504,-0.05290122,14.143498420715332,-0.44434958696365356,5.295037269592285,150.4826202392578,-91.48797607421875, 33.34589385986328
285,384126400,0.52933776,0.054235693,-0.84622014,-0.027777946,12.627007484436035,0.876994788646698,5.458332061767578,188.7288360595703,-86.3041763305664, 30.61319923400879
286,384143067,0.51567733,0.06983375,-0.8539314,0.001278875,9.553459167480469,2.6515371799468994,3.383333683013916,231.0533905029297,-95.26254272460938, 14.640604972839355
287,384159734,0.50106776,0.088088185,-0.8603857,0.030134868,9.405295372009277,0.4529455602169037,-8.913602828979492,239.80833435058594,-96.77623748779297, -2.088670253753662
288,384176401,0.48560777,0.10592865,-0.86552984,0.061826296,13.531824111938477,2.9222710132598877,-10.00207805633545,255.93785095214844,-95.3740005493164, 9.623906135559082
289,384193068,0.46885923,0.12270263,-0.8701989,0.088709295,15.610810279846191,3.2501325607299805,-6.375464916229248,224.93096923828125,-104.4273910522461, 0.2990354597568512
290,384209735,0.45142627,0.14112234,-0.87338626,0.11617052,11.999170303344727,2.394042730331421,-3.773655891418457,235.2569580078125,-104.34188842773438, -8.309011459350586
291,384226402,0.43629894,0.16106272,-0.87384754,0.14174888,11.764044761657715,4.5738205909729,3.7957191467285156,228.67623901367188,-85.15647888183594, -27.57870101928711
292,384243069,0.42735478,0.17706588,-0.8722227,0.15888207,8.577651977539062,4.070499897003174,7.560911655426025,161.3890380859375,-47.54549026489258, -37.32511901855469
293,384259736,0.42456576,0.19007647,-0.86847,0.17139092,4.461275577545166,1.8791389465332031,6.27108907699585,119.7672348022461,-7.067932605743408, -42.052738189697266
294,384276403,0.42758283,0.20108251,-0.862264,0.18231869,5.0595293045043945,2.1700801849365234,5.678796291351318,99.80923461914062,34.85322189331055, -44.612796783447266
295,384293070,0.4367018,0.20892854,-0.8545259,0.18821846,5.972070217132568,2.0926551818847656,4.387701511383057,54.22431564331055,72.33966827392578, -50.300498962402344
296,384309737,0.45144856,0.2145668,-0.8450436,0.18988651,7.137177467346191,1.831367015838623,3.301072835922241,16.933324813842773,107.23207092285156, -59.72475814819336
297,384326404,0.4709379,0.21961673,-0.8334893,0.1878348,7.971057415008545,2.250725507736206,2.9724035263061523,-10.770934104919434,136.3193817138672, -77.03157806396484
298,384343071,0.494748,0.22285682,-0.8204228,0.18018238,8.647078514099121,1.8127026557922363,1.8943202495574951,-53.26311492919922,159.67205810546875, -92.60797119140625
299,384359738,0.52241445,0.22200228,-0.806272,0.16650459,9.854034423828125,0.5202640891075134,0.6356976628303528,-105.71804809570312,180.7899932861328, -96.45726776123047
300,384376405,0.5528261,0.2164293,-0.79083586,0.14872994,10.882046699523926,-0.42709070444107056,-0.9303534030914307,-148.09088134765625,199.63153076171875, -90.22270202636719
301,384393072,0.5842478,0.2076309,-0.7736119,0.13064685,11.407380104064941,-0.9260821342468262,-2.0395336151123047,-161.70455932617188,214.6623992919922, -77.71632385253906
302,384409739,0.6154906,0.19769116,-0.75409067,0.11591797,11.886963844299316,-2.410794496536255,-2.942638635635376,-146.13211059570312,228.710205078125, -61.47831344604492
303,384426406,0.64531934,0.19017464,-0.73181915,0.10879966,12.535747528076172,-2.594459056854248,-3.0468897819519043,-92.31324768066406,241.45025634765625, -44.653648376464844
304,384443073,0.6737761,0.1860567,-0.7070025,0.10750073,13.307891845703125,-1.1680457592010498,-2.8404347896575928,-44.267581939697266,250.9727325439453, -38.406463623046875
305,384459740,0.70133305,0.18324317,-0.6804136,0.10766325,13.593499183654785,0.3818780481815338,-2.6937549114227295,-28.670242309570312,255.8296356201172, -39.68146514892578
306,384476407,0.7279785,0.18035492,-0.65281725,0.10653322,13.485930442810059,1.6771126985549927,-2.559525966644287,-33.19374465942383,255.0276336669922, -46.21482849121094
307,384493074,0.7533453,0.17566556,-0.6255198,0.10167389,13.81562328338623,2.3044168949127197,-3.861974000930786,-57.597286224365234,244.71499633789062, -55.52264404296875
308,384509741,0.7769211,0.16719227,-0.60002416,0.091715425,14.056803703308105,3.547565460205078,-5.93678092956543,-98.25415802001953,224.47457885742188, -62.27696990966797
309,384526408,0.7978496,0.15381616,-0.5777649,0.07722957,12.678499221801758,4.182591438293457,-9.13371753692627,-142.17559814453125,194.54347229003906, -60.88063049316406
310,384543075,0.81614935,0.1328725,-0.55951494,0.05646613,12.386714935302734,4.044483184814453,-9.964301109313965,-208.0728302001953,159.9628143310547, -59.65446853637695
311,384559742,0.8309566,0.10484882,-0.54544955,0.03166861,11.327763557434082,2.019714117050171,-10.595356941223145,-261.8671875,122.57746887207031, -49.9153938293457
312,384576409,0.8411124,0.07692504,-0.5352923,0.008642486,10.744688987731934,1.2769944667816162,-11.990743637084961,-252.20516967773438,84.49456024169922, -36.39199447631836
313,384593076,0.846668,0.0505002,-0.5295834,-0.012020156,10.352036476135254,1.9136306047439575,-13.209012031555176,-232.71176147460938,43.42615509033203, -25.641489028930664
314,384609743,0.8479251,0.026709752,-0.52859825,-0.029890874,9.938329696655273,1.8316338062286377,-13.521210670471191,-205.37156677246094,1.8652870655059814, -17.674448013305664
315,384626410,0.8454528,0.010913689,-0.53234005,-0.0412891,9.576847076416016,0.6837588548660278,-12.797314643859863,-134.13748168945312,-36.096649169921875, -9.113941192626953
316,384643077,0.8404336,0.007196287,-0.5400168,-0.044743106,9.500510215759277,0.147413969039917,-8.911205291748047,-33.62854766845703,-63.97146224975586, -7.587826251983643
317,384659744,0.8350813,0.016483424,-0.548521,-0.038634013,12.800442695617676,-1.2196507453918457,6.272538185119629,77.16009521484375,-65.35059356689453, -0.7459583282470703
318,384676411,0.8311215,0.026111659,-0.5544142,-0.034352694,12.481940269470215,3.886306047439575,11.369466781616211,71.34774780273438,-45.33700942993164, -12.531181335449219
319,384693078,0.8247432,0.024538595,-0.5638299,-0.03595309,14.634410858154297,-0.40928488969802856,-10.013372421264648,-13.738113403320312,-78.5749740600586, -3.29868221282959
320,384709745,0.81640077,0.029663222,-0.5758975,-0.030856676,18.699779510498047,4.489772319793701,0.5418161153793335,51.90019989013672,-98.18408203125, 8.930789947509766
321,384726412,0.8076701,0.027666055,-0.58812016,-0.031917013,9.215221405029297,-3.4756064414978027,0.1219635009765625,-13.210012435913086,-103.41023254394531, 2.259786367416382
322,384743079,0.8000588,0.031800903,-0.59841204,-0.028247833,8.717835426330566,-2.0398054122924805,0.2401726245880127,40.214542388916016,-85.88444519042969, 3.8274083137512207
323,384759746,0.7931164,0.034074698,-0.6074861,-0.02768206,10.06357479095459,2.880289316177368,1.4706546068191528,16.841806411743164,-77.51769256591797, -5.771783828735352
324,384776413,0.7865547,0.030473405,-0.61594856,-0.031789154,10.162052154541016,0.9351052641868591,1.4365050792694092,-34.922428131103516,-74.86328125, -6.752824306488037
325,384793080,0.78048974,0.027081244,-0.62354046,-0.03605393,9.638578414916992,-0.44668376445770264,1.095607876777649,-34.749141693115234,-68.09242248535156, -8.55877685546875
326,384809747,0.774938,0.026845291,-0.63029057,-0.038527105,10.125158309936523,-0.25060030817985535,0.8905500769615173,-10.428698539733887,-60.30652618408203, -12.519582748413086
327,384826414,0.76959956,0.02909844,-0.63662666,-0.039704908,10.13302230834961,0.3553606867790222,1.0058132410049438,8.302374839782715,-56.319480895996094, -16.4387264251709
328,384843081,0.764543,0.031915497,-0.6424995,-0.040621236,9.847018241882324,0.8709603548049927,0.9054951071739197,12.250239372253418,-52.46831512451172, -17.54682159423828
329,384859748,0.75970346,0.033993736,-0.6480106,-0.04216157,9.705906867980957,1.58661687374115,0.8481258153915405,5.463057518005371,-49.98982620239258, -17.582782745361328
330,384876415,0.75508285,0.035348304,-0.6531666,-0.04442731,9.763903617858887,1.6307991743087769,0.7961111664772034,-1.7031574249267578,-47.57341766357422, -18.159385681152344
331,384893082,0.75072116,0.037208226,-0.6579404,-0.046345543,9.723037719726562,1.0970197916030884,0.5287606716156006,2.3020308017730713,-44.22013854980469, -18.631765365600586
332,384909749,0.74653614,0.04068512,-0.6624532,-0.0467384,9.860603332519531,0.8770673274993896,0.4220418632030487,17.421062469482422,-41.19464874267578, -18.0845947265625
333,384926416,0.7422113,0.045554325,-0.66704375,-0.045823537,10.143275260925293,1.5627014636993408,0.4151729643344879,30.58977699279785,-41.44243240356445, -17.742294311523438
334,384943083,0.7379122,0.050136387,-0.67155176,-0.044613235,9.484488487243652,2.561530590057373,0.35619282722473145,30.445770263671875,-40.923309326171875, -14.934978485107422
335,384959750,0.733909,0.053044084,-0.67572594,-0.044253964,9.203027725219727,2.8707480430603027,0.4839770197868347,17.818090438842773,-38.692665100097656, -11.535270690917969
336,384976417,0.73015255,0.05421165,-0.67963266,-0.04514528,9.325958251953125,2.625425338745117,0.46079835295677185,3.05823016166687,-37.20480728149414, -9.770169258117676
337,384993084,0.726391,0.05333736,-0.68355435,-0.047589738,9.847981452941895,1.596118688583374,0.2038908153772354,-14.440104484558105,-38.54002380371094, -8.011561393737793
338,385009751,0.72235054,0.051553063,-0.6877519,-0.050493814,10.016396522521973,0.9622541069984436,0.16636326909065247,-20.950082778930664,-41.713077545166016, -6.0197858810424805
339,385026418,0.71797127,0.049913168,-0.6922243,-0.053399693,9.609421730041504,1.0817375183105469,0.1339932084083557,-20.02300453186035,-44.64922332763672, -6.736902713775635
340,385043085,0.71354586,0.048679624,-0.69665474,-0.056169502,9.570133209228516,1.3867467641830444,-0.23071569204330444,-17.366552352905273,-44.482425689697266, -8.03386116027832
341,385059752,0.7091846,0.047739826,-0.7009393,-0.05884374,9.664668083190918,1.5802509784698486,-0.384097158908844,-15.543418884277344,-43.327171325683594, -8.996992111206055
342,385076419,0.70489174,0.0472765,-0.7050817,-0.061257586,9.813498497009277,1.3598783016204834,-0.5375584363937378,-12.044035911560059,-42.0388069152832, -10.042530059814453
343,385093086,0.7005061,0.04734094,-0.7092611,-0.06323692,9.743924140930176,1.4165924787521362,-0.5251457095146179,-7.332915306091309,-42.31482696533203, -10.524279594421387
344,385109753,0.6959394,0.04768549,-0.7135591,-0.06502195,9.537985801696777,1.8097095489501953,-0.5843876600265503,-4.9236674308776855,-43.59396743774414, -10.996175765991211
345,385126420,0.6912175,0.047828093,-0.71794266,-0.06700211,9.281399726867676,2.240192174911499,-0.6080895662307739,-6.757399082183838,-44.928985595703125, -10.979531288146973
346,385143087,0.68618006,0.04712681,-0.722535,-0.069852896,9.335408210754395,2.2569613456726074,-0.7827000021934509,-14.863508224487305,-48.164363861083984, -11.02429485321045
347,385159754,0.68088406,0.04542968,-0.7272942,-0.07332471,9.725607872009277,1.4744975566864014,-1.2083046436309814,-22.481515884399414,-50.92338943481445, -9.073501586914062
348,385176421,0.67526263,0.043695033,-0.73225486,-0.076902635,9.703886032104492,1.503949522972107,-1.2519416809082031,-22.98365592956543,-53.55111312866211, -9.485791206359863
349,385193088,0.66935253,0.04227094,-0.7373802,-0.08031814,9.81595516204834,1.6388304233551025,-1.3695183992385864,-20.5496883392334,-55.56111526489258, -10.400346755981445
350,385209755,0.66327447,0.041331317,-0.74260014,-0.08308897,10.036314010620117,1.6907902956008911,-1.4594875574111938,-14.949934959411621,-56.39836883544922, -9.956368446350098
351,385226422,0.6567944,0.040911727,-0.7481412,-0.0850417,10.414986610412598,1.5537852048873901,-1.6691497564315796,-8.10304069519043,-59.39106369018555, -9.020627975463867
352,385243089,0.6498247,0.040908914,-0.75409764,-0.085972615,10.772071838378906,1.5945014953613281,-1.601184606552124,-0.5839138627052307,-63.25909423828125, -6.722776412963867
353,385259756,0.642231,0.041293915,-0.7605807,-0.08573936,11.721146583557129,2.1205809116363525,-1.65346097946167,7.67212438583374,-68.29573822021484, -3.7561652660369873
354,385276423,0.63467413,0.043096803,-0.76698935,-0.084017806,11.208396911621094,2.673511505126953,0.31669163703918457,21.662858963012695,-66.52423095703125, -4.599774360656738
355,385293090,0.626118,0.046769008,-0.7742669,-0.079372354,12.012678146362305,0.6334381699562073,-0.3832591772079468,46.04179763793945,-73.65792083740234, -2.016451835632324
356,385309757,0.6170577,0.05083102,-0.7818641,-0.07310802,13.261002540588379,-1.385708212852478,-0.7339736819267273,56.67570877075195,-77.00025177001953, 2.694920778274536
357,385326424,0.607008,0.055395517,-0.79010725,-0.06483511,13.931014060974121,-0.9582817554473877,-0.01421491801738739,70.27410125732422,-84.12224578857422, 8.222711563110352
358,385343091,0.596006,0.058885146,-0.7988182,-0.056560606,14.613493919372559,-0.753176212310791,0.49721643328666687,66.36680603027344,-91.74768829345703, 13.805282592773438
359,385359758,0.58392245,0.06139087,-0.8081445,-0.046566796,15.72054672241211,-2.0594749450683594,1.9338518381118774,72.4544906616211,-99.92381286621094, 26.069583892822266
360,385376425,0.57099926,0.06363158,-0.81775886,-0.034375172,17.209110260009766,-1.7001875638961792,4.349097728729248,84.04734802246094,-104.94168853759766, 36.200218200683594
361,385393092,0.5579056,0.066837765,-0.8270001,-0.018571809,16.68041229248047,-0.6274996995925903,7.2813897132873535,108.13216400146484,-102.68220520019531, 44.73503494262695
362,385409759,0.5441298,0.07412842,-0.8357172,0.0022053968,13.349658966064453,2.0001795291900635,8.999774932861328,152.33680725097656,-101.81517028808594, 40.26105880737305
363,385426426,0.52820414,0.08746578,-0.84417915,0.026679786,11.009631156921387,4.206751346588135,5.058049201965332,197.32479858398438,-111.49736022949219, 19.270587921142578
364,385443093,0.5141348,0.10308932,-0.8500168,0.05009895,8.744518280029297,1.9283406734466553,-7.446174621582031,198.87606811523438,-92.28208923339844, 0.28354862332344055
365,385459760,0.4984934,0.11648532,-0.8558729,0.073602065,11.298194885253906,3.6446080207824707,-10.911469459533691,192.60182189941406,-100.68126678466797, 14.178760528564453
366,385476427,0.48077342,0.12780784,-0.86243653,0.09341126,16.003952026367188,3.4937455654144287,-7.679760932922363,165.06578063964844,-117.20929718017578, 15.365388870239258
367,385493094,0.4631102,0.14146106,-0.8674714,0.11406755,13.451949119567871,2.957566261291504,-1.4261958599090576,178.73980712890625,-112.56829071044922, 2.9905803203582764
368,385509761,0.44915292,0.15584826,-0.86984175,0.13171332,10.776545524597168,2.8860371112823486,5.425585746765137,161.60841369628906,-85.49716186523438, -16.447790145874023
369,385526428,0.44079775,0.16863464,-0.8690018,0.14864591,7.744855880737305,1.7603440284729004,6.478481292724609,149.30665588378906,-41.430877685546875, -17.563827514648438
370,385543095,0.43718994,0.18056537,-0.8649866,0.16750935,5.17810583114624,1.7215936183929443,4.74503231048584,155.9939727783203,-0.363027423620224, -15.112622261047363
371,385559762,0.43853486,0.19110002,-0.85872406,0.18374231,5.352433681488037,2.633011817932129,4.256921768188477,132.5908203125,34.173179626464844, -23.19202995300293
372,385576429,0.44545734,0.19930394,-0.8509356,0.19430546,5.616858005523682,3.1516926288604736,3.582749128341675,86.6871566772461,67.1829833984375, -35.55695724487305
373,385593096,0.45817673,0.20490119,-0.84210545,0.19735278,6.554579257965088,3.3357272148132324,3.448477268218994,28.18268585205078,97.45669555664062, -52.4792366027832
374,385609763,0.47612977,0.20856157,-0.83190364,0.19426547,7.37626838684082,2.771536111831665,2.97336745262146,-18.946212768554688,126.05089569091797, -69.61180877685547
375,385626430,0.49825162,0.21142103,-0.8195347,0.18817478,8.28037166595459,1.9756473302841187,2.0915884971618652,-41.82891082763672,153.73927307128906, -83.53357696533203
376,385643097,0.52375185,0.21349265,-0.80478966,0.18005197,9.069092750549316,1.5762519836425781,1.0710194110870361,-57.81684112548828,178.97377014160156, -93.88301849365234
377,385659764,0.5525696,0.2121643,-0.78842616,0.16744453,10.048911094665527,1.6916190385818481,0.35087254643440247,-97.75031280517578,200.78387451171875, -97.710205078125
378,385676431,0.58414483,0.20572002,-0.77056134,0.15063033,10.824206352233887,1.2928742170333862,-0.8482179641723633,-142.3014373779297,221.19410705566406, -91.33768463134766
379,385693098,0.6169713,0.1952746,-0.7507958,0.13236365,11.989745140075684,0.5368090271949768,-1.7205742597579956,-165.8830108642578,237.55648803710938, -79.97377014160156
380,385709765,0.64996785,0.18329817,-0.7282803,0.11641179,12.882186889648438,-0.37173300981521606,-2.31093430519104,-158.15780639648438,254.61065673828125, -66.1160888671875
381,385726432,0.68230736,0.172278,-0.70278823,0.10423901,14.077903747558594,-0.07844533771276474,-2.4007863998413086,-131.7484130859375,268.63446044921875, -57.26433563232422
382,385743099,0.7132855,0.16329728,-0.67485845,0.09552016,15.199294090270996,0.298177570104599,-2.373366594314575,-102.12715148925781,276.13922119140625, -52.84733200073242
383,385759766,0.7425548,0.15751225,-0.6447457,0.0900299,15.053826332092285,1.1208237409591675,-2.3460586071014404,-68.1163558959961,280.4647216796875, -53.18624496459961
384,385776433,0.76996034,0.15382384,-0.6134315,0.08486108,15.550907135009766,2.6923139095306396,-3.5177993774414062,-53.22602462768555,277.41937255859375, -60.99923324584961
385,385793100,0.7952437,0.14881794,-0.5828123,0.075966135,16.58518409729004,4.264244556427002,-5.670794486999512,-74.08973693847656,261.65667724609375, -73.199951171875
386,385809767,0.8176738,0.14023563,-0.5549027,0.06186124,14.526847839355469,5.87997579574585,-7.32727575302124,-113.03791809082031,231.99830627441406, -83.09225463867188
387,385826434,0.8373089,0.12462404,-0.5307379,0.041234057,12.611310005187988,6.9271016120910645,-8.827160835266113,-176.37657165527344,197.0491943359375, -88.13694763183594
388,385843101,0.8536224,0.100829236,-0.5108141,0.015214094,12.388652801513672,4.1128764152526855,-9.892447471618652,-241.5759735107422,158.28451538085938, -84.73556518554688
389,385859768,0.8658772,0.07601236,-0.49436215,-0.009216675,11.64183521270752,-0.2312687635421753,-10.685696601867676,-239.55441284179688,124.9235610961914, -68.9772720336914
390,385876435,0.8733935,0.054337483,-0.48309505,-0.029166978,10.415693283081055,0.18795546889305115,-10.687936782836914,-202.0474090576172,80.65843963623047, -50.1174201965332
391,385893102,0.8761963,0.033095166,-0.4785582,-0.04655224,9.636385917663574,0.8567957878112793,-12.536996841430664,-187.98147583007812,25.661060333251953, -34.66457748413086
392,385909769,0.8747998,0.013147419,-0.48051724,-0.060463708,9.235243797302246,-0.151930034160614,-13.973065376281738,-166.06834411621094,-26.059757232666016, -18.078407287597656
393,385926436,0.8701197,0.000974402,-0.48805627,-0.068497084,9.708168983459473,-0.5184403657913208,-13.098176002502441,-97.46562957763672,-66.64490509033203, -9.398789405822754
394,385943103,0.8630398,-0.0010788459,-0.5003099,-0.069652155,10.784021377563477,-0.27262818813323975,-11.946690559387207,-11.337618827819824,-97.99712371826172, -3.1496500968933105
395,385959770,0.8542178,0.004578041,-0.5157984,-0.06514036,11.090341567993164,1.9257937669754028,-3.803046226501465,56.18199157714844,-119.41690826416016, 3.4855964183807373
396,385976437,0.84823024,0.00843541,-0.52601206,-0.06120288,16.329429626464844,0.7197798490524292,29.125471115112305,42.050323486328125,-79.1056137084961, 8.03826904296875
397,385993104,0.8424514,0.009178067,-0.53483,-0.064407974,6.789076805114746,3.4181721210479736,7.410576820373535,-3.1978485584259033,-72.10784149169922, -22.742141723632812
398,386009771,0.835569,0.0056586084,-0.54480785,-0.07054858,8.460699081420898,5.368630409240723,-0.659324049949646,-38.125762939453125,-84.9965591430664, -24.524333953857422
399,386026438,0.8274545,-0.011599104,-0.55520576,-0.0832537,13.903538703918457,-1.3922104835510254,-3.8060898780822754,-141.23826599121094,-98.9442367553711, -11.293058395385742
400,386043105,0.8188914,-0.022002447,-0.56693155,-0.08672715,18.41448402404785,-7.594696521759033,-7.730232238769531,-66.154541015625,-104.9996109008789, 14.690644264221191
401,386059772,0.8093292,-0.020618021,-0.58027226,-0.08857528,12.048163414001465,8.719593048095703,4.331325531005859,7.517165184020996,-111.1381607055664, -22.996593475341797
402,386076439,0.79923433,-0.032842558,-0.5919329,-0.09880016,8.88945484161377,-0.1096721664071083,-0.4781910181045532,-102.73150634765625,-111.03878021240234, -15.410701751708984
403,386093106,0.78955954,-0.044698577,-0.6024633,-0.10786874,10.099236488342285,-0.28811967372894287,-0.12104368209838867,-98.33616638183594,-103.22274017333984, -10.572554588317871
404,386109773,0.7812447,-0.048622143,-0.6122061,-0.11178727,10.481099128723145,-2.9506027698516846,-0.47811800241470337,-34.09907150268555,-89.01211547851562, -14.223748207092285
405,386126440,0.77429515,-0.04308241,-0.62188613,-0.10894457,10.590615272521973,-1.687267780303955,0.14390000700950623,45.60732650756836,-77.91423034667969, -16.692983627319336
406,386143107,0.76808065,-0.033975843,-0.63097405,-0.10377758,9.811885833740234,0.8223525881767273,0.9545505046844482,74.31250762939453,-69.6399917602539, -18.86695098876953
407,386159774,0.7617649,-0.02875674,-0.6391312,-0.101974845,9.726853370666504,3.256178379058838,1.416916847229004,38.499732971191406,-67.16033172607422, -19.6309757232666
408,386176441,0.75534326,-0.029438129,-0.6462019,-0.10494443,10.010698318481445,2.826686143875122,1.0472196340560913,-14.159475326538086,-65.14151000976562, -18.54668617248535
409,386193108,0.7491898,-0.032459382,-0.65237474,-0.10985653,9.760497093200684,1.4899522066116333,0.636520504951477,-35.536075592041016,-60.59324645996094, -17.85312271118164
410,386209775,0.74345154,-0.03525968,-0.65778714,-0.115554065,10.24736499786377,1.0794274806976318,0.3418210744857788,-38.40196228027344,-54.482566833496094, -22.402936935424805
411,386226442,0.7382535,-0.037380107,-0.66253465,-0.12096636,10.654704093933105,1.3636401891708374,-0.11232782900333405,-34.03369140625,-48.178245544433594, -23.428665161132812
412,386243109,0.73364043,-0.039559796,-0.66647094,-0.1265852,9.066332817077637,2.6970434188842773,0.41780099272727966,-35.799781799316406,-41.397342681884766, -23.510499954223633
413,386259776,0.72936,-0.042481914,-0.669734,-0.13298869,9.253654479980469,1.931771993637085,0.6104733347892761,-43.63636016845703,-36.9202766418457, -23.584333419799805
414,386276443,0.72486895,-0.046123568,-0.67313105,-0.13904129,10.003947257995605,-0.5475704669952393,-0.36426112055778503,-45.566734313964844,-39.33484649658203, -18.738384246826172
415,386293110,0.72022504,-0.04777383,-0.67717344,-0.1429332,10.04001235961914,0.5509058833122253,0.5320692658424377,-25.072410583496094,-42.04610824584961, -17.54783821105957
416,386309777,0.71525306,-0.049204495,-0.6815712,-0.1464679,10.138285636901855,0.9402883648872375,0.016568772494792938,-22.07877540588379,-45.24631881713867, -17.246135711669922
417,386326444,0.710127,-0.05008886,-0.6861789,-0.14956409,9.781292915344238,1.0026230812072754,-0.07024214416742325,-17.17623519897461,-46.608707427978516, -17.879837036132812
418,386343111,0.7050545,-0.049344383,-0.6910952,-0.15116554,9.463123321533203,0.8832692503929138,-0.24461407959461212,-1.8355247974395752,-46.7104377746582, -18.32202911376953
419,386359778,0.7000632,-0.047075704,-0.69634175,-0.15100956,9.413244247436523,1.614380955696106,-0.03735100477933884,14.275753021240234,-46.9458122253418, -17.07887840270996
420,386376445,0.69464904,-0.04523774,-0.70185584,-0.15104595,9.533397674560547,2.3916800022125244,-0.05185842886567116,11.424298286437988,-50.65245819091797, -16.47056007385254
421,386393112,0.68889296,-0.04446187,-0.70741975,-0.15168156,9.845062255859375,2.0428853034973145,-0.6264858841896057,3.406954765319824,-53.466033935546875, -14.575422286987305
422,386409779,0.6830708,-0.04378103,-0.7130105,-0.15203297,9.784224510192871,1.429127812385559,-0.9127168655395508,4.348078727722168,-54.10813903808594, -12.844526290893555
423,386426446,0.6771276,-0.042282876,-0.7188966,-0.15132257,9.616302490234375,1.2873131036758423,-0.7842190861701965,13.665197372436523,-55.55889892578125, -12.083536148071289
424,386443113,0.67093253,-0.040435407,-0.72504485,-0.1500825,9.856544494628906,1.426661729812622,-0.7806629538536072,18.110553741455078,-57.82217788696289, -11.6875
425,386459780,0.66459394,-0.038886506,-0.7311535,-0.14905633,10.001938819885254,1.5044655799865723,-1.1064238548278809,15.588066101074219,-58.61101531982422, -11.327291488647461
426,386476447,0.658379,-0.037640654,-0.7369581,-0.14836834,10.156096458435059,1.439727544784546,-1.3261520862579346,12.225227355957031,-56.826297760009766, -11.14474868774414
427,386493114,0.6522091,-0.03654452,-0.7425718,-0.1479027,10.074002265930176,1.7566605806350708,-1.2006795406341553,10.23878002166748,-55.83449172973633, -11.301277160644531
428,386509781,0.6459155,-0.03544583,-0.7482088,-0.14737946,10.367018699645996,1.9129451513290405,-1.205420970916748,10.538373947143555,-56.589542388916016, -11.189886093139648
429,386526448,0.6394452,-0.03378366,-0.7540782,-0.14606504,10.683076858520508,1.8723299503326416,-1.2804920673370361,17.304407119750977,-58.159854888916016, -10.812237739562988
430,386543115,0.63281965,-0.030391293,-0.760332,-0.14321813,10.94474983215332,2.7198030948638916,-0.8303611874580383,33.20850372314453,-59.28133010864258, -13.293471336364746
431,386559782,0.6256111,-0.025684893,-0.76724505,-0.13887554,11.039530754089355,2.1789655685424805,-0.2344774305820465,47.274871826171875,-64.22799682617188, -14.36621379852295
432,386576449,0.6176434,-0.02037728,-0.7748525,-0.13306198,12.238787651062012,0.5453313589096069,-0.7473505139350891,58.153263092041016,-70.92090606689453, -12.060526847839355
433,386593116,0.6088192,-0.015231828,-0.7831492,-0.12563826,13.152217864990234,-0.6411003470420837,-0.6924382448196411,66.55472564697266,-78.80066680908203, -5.2518768310546875
434,386609783,0.59923655,-0.010970148,-0.791856,-0.1173019,14.203320503234863,-0.9476368427276611,0.2747421860694885,68.04421997070312,-85.47801971435547, 2.6102294921875
435,386626450,0.5878435,-0.007866812,-0.8017639,-0.10748785,15.000645637512207,-1.6029479503631592,1.0256845951080322,72.14972686767578,-101.35782623291016, 13.43451976776123
436,386643117,0.5761618,-0.0047720345,-0.81176883,-0.095113486,15.487676620483398,-1.5156360864639282,3.0670077800750732,86.28536987304688,-103.52102661132812, 23.589500427246094
437,386659784,0.5644775,-0.000018926366,-0.82180244,-0.07750088,17.459657669067383,-2.1189072132110596,6.280782699584961,122.11516571044922,-102.78784942626953, 35.064186096191406
438,386676451,0.5518785,0.009223991,-0.83225477,-0.051937047,15.178373336791992,-1.5967258214950562,7.961912631988525,184.70823669433594,-107.27136993408203, 40.0526008605957
439,386693118,0.53826654,0.02465513,-0.8421244,-0.022095134,11.183244705200195,2.7482376098632812,4.833904266357422,232.54786682128906,-108.46302795410156, 20.471176147460938
440,386709785,0.52628183,0.04251705,-0.8492313,0.0051520043,8.309556007385254,2.368972063064575,-2.7750513553619385,225.8256072998047,-88.93223571777344, -3.404391050338745
441,386726452,0.5128765,0.057765976,-0.8560099,0.029466461,9.491106986999512,2.4745607376098633,-11.985305786132812,199.66673278808594,-96.80301666259766, 1.2221750020980835
442,386743119,0.49719414,0.07211688,-0.8630132,0.05296767,16.369611740112305,2.679020881652832,-9.031781196594238,192.57562255859375,-111.09337615966797, 4.21315860748291
443,386759786,0.48124963,0.090766676,-0.868194,0.079998486,14.54289722442627,2.332956552505493,-4.5224995613098145,229.03448486328125,-106.23176574707031, -10.01552677154541
444,386776453,0.46623826,0.11305367,-0.87076074,0.107782826,10.418661117553711,4.842561721801758,2.1673245429992676,246.44284057617188,-93.5555191040039, -31.356966018676758
445,386793120,0.45625937,0.13137853,-0.8707992,0.1275782,9.946465492248535,3.048405647277832,6.438935279846191,183.85830688476562,-58.61539840698242, -38.89765167236328
446,386809787,0.45252857,0.14713803,-0.8675957,0.14438365,4.81375789642334,1.436768651008606,6.26855993270874,155.11045837402344,-11.535783767700195, -41.29391860961914
447,386826454,0.45415786,0.16033587,-0.8614675,0.1609571,4.260466575622559,1.2916436195373535,5.354704856872559,143.23699951171875,31.8144474029541, -34.993656158447266
448,386843121,0.46120518,0.17067815,-0.85347325,0.17246024,5.270318031311035,2.2690253257751465,4.714913845062256,100.37720489501953,67.27627563476562, -41.94703674316406
449,386859788,0.4737003,0.17768867,-0.8441605,0.17727977,6.4545793533325195,2.77211332321167,3.8434152603149414,45.763614654541016,99.5051040649414, -51.57706832885742
450,386876455,0.49129048,0.1828663,-0.83311,0.17641358,8.02570629119873,2.8558785915374756,3.541423797607422,2.691195487976074,130.00057983398438, -67.77350616455078
451,386893122,0.51297414,0.18629314,-0.82052517,0.1699742,9.099629402160645,2.3001818656921387,2.6371328830718994,-38.430267333984375,153.72247314453125, -83.45281982421875
452,386909789,0.5383146,0.1865858,-0.8065721,0.15762328,10.065173149108887,1.3059444427490234,1.0368554592132568,-85.92322540283203,175.24819946289062, -92.64556884765625
453,386926456,0.5666875,0.1821818,-0.79123795,0.14006408,10.739340782165527,0.10575702786445618,-0.08757355809211731,-134.5962677001953,195.57640075683594, -90.94635009765625
454,386943123,0.59656936,0.17394467,-0.774041,0.121282436,11.529500007629395,-0.22792336344718933,-0.9168734550476074,-156.28952026367188,213.19935607910156, -78.66350555419922
455,386959790,0.62689626,0.16347864,-0.7545651,0.10443946,12.044281005859375,-0.8372973203659058,-1.7227716445922852,-153.75103759765625,229.09088134765625, -61.96852493286133
456,386976457,0.65678823,0.15325785,-0.7325332,0.09239368,12.043739318847656,-1.716346025466919,-2.3646881580352783,-125.47929382324219,243.0712127685547, -45.14821243286133
457,386993124,0.6859316,0.14604501,-0.70760167,0.08642169,13.160786628723145,-0.8614271879196167,-2.828233242034912,-78.66802978515625,256.8991394042969, -35.477134704589844
458,387009791,0.71419454,0.14144829,-0.68040013,0.08351475,13.996713638305664,0.6076750755310059,-2.318478584289551,-49.184940338134766,264.8701171875, -35.5257453918457
459,387026458,0.7412397,0.13951069,-0.6514579,0.08187326,13.995128631591797,1.4582664966583252,-2.577920436859131,-28.022417068481445,267.4535827636719, -42.75515365600586
460,387043125,0.76700073,0.13943161,-0.62125206,0.079467066,14.095065116882324,2.8398077487945557,-3.4450185298919678,-20.03571891784668,266.3986511230469, -55.470855712890625
461,387059792,0.79092145,0.13841149,-0.5915913,0.07283997,15.080302238464355,4.775048732757568,-4.690964698791504,-41.572357177734375,252.17405700683594, -72.18074035644531
462,387076459,0.8128134,0.13189733,-0.5642891,0.05929418,13.766066551208496,6.947023391723633,-5.738158226013184,-98.86714935302734,227.32058715820312, -84.18868255615234
463,387093126,0.8325631,0.1157388,-0.5404068,0.037474837,12.601511001586914,5.831691741943359,-7.608884334564209,-184.3651580810547,196.39639282226562, -89.01913452148438
464,387109793,0.8492119,0.09298053,-0.5196718,0.0116325095,12.764175415039062,2.8855648040771484,-8.567296028137207,-235.48239135742188,165.43519592285156, -84.21463775634766
465,387126460,0.8617986,0.0716121,-0.5020573,-0.010675952,12.713279724121094,-0.8193235397338867,-9.544412612915039,-213.54884338378906,134.75152587890625, -66.84760284423828
466,387143127,0.8702707,0.054995105,-0.48870426,-0.0278009,11.784247398376465,0.2503535747528076,-10.196521759033203,-164.8818817138672,98.32455444335938, -50.6544075012207
467,387159794,0.87474054,0.039463703,-0.48108923,-0.042722028,10.587248802185059,1.5307680368423462,-11.222177505493164,-147.48794555664062,51.78913879394531, -39.18581771850586
468,387176461,0.8754399,0.025199987,-0.47949213,-0.055296715,9.288734436035156,1.40653657913208,-11.595218658447266,-129.32308959960938,4.2243146896362305, -28.734657287597656
469,387193128,0.87284285,0.016835677,-0.48360828,-0.06313064,9.50905704498291,0.7225382328033447,-10.880000114440918,-75.45026397705078,-37.87739562988281, -19.902591705322266
470,387209795,0.86742204,0.015441315,-0.49291623,-0.06613993,9.920453071594238,1.1144258975982666,-9.96627426147461,-15.006531715393066,-74.75556182861328, -14.74819564819336
471,387226462,0.8603677,0.019185886,-0.50509167,-0.06544075,10.895469665527344,0.4986904561519623,-1.4604188203811646,29.681079864501953,-94.58563232421875, -10.4885892868042
472,387243129,0.8546882,0.022205437,-0.514726,-0.06381529,13.134698867797852,1.2784212827682495,17.905038833618164,27.28693962097168,-74.95594787597656, -2.217930316925049
473,387259796,0.8492486,0.019488802,-0.52315164,-0.06862657,8.41672420501709,1.6770378351211548,6.000333309173584,-32.69673538208008,-70.88257598876953, -21.38983726501465
474,387276463,0.8431675,0.013266751,-0.53243315,-0.07353785,10.495301246643066,-1.0860074758529663,-0.09074509143829346,-53.14556884765625,-79.88800048828125, -9.523856163024902
475,387293130,0.83657014,0.004360692,-0.5423701,-0.07724087,13.47648811340332,-2.6093335151672363,-2.311119794845581,-63.89388656616211,-86.78239440917969, 7.186213493347168
476,387309797,0.8287641,0.0011235087,-0.553994,-0.078991905,15.383670806884766,-1.2125893831253052,-4.43680477142334,-24.51180076599121,-97.9791488647461, -3.8856759071350098
477,387326464,0.81981856,-0.0010678123,-0.5667428,-0.08184961,12.930054664611816,2.4652442932128906,1.7282934188842773,-22.960399627685547,-108.17647552490234, -14.976914405822754
478,387343131,0.8112791,-0.006188584,-0.57842135,-0.08495212,9.916093826293945,-0.4405456483364105,0.8564035892486572,-41.4918212890625,-102.23322296142578, -4.683381080627441
479,387359798,0.80334145,-0.011832986,-0.5887062,-0.089036904,9.007854461669922,1.943168044090271,0.5044354796409607,-48.753387451171875,-92.28621673583984, -7.3715434074401855
480,387376465,0.7963196,-0.014639315,-0.5975602,-0.092645004,10.231409072875977,0.5188151597976685,0.582266628742218,-30.715316772460938,-78.88677215576172, -14.996742248535156
481,387393132,0.79027843,-0.012833504,-0.6054805,-0.0932146,10.640754699707031,0.02375425584614277,0.5163859724998474,7.724696636199951,-67.03926086425781, -16.141613006591797
482,387409799,0.78492075,-0.008271766,-0.6126956,-0.09184405,10.36255168914795,0.14339016377925873,0.842380702495575,31.930728912353516,-58.662574768066406, -16.095211029052734
483,387426466,0.77998674,-0.002781708,-0.6193187,-0.08976495,9.828375816345215,1.029797911643982,1.2494726181030273,41.02080154418945,-53.02772903442383, -15.493341445922852
484,387443133,0.7752891,0.0008068477,-0.6253002,-0.08902811,9.750407218933105,1.6985734701156616,1.2982678413391113,25.164289474487305,-49.69558334350586, -14.334263801574707
485,387459800,0.7706054,0.0016647645,-0.6308764,-0.09033059,9.629122734069824,2.1107029914855957,1.3784520626068115,3.0268659591674805,-49.026981353759766, -13.138920783996582
486,387476467,0.76609915,0.00012171012,-0.6358617,-0.09366006,9.968491554260254,1.471856951713562,0.7528218626976013,-19.06330680847168,-46.66810989379883, -13.42601203918457
487,387493134,0.7617557,-0.0016076426,-0.64046746,-0.09760911,10.764182090759277,1.0638914108276367,0.5243884325027466,-21.802616119384766,-43.95707321166992, -15.549588203430176
488,387509801,0.75765705,-0.0025469714,-0.6448355,-0.10068297,9.653839111328125,1.7613445520401,0.4569752514362335,-13.960406303405762,-41.11073303222656, -14.312902450561523
489,387526468,0.75394434,-0.0034330294,-0.64874715,-0.10336256,9.042190551757812,2.0085387229919434,0.9615458846092224,-15.163454055786133,-37.311161041259766, -12.768035888671875
490,387543135,0.7501883,-0.0050133327,-0.65253145,-0.10674953,9.153997421264648,1.848301649093628,0.723562479019165,-18.83049201965332,-36.97354507446289, -12.826861381530762
491,387559802,0.7464834,-0.0063698953,-0.6562545,-0.10978394,9.565996170043945,1.849494218826294,0.7617098093032837,-19.310861587524414,-36.64507293701172, -12.500590324401855
492,387576469,0.7425568,-0.008550436,-0.6599504,-0.11402703,9.888947486877441,2.0629520416259766,0.7954607009887695,-25.850095748901367,-37.71184539794922, -14.679886817932129
493,387593136,0.73866266,-0.010507877,-0.66354334,-0.11822625,9.966853141784668,1.4539347887039185,1.0475319623947144,-27.756805419921875,-37.25328063964844, -15.899022102355957
494,387609803,0.73484933,-0.010946336,-0.6672888,-0.12084154,9.47156047821045,0.873253345489502,0.6363711953163147,-12.684866905212402,-36.55255889892578, -14.730194091796875
495,387626470,0.7307953,-0.010420119,-0.6715104,-0.12208132,9.283020973205566,1.0679512023925781,0.5026817917823792,-1.1207928657531738,-39.3769645690918, -12.447694778442383
496,387643137,0.7261426,-0.00984247,-0.67635536,-0.12314186,9.236675262451172,1.883133053779602,0.6903481483459473,4.680019855499268,-44.69447708129883, -11.892579078674316
497,387659804,0.7209876,-0.009469047,-0.6816391,-0.12432182,9.50308609008789,2.4024007320404053,0.2610480487346649,-0.7808104157447815,-49.956573486328125, -12.436297416687012
498,387676471,0.7157221,-0.009715461,-0.68689644,-0.12578265,9.511307716369629,2.314483165740967,-0.034951794892549515,-5.19809627532959,-50.865631103515625, -11.01213264465332
499,387693138,0.710211,-0.010441301,-0.6922661,-0.1275124,9.279804229736328,2.2469823360443115,-0.17916056513786316,-8.7454195022583,-52.98321533203125, -10.287294387817383
500,387709805,0.7042784,-0.012146256,-0.69783384,-0.12989509,9.264543533325195,2.3584225177764893,-0.1474471390247345,-16.489112854003906,-56.77679443359375, -9.19570255279541
501,387726472,0.69801235,-0.014284606,-0.70349646,-0.13292076,9.33216381072998,2.1795594692230225,-0.4964984655380249,-21.61370277404785,-59.178733825683594, -10.530646324157715
502,387743139,0.691328,-0.016674925,-0.7094073,-0.13612217,9.653440475463867,1.4351615905761719,-0.844496488571167,-23.48540687561035,-62.6141471862793, -10.55882740020752
503,387759806,0.68438196,-0.018634727,-0.715607,-0.13849643,9.833118438720703,1.1159155368804932,-1.0384210348129272,-17.1623477935791,-64.96060180664062, -9.007568359375
504,387776473,0.67720157,-0.020036686,-0.72207016,-0.1400422,9.890260696411133,1.2845749855041504,-1.0173319578170776,-10.239190101623535,-66.93414306640625, -8.116541862487793
505,387793140,0.66992694,-0.020816805,-0.72864354,-0.14086717,10.123315811157227,1.4339014291763306,-1.201341152191162,-3.6703720092773438,-67.42154693603516, -7.958366394042969
506,387809807,0.6628575,-0.021005895,-0.73507935,-0.14084479,10.290623664855957,1.6223238706588745,-1.2563979625701904,3.1942150592803955,-65.31511688232422, -6.8027472496032715
507,387826474,0.6560059,-0.020902162,-0.7413597,-0.14001943,10.697848320007324,1.282859444618225,-1.7188538312911987,8.46954345703125,-63.34310531616211, -4.393627166748047
508,387843141,0.649554,-0.020101354,-0.7474473,-0.13783431,11.05533504486084,1.1551764011383057,-1.6345921754837036,18.41782569885254,-59.965660095214844, -1.408756136894226
509,387859808,0.64309293,-0.018182935,-0.753698,-0.13431488,11.566939353942871,1.6728216409683228,-1.5736656188964844,30.42032814025879,-59.87246322631836, -1.2335401773452759
510,387876475,0.6370195,-0.014012503,-0.75975144,-0.12956832,11.543657302856445,3.3459770679473877,-0.03390428423881531,46.60453414916992,-55.073177337646484, -7.101905822753906
511,387893142,0.62987834,-0.00869814,-0.7668396,-0.12302528,11.835805892944336,0.7581290602684021,-0.1441558301448822,61.824100494384766,-64.35792541503906, -6.256180763244629
512,387909809,0.62189794,-0.0037853334,-0.7745356,-0.11542786,14.019683837890625,-0.8247839212417603,-0.7555819749832153,66.11090087890625,-71.83841705322266, -0.3330915868282318
513,387926476,0.6127868,-0.00009535451,-0.78286225,-0.10779282,13.550445556640625,-0.5934110879898071,-0.2808920741081238,61.55330276489258,-81.5489730834961, 5.400079727172852
514,387943143,0.60241586,0.0028672074,-0.79190093,-0.09990069,13.86851978302002,-1.7348068952560425,0.292726993560791,60.3995361328125,-91.89620208740234, 9.442700386047363
515,387959810,0.5909153,0.005467132,-0.80177677,-0.08912654,15.019258499145508,-1.0442254543304443,1.8075976371765137,75.18635559082031,-101.74020385742188, 22.567541122436523
516,387976477,0.5790082,0.008206169,-0.81166023,-0.07674738,15.173293113708496,-0.3635977804660797,3.843806505203247,84.62047576904297,-103.91680145263672, 28.05109214782715
517,387993144,0.5672588,0.012952297,-0.8212713,-0.059696224,15.476253509521484,-0.6927210092544556,5.662204742431641,118.53732299804688,-100.69686889648438, 35.504676818847656
518,388009811,0.5560236,0.021675779,-0.8300673,-0.036833417,13.40694808959961,-0.3158007562160492,5.981753349304199,166.49838256835938,-92.54862213134766, 35.842105865478516
519,388026478,0.54396725,0.036109556,-0.8382825,-0.008867147,10.706686019897461,3.6134872436523438,6.38095235824585,217.45162963867188,-92.89519500732422, 22.470449447631836
520,388043145,0.5306741,0.05401413,-0.84568477,0.016882718,7.998350620269775,1.4604429006576538,-3.396085500717163,217.92950439453125,-97.39700317382812, -6.0681257247924805
521,388059812,0.51648533,0.07108668,-0.85212165,0.04559298,10.947518348693848,0.8872369527816772,-12.322957038879395,232.56275939941406,-97.8855972290039, 9.344504356384277
522,388076479,0.500895,0.087690994,-0.857854,0.07417175,16.50503158569336,2.984403371810913,-7.168838977813721,231.03579711914062,-103.46094512939453, 11.734354972839355
523,388093146,0.48572403,0.105117686,-0.8618028,0.10158103,13.14047908782959,2.3733766078948975,-4.493198871612549,227.6356201171875,-95.9716567993164, 1.599632740020752
524,388109813,0.46993232,0.12604615,-0.8636949,0.13155726,10.71408462524414,3.21488356590271,-0.07601256668567657,256.455322265625,-93.38758087158203, -11.598982810974121
525,388126480,0.45869672,0.14420977,-0.8632612,0.15356238,10.96100902557373,5.148991107940674,5.156954765319824,198.3230438232422,-63.23986053466797, -27.032073974609375
526,388143147,0.45437205,0.15772259,-0.8610701,0.1650108,6.38618278503418,4.314505577087402,7.077170372009277,115.99799346923828,-22.29226303100586, -41.70504379272461
527,388159814,0.45614392,0.1683338,-0.8565487,0.17297707,3.67932391166687,2.494422197341919,6.318260192871094,82.36167907714844,20.539649963378906, -44.80775451660156
528,388176481,0.46345073,0.17629553,-0.8501216,0.17727612,4.975480079650879,1.9760780334472656,5.009672164916992,48.32088851928711,57.978233337402344, -49.47100067138672
529,388193148,0.47595862,0.18144655,-0.84205467,0.17743987,6.381033897399902,1.7350693941116333,2.980745315551758,10.890920639038086,91.9796142578125, -54.52976989746094
530,388209815,0.4930706,0.18541887,-0.83170474,0.17541073,7.880794048309326,1.7084228992462158,1.6099109649658203,-8.618873596191406,124.78082275390625, -63.33463668823242
531,388226482,0.51403195,0.18858549,-0.81935906,0.16987504,9.344016075134277,2.4935595989227295,1.8441345691680908,-33.90180587768555,150.03846740722656, -77.79312133789062
532,388243149,0.53870946,0.18922903,-0.80565935,0.15779024,9.856639862060547,1.655512809753418,1.2967791557312012,-82.95242309570312,170.18939208984375, -92.81537628173828
533,388259816,0.56638014,0.18609881,-0.7902449,0.14175366,10.174396514892578,0.1980964094400406,-0.16478046774864197,-120.86235809326172,192.0547332763672, -92.03408813476562
534,388276483,0.5957654,0.17898527,-0.7730803,0.12399688,11.171049118041992,0.1478756070137024,-1.4991127252578735,-146.2215576171875,209.8584747314453, -81.02174377441406
535,388293150,0.625933,0.16858673,-0.753994,0.10620671,11.586874008178711,-0.435372531414032,-2.5405890941619873,-159.1908416748047,224.6493377685547, -66.75460815429688
536,388309817,0.6558028,0.15769972,-0.73255473,0.09174632,11.740869522094727,-1.3266878128051758,-2.836111307144165,-141.9695281982422,237.45631408691406, -52.4307975769043
537,388326484,0.6847915,0.14945081,-0.7084327,0.08275496,12.662215232849121,-0.9030091762542725,-2.9861302375793457,-99.8764877319336,249.3971710205078, -43.44429397583008
538,388343151,0.71290225,0.14398569,-0.68194765,0.0773719,13.532278060913086,0.2244432121515274,-2.9621095657348633,-66.94701385498047,258.3990478515625, -41.970672607421875
539,388359818,0.7400355,0.13993499,-0.6538133,0.07276206,13.725020408630371,1.4341927766799927,-2.550349235534668,-54.54702377319336,261.9507141113281, -45.943172454833984
540,388376485,0.7661397,0.13625452,-0.624487,0.066940404,13.920190811157227,2.5324418544769287,-2.257136106491089,-56.53091812133789,262.0820007324219, -54.41537857055664
541,388393152,0.79076445,0.13228528,-0.59478545,0.058505226,14.535516738891602,3.5083255767822266,-3.6669538021087646,-67.72579956054688,255.435546875, -66.61746215820312
542,388409819,0.81302786,0.12589635,-0.56659263,0.045923486,14.422903060913086,4.843817234039307,-5.16469669342041,-96.31531524658203,234.83792114257812, -76.944580078125
543,388426486,0.8327397,0.113897845,-0.5410862,0.02824948,13.025259971618652,5.344545364379883,-7.467944622039795,-146.181884765625,207.3197021484375, -80.4206314086914
544,388443153,0.8495213,0.09598528,-0.5187064,0.0066950275,12.14732551574707,4.1722235679626465,-9.13643741607666,-192.83412170410156,176.72113037109375, -77.61015319824219
545,388459820,0.86281407,0.074912295,-0.49968383,-0.016018426,11.7454252243042,1.7141807079315186,-9.76092529296875,-213.3125,144.14796447753906, -70.72564697265625
546,388476487,0.8722096,0.053683117,-0.48478404,-0.036787517,11.210058212280273,0.19182288646697998,-10.057892799377441,-205.1085205078125,107.3827133178711, -56.96013259887695
547,388493154,0.87726563,0.03275006,-0.47572994,-0.054900095,10.320073127746582,0.7532093524932861,-11.019871711730957,-191.40199279785156,59.016632080078125, -40.9592170715332
548,388509821,0.87788546,0.011600814,-0.47344425,-0.07094954,9.802258491516113,0.49015048146247864,-12.822297096252441,-181.29013061523438,4.274939060211182, -27.20467758178711
549,388526488,0.87462676,-0.0061355853,-0.47758657,-0.08307801,9.515832901000977,-0.07799133658409119,-12.855104446411133,-143.8046417236328,-45.037391662597656, -15.568875312805176
550,388543155,0.8686623,-0.016974326,-0.48684245,-0.09012613,10.585942268371582,-0.46174025535583496,-11.33094596862793,-81.49758911132812,-80.79764556884766, -8.609637260437012
551,388559822,0.8612746,-0.018995974,-0.49957037,-0.09096789,10.61408519744873,0.09397491812705994,-6.422682762145996,-6.571638107299805,-101.49415588378906, -2.7568209171295166
552,388576489,0.8562085,-0.01677555,-0.50890297,-0.08743006,15.924428939819336,-1.3064546585083008,21.601076126098633,29.144855499267578,-71.37411499023438, 8.906819343566895
553,388593156,0.85168344,-0.016777283,-0.51633495,-0.08804762,8.34539794921875,1.5159462690353394,11.017165184020996,0.46745675802230835,-59.264930725097656, -7.258037567138672
554,388609823,0.8467912,-0.014814519,-0.52393997,-0.09062421,8.413871765136719,4.214716911315918,0.32221105694770813,5.082706451416016,-60.23626708984375, -25.942319869995117
555,388626490,0.841214,-0.017984271,-0.531671,-0.09675864,9.445816040039062,3.6184918880462646,0.4571213126182556,-37.62078094482422,-66.26243591308594, -28.581453323364258
556,388643157,0.83480424,-0.03219791,-0.5393989,-0.10542624,15.853353500366211,-8.593758583068848,-3.637143611907959,-110.8737564086914,-76.3149642944336, -3.386265993118286
557,388659824,0.82847345,-0.018198391,-0.5509996,-0.09849135,15.245448112487793,4.177404880523682,-4.097658157348633,111.79557800292969,-81.18925476074219, -19.336633682250977
558,388676491,0.81991374,-0.023817848,-0.56225306,-0.10510136,14.569215774536133,3.320298433303833,1.9623979330062866,-51.780967712402344,-99.18000793457031, -23.6050968170166
559,388693158,0.81164724,-0.035020906,-0.5720014,-0.11321389,8.790519714355469,-0.6164150834083557,1.7029860019683838,-90.1333999633789,-93.34735870361328, -10.013099670410156
560,388709825,0.80437595,-0.043301154,-0.58021444,-0.120234855,8.551220893859863,0.6558014750480652,1.5632641315460205,-70.44583892822266,-78.86279296875, -14.258344650268555
561,388726492,0.79805076,-0.047867298,-0.5873135,-0.12604465,10.042505264282227,-0.7940765619277954,1.0102107524871826,-45.81623840332031,-66.23503875732422, -21.292383193969727
562,388743159,0.7930888,-0.043583747,-0.5944799,-0.12531865,10.676286697387695,-1.3414033651351929,0.7906348705291748,29.714778900146484,-55.58143615722656, -19.996578216552734
563,388759826,0.788711,-0.035132747,-0.6015836,-0.12164838,10.48574447631836,-0.043660059571266174,1.3694968223571777,64.53484344482422,-50.1467399597168, -20.50173568725586
564,388776493,0.78440255,-0.02678755,-0.6083433,-0.11795749,9.629826545715332,1.5344535112380981,1.7296396493911743,63.82422637939453,-48.09143829345703, -19.818708419799805
565,388793160,0.7798835,-0.021609813,-0.6146283,-0.11639348,9.401190757751465,1.947434425354004,1.8119698762893677,37.4381103515625,-48.598785400390625, -18.125329971313477
566,388809827,0.7753338,-0.018453399,-0.62054574,-0.11593361,9.600508689880371,1.5173393487930298,1.416195034980774,21.626022338867188,-48.2253532409668, -15.475393295288086
567,388826494,0.77080786,-0.015875643,-0.6262829,-0.11564526,9.882012367248535,1.5861209630966187,1.0814917087554932,17.668434143066406,-47.61299133300781, -13.880632400512695
568,388843161,0.7664591,-0.012977211,-0.63183504,-0.114704564,9.629171371459961,1.8187872171401978,0.9289987683296204,22.04902458190918,-45.694217681884766, -11.644899368286133
569,388859828,0.7624305,-0.009875265,-0.63694537,-0.11359423,9.306976318359375,1.844228744506836,0.9030579328536987,23.538806915283203,-41.839298248291016, -11.343642234802246
570,388876495,0.75864923,-0.006743904,-0.64168364,-0.11246668,9.391149520874023,1.6282715797424316,0.7467067241668701,23.49437141418457,-38.79391098022461, -11.164022445678711
571,388893162,0.7549904,-0.003544428,-0.64621645,-0.11127398,9.455079078674316,2.0078697204589844,0.8862602710723877,23.984485626220703,-37.14229202270508, -11.023030281066895
572,388909829,0.7512543,-0.0015810177,-0.650586,-0.11114271,9.994888305664062,1.48357093334198,0.7721375226974487,12.72606086730957,-37.57011032104492, -11.094923973083496
573,388926496,0.7474161,0.000088529516,-0.6550085,-0.1110575,10.015409469604492,1.1750632524490356,0.6356073617935181,11.042755126953125,-38.53617477416992, -10.100234985351562
574,388943163,0.7433726,0.0017704366,-0.6596144,-0.110921845,9.523653984069824,1.4955472946166992,0.6113990545272827,11.475774765014648,-40.40532302856445, -10.0587739944458
575,388959830,0.7390702,0.0034389894,-0.66447616,-0.11061501,9.106499671936035,2.087031364440918,0.6787649989128113,12.38304328918457,-42.90641403198242, -9.320183753967285
576,388976497,0.73446053,0.0045139575,-0.6695522,-0.1106696,9.202607154846191,2.327934503555298,0.5375873446464539,7.88714075088501,-45.87286376953125, -8.670517921447754
577,388993164,0.72959113,0.0052852314,-0.67482996,-0.11078866,9.408358573913574,2.053610324859619,0.48199450969696045,6.219923973083496,-48.332645416259766, -7.784546852111816
578,389009831,0.72428006,0.0057791127,-0.68047166,-0.11110313,9.291659355163574,2.6552748680114746,0.40679651498794556,4.217729568481445,-52.439353942871094, -7.79850435256958
579,389026498,0.71872807,0.0056777773,-0.68621564,-0.11183268,9.18995475769043,2.7693474292755127,0.029401704668998718,-0.5988697409629822,-54.560062408447266, -7.253119468688965
580,389043165,0.7129924,0.004515981,-0.6919521,-0.11324407,9.311199188232422,2.417890787124634,-0.37660419940948486,-9.052618026733398,-56.241783142089844, -5.751781463623047
581,389059832,0.70713747,0.0020686472,-0.697591,-0.11541163,9.62171459197998,1.8712352514266968,-0.8735196590423584,-19.021846771240234,-57.36347961425781, -3.4318125247955322
582,389076499,0.7010352,-0.0011219629,-0.7032079,-0.118523605,9.713719367980957,1.7466394901275635,-0.7147471308708191,-27.1776180267334,-59.05091857910156, -4.652462959289551
583,389093166,0.6947191,-0.004118419,-0.7088799,-0.12181367,9.818236351013184,1.7417654991149902,-0.8404784202575684,-27.05746841430664,-60.19818115234375, -6.622252941131592
584,389109833,0.68812203,-0.0069475593,-0.7146462,-0.12538421,9.585197448730469,2.023026704788208,-0.8761829733848572,-27.552303314208984,-61.87729263305664, -9.014025688171387
585,389126500,0.6810962,-0.0095537845,-0.72076523,-0.12851003,9.841460227966309,1.4392712116241455,-1.1953190565109253,-24.026948928833008,-65.489990234375, -8.38804817199707
586,389143167,0.67368716,-0.011608396,-0.7272875,-0.13062985,10.052626609802246,1.6268455982208252,-1.079778790473938,-16.125478744506836,-68.8620834350586, -6.7780985832214355
587,389159834,0.66598654,-0.013578562,-0.7340225,-0.13224606,10.670872688293457,1.5529769659042358,-1.186333417892456,-13.04578971862793,-71.2786865234375, -5.148312568664551
588,389176501,0.65822107,-0.01503856,-0.74085534,-0.13286431,11.102263450622559,1.3655471801757812,-1.1311511993408203,-5.587525367736816,-71.69166564941406, -3.2254278659820557
589,389193168,0.6506261,-0.014782118,-0.7477634,-0.13159633,11.649953842163086,2.0981903076171875,-1.2769006490707397,11.876991271972656,-69.80155181884766, -3.2916228771209717
590,389209835,0.6436878,-0.011365245,-0.75440764,-0.1280884,11.729004859924316,3.1095781326293945,0.453968346118927,37.36198043823242,-62.6240234375, -8.903436660766602
591,389226502,0.6359273,-0.0058504497,-0.76215637,-0.121163666,12.589503288269043,0.03983312472701073,-0.13044524192810059,65.28565216064453,-70.22332000732422, -5.472765922546387
592,389243169,0.6274379,-0.00047557638,-0.77053237,-0.11225835,14.041851997375488,-0.9684343934059143,-0.23759132623672485,75.54903411865234,-77.0074234008789, 3.2626733779907227
593,389259836,0.6180459,0.0036033818,-0.77927554,-0.103617325,13.143876075744629,-0.23162347078323364,0.23764723539352417,68.8396987915039,-84.39999389648438, 8.257031440734863
594,389276503,0.6076242,0.005967186,-0.78842646,-0.09561213,13.466114044189453,-1.6516051292419434,0.04059271514415741,58.46282196044922,-92.92029571533203, 13.997936248779297
595,389293170,0.5967924,0.008299648,-0.7978298,-0.085077666,14.52127742767334,-1.5836904048919678,1.8090333938598633,72.22528076171875,-96.1502456665039, 24.443063735961914
596,389309837,0.5855157,0.011372746,-0.80741775,-0.071549036,16.024499893188477,-1.863883376121521,4.001569747924805,91.82503509521484,-98.80022430419922, 32.38608169555664
597,389326504,0.5743,0.016408319,-0.8167471,-0.053247437,15.87604808807373,-1.2103683948516846,6.545029640197754,126.0947494506836,-96.16531372070312, 40.68701171875
598,389343171,0.56335604,0.024761362,-0.82524973,-0.03131246,13.337857246398926,0.4585282504558563,6.819159984588623,159.2736358642578,-89.85575103759766, 36.393131256103516
599,389359838,0.55246943,0.03789653,-0.83263725,-0.007578522,9.931281089782715,3.852638006210327,7.3411865234375,187.76748657226562,-83.97740936279297, 16.054203033447266
600,389376505,0.53855836,0.055874407,-0.8405891,0.015606061,6.305845260620117,1.141097068786621,-5.365617752075195,203.8610076904297,-103.4245376586914, -13.729008674621582
601,389393172,0.52457327,0.073384814,-0.8469744,0.045526657,11.596048355102539,1.2157825231552124,-14.158756256103516,241.2764129638672,-95.39269256591797, 13.349872589111328
602,389409839,0.50816983,0.089526474,-0.85350794,0.07261888,18.295894622802734,2.708254337310791,-8.352375030517578,221.03509521484375,-110.93721771240234, 11.968693733215332
603,389426506,0.49328744,0.1074498,-0.8573728,0.10017199,12.462113380432129,3.113037347793579,-3.4873366355895996,230.37408447265625,-93.29450988769531, 0.7536449432373047
604,389443173,0.4775623,0.12814961,-0.8596845,0.12827735,10.187093734741211,3.6048855781555176,0.6631568670272827,244.76475524902344,-94.52186584472656, -14.270707130432129
605,389459840,0.46740836,0.14519055,-0.8592017,0.14907128,11.098301887512207,5.142572402954102,5.679973602294922,187.0760498046875,-55.65763473510742, -23.980031967163086
606,389476507,0.46451145,0.15696138,-0.85691774,0.15901282,5.789463996887207,4.777580738067627,7.278907299041748,100.63444519042969,-12.508398056030273, -36.89755630493164
607,389493174,0.46809557,0.1646252,-0.8525186,0.1643104,2.904169797897339,2.3221089839935303,5.924933910369873,55.490501403808594,31.83893394470215, -36.852169036865234
608,389509841,0.47702426,0.16956112,-0.846126,0.16663791,4.815855979919434,1.7619540691375732,4.827375411987305,25.509765625,69.25468444824219, -38.693363189697266
609,389526508,0.49098372,0.17229906,-0.8378111,0.16529098,6.455002784729004,1.8689972162246704,2.965853214263916,-6.7367119789123535,103.01434326171875, -45.94674301147461
610,389543175,0.50948936,0.17376241,-0.82728493,0.16070928,8.291059494018555,1.8145729303359985,2.3438117504119873,-32.54399871826172,134.24754333496094, -57.297725677490234
611,389559842,0.531649,0.17429589,-0.8146775,0.15255016,10.147479057312012,1.8499184846878052,2.1092894077301025,-58.21601104736328,159.03884887695312, -71.05535888671875
612,389576509,0.5569931,0.17279182,-0.80019665,0.13995615,10.231325149536133,1.0178154706954956,1.0627280473709106,-92.36044311523438,180.5092010498047, -81.4361343383789
613,389593176,0.58462584,0.1685918,-0.78369194,0.124967895,10.046674728393555,0.1712876707315445,-0.31082502007484436,-116.63571166992188,200.5749969482422, -80.39019012451172
614,389609843,0.6136068,0.16122612,-0.765248,0.10903541,11.013065338134766,-0.19232146441936493,-1.386635184288025,-134.35585021972656,217.25131225585938, -70.55641174316406
615,389626510,0.64296526,0.15208197,-0.7446741,0.09448666,11.333414077758789,-0.5461642742156982,-2.1720852851867676,-133.4059600830078,231.09033203125, -58.032772064208984
616,389643177,0.671959,0.14290473,-0.72193974,0.08278182,11.601930618286133,-0.6459519863128662,-2.1165060997009277,-117.2093505859375,241.7802276611328, -47.3436164855957
617,389659844,0.7002926,0.13534,-0.6969657,0.07424833,12.773236274719238,-0.006582092493772507,-2.4348974227905273,-92.09508514404297,251.06715393066406, -42.55086135864258
618,389676511,0.7276103,0.12966003,-0.6702093,0.06776155,13.70744800567627,0.6895249485969543,-2.68601131439209,-71.3586196899414,255.7526397705078, -42.89047622680664
619,389693178,0.7536468,0.1252413,-0.64224225,0.06210351,14.138968467712402,1.231083631515503,-3.035374879837036,-59.52605438232422,256.09735107421875, -45.054508209228516
620,389709845,0.77809453,0.12241103,-0.6135213,0.056362804,13.767374038696289,2.272519826889038,-3.0831549167633057,-49.974449157714844,252.29290771484375, -52.47943878173828
621,389726512,0.8004886,0.120306246,-0.58509815,0.049041748,14.11872386932373,2.9568543434143066,-4.526096820831299,-51.156005859375,240.4850311279297, -62.95038604736328
622,389743179,0.82043695,0.11653543,-0.55839705,0.038678892,13.432168006896973,4.840047836303711,-5.593316078186035,-71.13762664794922,219.29397583007812, -70.73975372314453
623,389759846,0.838127,0.1054419,-0.53473526,0.02199506,12.266340255737305,5.106646537780762,-7.457454681396484,-135.75057983398438,190.4587860107422, -75.23444366455078
624,389776513,0.8530139,0.087342,-0.51452816,0.00042444735,11.523027420043945,3.844275951385498,-8.924261093139648,-192.63186645507812,157.87420654296875, -74.69465637207031
625,389793180,0.86447597,0.06702182,-0.4977266,-0.021406977,11.27197265625,1.3617095947265625,-9.119515419006348,-204.56362915039062,125.75048065185547, -66.30396270751953
626,389809847,0.8723697,0.049540065,-0.4847131,-0.03963265,11.16443920135498,0.2520418167114258,-9.387933731079102,-173.1585693359375,93.216796875, -53.365257263183594
627,389826514,0.8766598,0.034519214,-0.47676355,-0.054529376,10.519186973571777,0.46521463990211487,-9.610276222229004,-144.70352172851562,52.75958251953125, -40.860939025878906
628,389843181,0.87747574,0.020909648,-0.47448605,-0.066805854,10.094398498535156,0.7966167330741882,-9.896660804748535,-124.66893005371094,8.457348823547363, -29.647647857666016
629,389859848,0.874934,0.010913955,-0.47825876,-0.07510363,9.568550109863281,0.26026585698127747,-10.715126037597656,-86.63682556152344,-36.642112731933594, -18.09796905517578
630,389876515,0.870012,0.006671826,-0.4866061,-0.07905526,10.553739547729492,0.08678679168224335,-7.25819730758667,-35.20276641845703,-68.5642318725586, -11.756389617919922
631,389893182,0.86381304,0.010194172,-0.497904,-0.076258,12.757301330566406,-2.8743865489959717,2.413318157196045,35.482086181640625,-85.85690307617188, 2.067833662033081
632,389909849,0.8585921,0.016167948,-0.5072854,-0.072251834,12.351506233215332,2.480233907699585,13.042739868164062,53.1298942565918,-69.73259735107422, 1.1884678602218628
633,389926516,0.8525909,0.015766868,-0.5170022,-0.07449591,9.510954856872559,2.84198260307312,1.632164716720581,-6.042529582977295,-78.37286376953125, -13.819693565368652
634,389943183,0.8456158,0.011466414,-0.5282253,-0.07603361,12.695635795593262,0.4813038110733032,-2.2590792179107666,-25.518911361694336,-92.57620239257812, 3.8645761013031006
635,389959850,0.83725816,0.0053202906,-0.54116327,-0.07818944,16.28176498413086,0.8861101269721985,-4.070111274719238,-37.488094329833984,-108.5252685546875, 6.3846025466918945
636,389976517,0.8276931,-0.0005413716,-0.5552135,-0.08162516,12.212406158447266,3.2012593746185303,1.8895450830459595,-39.97245788574219,-119.23172760009766, -2.6476941108703613
637,389993184,0.81843674,-0.01015287,-0.5680059,-0.08618584,8.849457740783691,-2.5540599822998047,-0.12173423171043396,-66.3148422241211,-112.99067687988281, 5.4742841720581055
638,390009851,0.810214,-0.016021146,-0.57912517,-0.08894536,9.463351249694824,0.6123064756393433,1.1722005605697632,-39.11786651611328,-97.43778991699219, 1.701255202293396
639,390026518,0.8029955,-0.019981023,-0.5884006,-0.09265143,9.945183753967285,0.06261853873729706,-0.12314103543758392,-33.268184661865234,-81.90139770507812, -10.347613334655762
640,390043185,0.7964965,-0.02014609,-0.5969,-0.09433193,11.204025268554688,-0.98909592628479,0.25421813130378723,-4.515233993530273,-72.56022644042969, -13.955642700195312
641,390059852,0.7906034,-0.016595347,-0.6049704,-0.093179986,11.22762680053711,-1.4936283826828003,0.38053709268569946,27.267953872680664,-65.7005844116211, -13.264229774475098
642,390076519,0.7851364,-0.010245095,-0.612673,-0.08993483,10.283129692077637,0.16138827800750732,1.0499827861785889,51.0103874206543,-60.37239074707031, -13.249940872192383
643,390093186,0.77976525,-0.0056747627,-0.6197865,-0.088314295,9.872788429260254,1.1878180503845215,1.2309314012527466,34.201419830322266,-57.783775329589844, -14.439641952514648
644,390109853,0.7744976,-0.0036720086,-0.6263185,-0.088687874,9.761984825134277,1.589611530303955,1.1415152549743652,11.58768367767334,-55.71916580200195, -14.107402801513672
645,390126520,0.7693767,-0.003509363,-0.63231796,-0.09067384,9.576955795288086,1.520922303199768,0.8374548554420471,-5.4766316413879395,-53.34720993041992, -14.661908149719238
646,390143187,0.7645164,-0.0042890883,-0.637763,-0.09356969,9.779075622558594,1.4053988456726074,0.6754673719406128,-14.758382797241211,-49.85968017578125, -15.195609092712402
647,390159854,0.7596822,-0.0052194474,-0.643034,-0.09676587,10.593240737915039,1.6674343347549438,0.4893794059753418,-16.979999542236328,-48.928958892822266, -16.08584976196289
648,390176521,0.75493866,-0.0048450264,-0.6483504,-0.09842013,9.410367965698242,2.0872421264648438,0.35196077823638916,-3.316412925720215,-47.96159744262695, -13.736377716064453
649,390193188,0.7506862,-0.003304918,-0.65328777,-0.09836083,8.633119583129883,2.414499521255493,0.6941875219345093,10.13125991821289,-43.08254623413086, -9.685691833496094
650,390209855,0.74642235,-0.0022092422,-0.6581575,-0.0983777,8.817070960998535,2.516155481338501,0.6614540815353394,7.449100971221924,-43.100486755371094, -8.078697204589844
651,390226522,0.74232674,-0.0031202638,-0.66250443,-0.10014946,10.098172187805176,2.1176722049713135,0.1428031325340271,-11.140676498413086,-41.003910064697266, -7.870027542114258
652,390243189,0.7381083,-0.005324397,-0.6667094,-0.10328092,10.478769302368164,1.8962812423706055,1.145955204963684,-24.033687591552734,-41.71175765991211, -8.991683006286621
653,390259856,0.7337439,-0.0072607407,-0.6709793,-0.106558144,10.038043975830078,1.6188286542892456,0.3959483206272125,-23.299497604370117,-42.53817367553711, -11.057622909545898
654,390276523,0.7293384,-0.008692707,-0.67521346,-0.109896444,8.970757484436035,1.6716340780258179,0.18845093250274658,-21.063201904296875,-42.19120788574219, -13.71658706665039
655,390293190,0.7245731,-0.01112937,-0.67970234,-0.11346992,9.364435195922852,0.6365336179733276,-0.37574777007102966,-27.021432876586914,-45.900691986083984, -10.51294231414795
656,390309857,0.71938103,-0.013212305,-0.68473,-0.11602524,9.434881210327148,1.1036404371261597,0.4016791880130768,-20.110816955566406,-50.39234161376953, -7.4732890129089355
657,390326524,0.713604,-0.015244884,-0.6902728,-0.11857936,9.791704177856445,1.2946480512619019,-0.24443571269512177,-19.494426727294922,-55.673484802246094, -8.219320297241211
658,390343191,0.70758164,-0.016589958,-0.6960559,-0.12066436,9.851410865783691,1.4553682804107666,-0.5724970698356628,-13.722496032714844,-57.51970672607422, -9.406805038452148
659,390359858,0.7012375,-0.017162794,-0.7022102,-0.121954344,9.29325008392334,1.8832072019577026,-0.6816279888153076,-5.8874125480651855,-60.325992584228516, -9.544595718383789
660,390376525,0.6947628,-0.017380461,-0.7085604,-0.12225142,9.580126762390137,1.5801125764846802,-1.035660982131958,0.770114004611969,-61.73114776611328, -6.601943016052246
661,390393192,0.688038,-0.017470362,-0.7151806,-0.12172047,9.721551895141602,1.608350396156311,-0.9355884194374084,5.613739490509033,-64.23938751220703, -3.5133070945739746
662,390409859,0.6809726,-0.017681256,-0.72202206,-0.1210307,9.905823707580566,1.6592260599136353,-1.0566445589065552,5.970653057098389,-67.09181213378906, -2.4807193279266357
663,390426526,0.673646,-0.018155966,-0.72896266,-0.12035703,9.984064102172852,1.5480681657791138,-1.4552767276763916,4.709787368774414,-69.0816879272461, -1.477660059928894
664,390443193,0.6663214,-0.018492946,-0.7358055,-0.1194352,10.00233268737793,1.7712039947509766,-1.3014070987701416,6.513669013977051,-68.54354858398438, -1.0076205730438232
665,390459860,0.65902835,-0.018634465,-0.7425032,-0.11842283,10.173322677612305,1.911617636680603,-1.4266979694366455,7.7559404373168945,-67.58289337158203, -1.5386055707931519
666,390476527,0.65195835,-0.0185452,-0.74891734,-0.117174715,10.474525451660156,2.0755674839019775,-1.6975287199020386,9.806439399719238,-65.01353454589844, -1.4307729005813599
667,390493194,0.6450534,-0.017451657,-0.7551934,-0.115261994,10.90380859375,3.4437038898468018,-1.6145212650299072,17.643939971923828,-62.831581115722656, -3.472046136856079
668,390509861,0.63861424,-0.014405636,-0.7612268,-0.111798264,11.133273124694824,1.9267706871032715,-0.3573496341705322,34.226226806640625,-57.98860168457031, -6.321609973907471
669,390526528,0.631584,-0.009871351,-0.7679753,-0.105920434,12.646604537963867,0.17145465314388275,-0.9954077005386353,53.893619537353516,-63.34762954711914, -4.043280601501465
670,390543195,0.6236104,-0.0051987143,-0.77541447,-0.09907615,12.28659725189209,-0.9535829424858093,-0.9490889310836792,60.03801345825195,-71.319580078125, -1.3380612134933472
671,390559862,0.61482495,-0.0012127713,-0.7832116,-0.09256988,12.499030113220215,-1.6262301206588745,-1.2331678867340088,55.50637435913086,-77.6672134399414, 0.27153533697128296
672,390576529,0.6051651,0.0017488474,-0.7915186,-0.085270554,14.260475158691406,-1.893419861793518,-1.0631511211395264,55.761756896972656,-85.21910095214844, 8.538799285888672
673,390593196,0.5944922,0.0035876017,-0.80037194,-0.07727692,14.074193954467773,-0.9245222210884094,0.5389268398284912,55.196746826171875,-93.69539642333984, 16.90837287902832
674,390609863,0.58252436,0.0049190535,-0.80986494,-0.06899735,14.245491027832031,-0.7126789689064026,1.870951533317566,55.06943893432617,-103.75751495361328, 20.167150497436523
675,390626530,0.5701778,0.0066070245,-0.8194171,-0.05839512,15.644539833068848,-0.6518149971961975,4.132145881652832,69.47450256347656,-105.93190002441406, 27.28275489807129
676,390643197,0.5580909,0.0097932145,-0.82857317,-0.043654267,16.0632381439209,-0.5192083716392517,6.641137599945068,98.49996185302734,-102.23603057861328, 35.131980895996094
677,390659864,0.546837,0.01608712,-0.83672667,-0.024486372,14.503809928894043,1.2560714483261108,7.301305294036865,135.29757690429688,-92.55357360839844, 34.584903717041016
678,390676531,0.53683645,0.02494189,-0.8432985,-0.0057287607,11.331377983093262,3.3075056076049805,6.4212517738342285,142.17100524902344,-79.14830780029297, 18.359172821044922
679,390693198,0.5247734,0.038258336,-0.8502879,0.0126601625,6.601101875305176,1.8487532138824463,-2.0558512210845947,156.8952178955078,-92.65416717529297, -8.838761329650879
680,390709865,0.50894433,0.055773463,-0.8579246,0.042794228,11.911349296569824,0.01894092559814453,-14.811505317687988,241.6907196044922,-114.30438995361328, 9.531000137329102
681,390726532,0.49389854,0.07203597,-0.86346036,0.07288292,17.999784469604492,2.4270219802856445,-7.196202754974365,237.35011291503906,-101.8836898803711, 15.74313735961914
682,390743199,0.48040968,0.088932194,-0.8666453,0.10111541,12.893142700195312,2.139394760131836,-4.022021293640137,228.89837646484375,-85.90940856933594, 3.777484893798828
683,390759866,0.465185,0.10762592,-0.8690022,0.12982808,11.156744003295898,1.113341212272644,-1.722452163696289,239.35890197753906,-94.50241088867188, -4.600500106811523
684,390776533,0.45454925,0.12592416,-0.86812884,0.15453467,11.553593635559082,4.706556797027588,2.7156248092651367,213.64051818847656,-59.38848876953125, -21.49803924560547
685,390793200,0.45077732,0.13826632,-0.866561,0.16356881,6.845210552215576,5.894718170166016,7.489788055419922,96.27444458007812,-23.56195068359375, -42.7436408996582
686,390809867,0.45310876,0.14670107,-0.8636183,0.1653336,2.957423686981201,2.7253758907318115,6.509580612182617,36.6248664855957,14.4497709274292, -50.092201232910156
