PacketCounter,SampleTimeFine,Quat_W,Quat_X,Quat_Y,Quat_Z,Acc_X,Acc_Y,Acc_Z,Gyr_X,Gyr_Y,Gyr_Z 
1,136317822,0.19856049,-0.7322398,-0.101609014,-0.6434861,-0.5054371953010559,2.7566699981689453,2.047088623046875,-1.2435935735702515,5.465673446655273, -0.1901099979877472
2,136334489,0.19811997,-0.73247296,-0.10112517,-0.64343274,9.669136047363281,-1.629319429397583,-0.8990387320518494,-0.28948748111724854,-3.458981990814209, -0.6008098721504211
3,136351156,0.19823742,-0.732701,-0.10085589,-0.64317924,9.678071022033691,-1.6353856325149536,-0.9157547950744629,-0.01935039460659027,-3.5326061248779297, -0.6355792284011841
4,136367823,0.19858097,-0.73296225,-0.10086336,-0.6427743,9.658148765563965,-1.6408175230026245,-0.9145974516868591,0.5027324557304382,-3.6879725456237793, -0.6758294701576233
5,136384490,0.19836612,-0.7333113,-0.10031876,-0.6425276,9.6495361328125,-1.6386319398880005,-0.9192774891853333,0.9169667959213257,-3.722780466079712, -0.7689189314842224
6,136401157,0.19834948,-0.73362446,-0.10012601,-0.64220524,9.683079719543457,-1.5932133197784424,-0.909447431564331,0.9734940528869629,-3.7775919437408447, -0.8495606184005737
7,136417824,0.19819053,-0.73391175,-0.09998357,-0.64194816,9.698530197143555,-1.5338226556777954,-0.9025447964668274,0.6486608386039734,-3.7094361782073975, -0.7985528111457825
8,136434491,0.19797868,-0.7341525,-0.09999306,-0.6417367,9.678455352783203,-1.556593418121338,-0.9076166152954102,0.2663784921169281,-3.5619969367980957, -0.6684147119522095
9,136451158,0.1978149,-0.73436964,-0.100106694,-0.64152116,9.678133964538574,-1.5837739706039429,-0.9206428527832031,0.092557892203331,-3.4724414348602295, -0.5695239901542664
10,136467825,0.19753867,-0.73459184,-0.1001024,-0.64135236,9.67858600616455,-1.5936675071716309,-0.8829492330551147,0.2524707615375519,-3.329010486602783, -0.6865099668502808
11,136484492,0.19727932,-0.734804,-0.10009345,-0.64119065,9.690619468688965,-1.5582940578460693,-0.9093249440193176,0.2405608594417572,-3.3785581588745117, -0.6888151168823242
12,136501159,0.19706666,-0.73500526,-0.10013243,-0.64101917,9.674708366394043,-1.5786222219467163,-0.908099889755249,0.260244220495224,-3.3144755363464355, -0.5856343507766724
13,136517826,0.19693604,-0.7352104,-0.10023963,-0.6408073,9.684027671813965,-1.5571212768554688,-0.9055142402648926,0.07460338622331619,-3.39876651763916, -0.4621555209159851
14,136534493,0.19677123,-0.7354078,-0.10032177,-0.6406185,9.711701393127441,-1.525780200958252,-0.913895308971405,0.17891110479831696,-3.2940750122070312, -0.5346779227256775
15,136551160,0.1966266,-0.73557377,-0.1004298,-0.64045566,9.698186874389648,-1.5181266069412231,-0.9050449728965759,-0.029979664832353592,-2.9471375942230225, -0.48586007952690125
16,136567827,0.1964253,-0.73574436,-0.10044158,-0.64031935,9.696293830871582,-1.5434590578079224,-0.9132802486419678,-0.09293567389249802,-2.847862958908081, -0.2838399112224579
17,136584494,0.19632162,-0.7358931,-0.100537084,-0.64016527,9.693780899047852,-1.5251153707504272,-0.920030415058136,-0.42182832956314087,-2.6629137992858887, -0.15528981387615204
18,136601161,0.19613335,-0.73606724,-0.10051482,-0.6400263,9.667696952819824,-1.5987566709518433,-0.9071576595306396,-0.493595153093338,-2.7133326530456543, -0.020490160211920738
19,136617828,0.19576766,-0.7362678,-0.10028964,-0.6399428,9.693445205688477,-1.5567742586135864,-0.8930591940879822,-0.49159732460975647,-2.692035675048828, -0.1513582319021225
20,136634495,0.19552724,-0.7364399,-0.10022624,-0.63982826,9.68488883972168,-1.5576064586639404,-0.8914924263954163,-0.2623380720615387,-2.6754000186920166, -0.30289575457572937
21,136651162,0.1952596,-0.7366101,-0.10011881,-0.6397308,9.673619270324707,-1.5518088340759277,-0.9174537062644958,-0.13458190858364105,-2.624213218688965, -0.30562350153923035
22,136667829,0.19494087,-0.7368002,-0.09992025,-0.6396401,9.666400909423828,-1.5799119472503662,-0.9097781181335449,0.028077924624085426,-2.699629783630371, -0.17916083335876465
23,136684496,0.19481528,-0.7369686,-0.09994165,-0.639481,9.666895866394043,-1.6012414693832397,-0.9204390048980713,0.27876219153404236,-2.8071517944335938, -0.22774815559387207
24,136701163,0.19468698,-0.737141,-0.099938154,-0.6393219,9.658737182617188,-1.554452657699585,-0.8944202661514282,0.41626405715942383,-2.812889337539673, -0.2019689679145813
25,136717830,0.19449584,-0.7373255,-0.09987922,-0.6391766,9.680583000183105,-1.5587055683135986,-0.8970743417739868,0.2447485476732254,-2.832392930984497, -0.2642461955547333
26,136734497,0.1943343,-0.737503,-0.09987678,-0.6390213,9.6771821975708,-1.543889045715332,-0.88736492395401,0.1614048182964325,-2.8261566162109375, -0.36920708417892456
27,136751164,0.19423637,-0.7376687,-0.09991272,-0.63885415,9.68404483795166,-1.5466099977493286,-0.8956502079963684,0.16761590540409088,-2.7644553184509277, -0.22094793617725372
28,136767831,0.19407167,-0.737846,-0.099867456,-0.63870656,9.693412780761719,-1.5515862703323364,-0.9281827211380005,0.1268276870250702,-2.762009620666504, -0.19863930344581604
29,136784498,0.19396114,-0.73800987,-0.09984593,-0.6385541,9.68364429473877,-1.5569220781326294,-0.9107860326766968,0.1891561895608902,-2.6444475650787354, -0.05148153007030487
30,136801165,0.1938365,-0.7381619,-0.09981295,-0.6384214,9.68653392791748,-1.5340372323989868,-0.9042496681213379,0.06355151534080505,-2.4770939350128174, -0.09880098700523376
31,136817832,0.19380791,-0.7382976,-0.09988398,-0.638262,9.676020622253418,-1.5334140062332153,-0.90062415599823,0.02313467301428318,-2.4428627490997314, -0.060881391167640686
32,136834499,0.19369695,-0.73845273,-0.0998645,-0.63811934,9.681107521057129,-1.5400424003601074,-0.9073389768600464,0.18092168867588043,-2.538794755935669, -0.08317723870277405
33,136851166,0.19356701,-0.7386107,-0.099811,-0.6379843,9.690592765808105,-1.5334352254867554,-0.9093036651611328,0.17825795710086823,-2.5150771141052246, -0.03237444534897804
34,136867833,0.19349347,-0.7387517,-0.099826574,-0.6378408,9.689107894897461,-1.5330088138580322,-0.8674660921096802,0.2546606659889221,-2.442094326019287, -0.07195888459682465
35,136884500,0.19338226,-0.7389017,-0.09981355,-0.6377028,9.698309898376465,-1.5219120979309082,-0.8758087754249573,0.39421147108078003,-2.5293049812316895, -0.1465814858675003
36,136901167,0.19317046,-0.7390881,-0.09972816,-0.6375644,9.695320129394531,-1.5606379508972168,-0.8758993148803711,0.36275267601013184,-2.8070108890533447, -0.28587615489959717
37,136917834,0.1931931,-0.73924714,-0.09992587,-0.6373422,9.697948455810547,-1.5919402837753296,-0.9175717234611511,1.3380651473999023,-3.084498882293701, -0.43752893805503845
38,136934501,0.19316882,-0.7393853,-0.10002972,-0.637173,9.69157600402832,-1.5520482063293457,-0.9342184662818909,1.6618350744247437,-2.780527353286743, -0.3852534294128418
39,136951168,0.19317627,-0.7395032,-0.1001331,-0.6370175,9.702615737915039,-1.5305297374725342,-0.9406256079673767,1.1340599060058594,-2.4714720249176025, -0.1991003155708313
40,136967835,0.1930947,-0.739623,-0.10007923,-0.6369117,9.706914901733398,-1.472602367401123,-0.920851469039917,0.38556715846061707,-2.134063243865967, 0.09832076728343964
41,136984502,0.19294335,-0.7397401,-0.0998486,-0.63685787,9.743996620178223,-1.4509046077728271,-0.9175888299942017,-0.3333364725112915,-1.73515784740448, 0.5888039469718933
42,137001169,0.19290173,-0.73984504,-0.09960893,-0.6367859,9.727828979492188,-1.4827653169631958,-0.8924102187156677,-0.8816531896591187,-1.5067566633224487, 1.2849572896957397
43,137017836,0.19288138,-0.73994696,-0.09927465,-0.6367259,9.73408031463623,-1.4979978799819946,-0.8913998007774353,-0.8128063082695007,-1.3574731349945068, 1.8096206188201904
44,137034503,0.19294095,-0.7400424,-0.098927274,-0.636651,9.725337982177734,-1.5141589641571045,-0.853300929069519,-0.492276132106781,-1.3282873630523682, 2.2547693252563477
45,137051170,0.1929599,-0.7401714,-0.098493434,-0.6365627,9.636954307556152,-1.5154476165771484,-0.826789140701294,-0.17968589067459106,-1.6195805072784424, 2.452601671218872
46,137067837,0.19290157,-0.74035263,-0.09803677,-0.6364401,9.604471206665039,-1.604303002357483,-0.8015034198760986,0.2856392562389374,-2.225090742111206, 2.1934268474578857
47,137084504,0.19299014,-0.74058306,-0.09792737,-0.63616186,9.582805633544922,-1.70127272605896,-0.7841218709945679,0.6497364640235901,-3.294497489929199, 1.5168160200119019
48,137101171,0.19304629,-0.7408573,-0.09796879,-0.635819,9.636826515197754,-1.69551420211792,-0.8254086971282959,1.4570873975753784,-4.1124396324157715, 0.6444347500801086
49,137117838,0.19312386,-0.7411521,-0.098193526,-0.6354171,9.667586326599121,-1.589979887008667,-0.8124514818191528,1.5970220565795898,-4.61493444442749, -0.04112118482589722
50,137134505,0.19297343,-0.7415126,-0.09827531,-0.6350296,9.672187805175781,-1.5904045104980469,-0.814638078212738,0.9079894423484802,-5.004068851470947, -0.43335410952568054
51,137151172,0.1927547,-0.7419133,-0.0983999,-0.6346084,9.661151885986328,-1.5986555814743042,-0.8202645182609558,-0.07430244982242584,-5.339864253997803, -0.7874624729156494
52,137167839,0.19233875,-0.74238646,-0.09844809,-0.63417375,9.648181915283203,-1.655724287033081,-0.8407747149467468,-0.6113111972808838,-5.916470050811768, -1.309013843536377
53,137184506,0.19211486,-0.74284106,-0.098800294,-0.63365436,9.627920150756836,-1.6735388040542603,-0.8750374913215637,0.522915244102478,-6.344905853271484, -1.7864601612091064
54,137201173,0.19189839,-0.743303,-0.099272355,-0.6331042,9.64809513092041,-1.6167633533477783,-0.8896241784095764,1.7296453714370728,-6.797407627105713, -2.4217453002929688
55,137217840,0.19171008,-0.7437232,-0.09982921,-0.6325799,9.664576530456543,-1.5783867835998535,-0.963367760181427,2.331249237060547,-6.589252471923828, -2.8122878074645996
56,137234507,0.1915275,-0.7441017,-0.100400895,-0.6320994,9.695500373840332,-1.531917691230774,-1.0115505456924438,2.346334457397461,-6.177399158477783, -2.93904447555542
57,137251174,0.19133003,-0.7444381,-0.10091235,-0.6316815,9.690994262695312,-1.5129436254501343,-0.9925257563591003,1.7584850788116455,-5.553371906280518, -2.7682979106903076
58,137267841,0.19111319,-0.7447406,-0.10135121,-0.6313204,9.714896202087402,-1.4908283948898315,-0.988655149936676,1.227392554283142,-5.008602619171143, -2.556967258453369
59,137284508,0.19093949,-0.7449909,-0.10176878,-0.63101023,9.70528507232666,-1.4795423746109009,-0.9924557209014893,0.8871407508850098,-4.38251256942749, -2.287303924560547
60,137301175,0.19069868,-0.7451995,-0.102030516,-0.6307946,9.740808486938477,-1.4471185207366943,-0.9876096248626709,0.38189172744750977,-3.643355369567871, -1.9960743188858032
61,137317842,0.19049978,-0.7453661,-0.102230445,-0.63062537,9.729187965393066,-1.4755674600601196,-0.9980161786079407,0.3542172312736511,-3.1158106327056885, -1.5762054920196533
62,137334509,0.19037263,-0.7454742,-0.10239526,-0.63050914,9.752361297607422,-1.4383443593978882,-1.0069037675857544,0.708095133304596,-2.511991024017334, -1.203169345855713
63,137351176,0.19029137,-0.74554867,-0.10251943,-0.63042545,9.738763809204102,-1.4332823753356934,-0.9863643646240234,0.6588162779808044,-2.095682382583618, -0.833923876285553
64,137367843,0.19014296,-0.7456257,-0.102475114,-0.6303864,9.719409942626953,-1.4120306968688965,-0.9359128475189209,0.25017842650413513,-1.8192827701568604, -0.40436047315597534
65,137384510,0.19000767,-0.74568003,-0.10239914,-0.63037515,9.70154857635498,-1.4438977241516113,-0.947024941444397,0.016539400443434715,-1.5134286880493164, -0.20048339664936066
66,137401177,0.18991593,-0.7457349,-0.10233375,-0.6303485,9.686497688293457,-1.4929182529449463,-0.9230854511260986,0.22573113441467285,-1.5763462781906128, -0.02956986054778099
67,137417844,0.18989936,-0.74579334,-0.10235443,-0.630281,9.698566436767578,-1.4754492044448853,-0.916703999042511,0.6206020712852478,-1.812482476234436, -0.03493572026491165
68,137434511,0.18983589,-0.7458474,-0.10230107,-0.6302449,9.699238777160645,-1.481884479522705,-0.9346985220909119,0.9367652535438538,-1.7221978902816772, -0.02485712245106697
69,137451178,0.18977295,-0.7459159,-0.102264754,-0.63018864,9.696435928344727,-1.4327517747879028,-0.8771748542785645,0.5246441960334778,-1.844728946685791, -0.006697720382362604
70,137467845,0.18960105,-0.746015,-0.10216464,-0.63013935,9.685256004333496,-1.4670891761779785,-0.8797098994255066,-0.19290204346179962,-1.9787986278533936, -0.15444457530975342
71,137484512,0.18942425,-0.7461489,-0.10205877,-0.63005114,9.667387962341309,-1.5177706480026245,-0.889712393283844,-0.31136080622673035,-2.3339829444885254, -0.06180344894528389
72,137501179,0.18918347,-0.74630326,-0.10192732,-0.62996167,9.677206993103027,-1.5210411548614502,-0.9136573076248169,-0.17852053046226501,-2.54902720451355, -0.2799724042415619
73,137517846,0.18902971,-0.74645084,-0.10191244,-0.6298355,9.672991752624512,-1.5222922563552856,-0.9160170555114746,0.3006226718425751,-2.7324395179748535, -0.3921176493167877
74,137534513,0.18885784,-0.74660456,-0.10186806,-0.629712,9.698110580444336,-1.4532054662704468,-0.9139356017112732,0.43106815218925476,-2.7885184288024902, -0.37379172444343567
75,137551180,0.18872355,-0.7467672,-0.1018499,-0.62956244,9.699005126953125,-1.4662317037582397,-0.8877557516098022,0.21265585720539093,-2.8988840579986572, -0.2276841253042221
76,137567847,0.18865117,-0.74692225,-0.10187344,-0.6293965,9.682611465454102,-1.4685724973678589,-0.9053565263748169,0.3779473900794983,-2.9218199253082275, -0.10612621158361435
77,137584514,0.18856996,-0.74708045,-0.101860754,-0.629235,9.707667350769043,-1.4694747924804688,-0.9292197823524475,0.2648545205593109,-2.9015605449676514, 0.02587522752583027
78,137601181,0.18849725,-0.7472182,-0.10182487,-0.62909895,9.695100784301758,-1.4496134519577026,-0.9334694743156433,0.2728969156742096,-2.6680362224578857, 0.12782658636569977
79,137617848,0.18837471,-0.7473635,-0.10169985,-0.6289833,9.708203315734863,-1.4484323263168335,-0.9308406710624695,0.25469905138015747,-2.6288490295410156, 0.2596167325973511
80,137634515,0.18829682,-0.7474904,-0.10160545,-0.6288711,9.716047286987305,-1.4568990468978882,-0.9083481431007385,0.2732298672199249,-2.497148275375366, 0.3334965407848358
81,137651182,0.18824457,-0.7476081,-0.10150453,-0.6287629,9.70035171508789,-1.4651293754577637,-0.9152361750602722,0.06293680518865585,-2.37556529045105, 0.5153722763061523
82,137667849,0.18817194,-0.7477265,-0.101360895,-0.6286672,9.686697006225586,-1.4862946271896362,-0.9155462384223938,0.08922825008630753,-2.339963436126709, 0.5858073234558105
83,137684516,0.1881348,-0.74782145,-0.10122499,-0.6285874,9.676676750183105,-1.5139594078063965,-0.9394024014472961,0.2355792075395584,-2.1431939601898193, 0.6749778389930725
84,137701183,0.18813409,-0.74791664,-0.10114529,-0.62848705,9.685340881347656,-1.4794820547103882,-0.904483437538147,0.41411250829696655,-2.269246816635132, 0.6057467460632324
85,137717850,0.18811013,-0.7480156,-0.10105669,-0.62839067,9.676558494567871,-1.493373155593872,-0.8884707689285278,0.2948085367679596,-2.294564962387085, 0.5425986051559448
86,137734517,0.18799508,-0.74812335,-0.1008766,-0.6283258,9.716131210327148,-1.4475055932998657,-0.9161061644554138,-0.25004398822784424,-2.188464403152466, 0.5332372188568115
87,137751184,0.18784729,-0.7482364,-0.100646086,-0.6282724,9.701075553894043,-1.468481183052063,-0.8969240188598633,-0.46845632791519165,-2.1562178134918213, 0.6177335381507874
88,137767851,0.1877588,-0.7483268,-0.100464985,-0.6282201,9.706046104431152,-1.493758201599121,-0.9148447513580322,-0.3690277934074402,-2.0223660469055176, 0.6688179969787598
89,137784518,0.18768431,-0.74841225,-0.100293584,-0.62816805,9.705719947814941,-1.4944368600845337,-0.9048691987991333,-0.25861144065856934,-2.017422676086426, 0.6774239540100098
90,137801185,0.18766464,-0.7484707,-0.100140676,-0.6281286,9.690467834472656,-1.5341237783432007,-0.9063796401023865,0.12248633056879044,-1.838978886604309, 0.7853685617446899
91,137817852,0.18767488,-0.74852633,-0.10000908,-0.62808025,9.68325138092041,-1.5103302001953125,-0.8742793202400208,0.4023435115814209,-1.9005391597747803, 0.8077669739723206
92,137834519,0.18768618,-0.74857944,-0.09986549,-0.6280363,9.688435554504395,-1.5051828622817993,-0.8863860368728638,0.5369638800621033,-1.9004751443862915, 0.8385149836540222
93,137851186,0.18771192,-0.74863434,-0.09976879,-0.6279787,9.688152313232422,-1.4913884401321411,-0.8862730264663696,0.6860169172286987,-2.026912212371826, 0.6991434693336487
94,137867853,0.18769114,-0.7487032,-0.09966522,-0.62791926,9.680609703063965,-1.536571979522705,-0.8749822378158569,0.7671324610710144,-2.19760799407959, 0.4927051365375519
95,137884520,0.18770859,-0.7487702,-0.09960328,-0.6278439,9.67522144317627,-1.5307823419570923,-0.891611635684967,0.9937790632247925,-2.292733669281006, 0.4843553602695465
96,137901187,0.18776712,-0.7488262,-0.09961421,-0.62775797,9.676229476928711,-1.5566861629486084,-0.8675880432128906,1.2647486925125122,-2.341449022293091, 0.33192139863967896
97,137917854,0.18784352,-0.7488732,-0.099637896,-0.62767506,9.682394981384277,-1.5258461236953735,-0.896324872970581,1.453283667564392,-2.316309928894043, 0.32486507296562195
98,137934521,0.1878802,-0.74893403,-0.099608816,-0.6275961,9.686803817749023,-1.5420968532562256,-0.8691833019256592,1.4370582103729248,-2.403790235519409, 0.3649105429649353
99,137951188,0.18795036,-0.7489848,-0.09966281,-0.6275061,9.6937255859375,-1.500747799873352,-0.8598237037658691,1.5748158693313599,-2.4562320709228516, 0.1474459171295166
100,137967855,0.18799421,-0.74903274,-0.099662215,-0.62743574,9.703169822692871,-1.5150913000106812,-0.8590390682220459,1.3968333005905151,-2.3448684215545654, 0.259744793176651
101,137984522,0.18803172,-0.7490771,-0.099634744,-0.627376,9.712733268737793,-1.5202139616012573,-0.8699103593826294,1.400803565979004,-2.2908897399902344, 0.3327922224998474
102,138001189,0.18808472,-0.7491115,-0.099616714,-0.6273218,9.704754829406738,-1.5025994777679443,-0.8554384708404541,1.447469711303711,-2.2290091514587402, 0.3500423729419708
103,138017856,0.18816088,-0.74912006,-0.09963067,-0.6272865,9.712677955627441,-1.4671905040740967,-0.8245429992675781,1.6200735569000244,-2.0511670112609863, 0.26035943627357483
104,138034523,0.18814114,-0.7491882,-0.099631384,-0.62721103,9.691679000854492,-1.4679934978485107,-0.8046271800994873,0.9085017442703247,-2.5711309909820557, 0.02905120700597763
105,138051190,0.18804888,-0.74929506,-0.0996,-0.6271161,9.681514739990234,-1.512231707572937,-0.825464129447937,0.6584064364433289,-2.9200780391693115, -0.10692021250724792
106,138067857,0.18803011,-0.7493776,-0.09966285,-0.6270132,9.72104263305664,-1.5408598184585571,-0.8769538402557373,1.3819395303726196,-2.936201333999634, -0.26669222116470337
107,138084524,0.1880357,-0.74944544,-0.099732175,-0.6269194,9.705527305603027,-1.482097864151001,-0.8707150220870972,1.431807518005371,-2.8194844722747803, -0.20061147212982178
108,138101191,0.18795545,-0.7495179,-0.09968727,-0.6268637,9.710423469543457,-1.476883888244629,-0.8583582043647766,0.9391471743583679,-2.6516571044921875, -0.09499751031398773
109,138117858,0.18790415,-0.749596,-0.09963681,-0.6267937,9.722743034362793,-1.4572495222091675,-0.8705081939697266,0.5349148511886597,-2.6600325107574463, 0.1635434925556183
110,138134525,0.18776067,-0.74967957,-0.09945689,-0.6267654,9.727655410766602,-1.4679325819015503,-0.8648916482925415,-0.23917140066623688,-2.4333345890045166, 0.34365200996398926
111,138151192,0.18767501,-0.74975854,-0.09928225,-0.6267244,9.695049285888672,-1.506690263748169,-0.8758212327957153,-0.029300931841135025,-2.449201822280884, 0.6018919944763184
112,138167859,0.18764001,-0.7498338,-0.09914418,-0.62666655,9.699650764465332,-1.5206876993179321,-0.8581556081771851,0.36658817529678345,-2.5478105545043945, 0.6575356721878052
113,138184526,0.18764867,-0.7498892,-0.09904709,-0.62661314,9.69037914276123,-1.5266081094741821,-0.8534740805625916,0.8740526437759399,-2.498121976852417, 0.602788507938385
114,138201193,0.18770547,-0.74993145,-0.09900204,-0.6265525,9.692992210388184,-1.5122956037521362,-0.854047417640686,0.9110758304595947,-2.4625205993652344, 0.6104851365089417
115,138217860,0.18769774,-0.7499812,-0.0989258,-0.6265074,9.709857940673828,-1.5078848600387573,-0.8655452132225037,0.5482590198516846,-2.461751699447632, 0.4606636166572571
116,138234527,0.18765414,-0.7500385,-0.09882723,-0.6264676,9.678040504455566,-1.5245873928070068,-0.8195416927337646,0.4360754191875458,-2.514296293258667, 0.39375039935112
117,138251194,0.18749118,-0.7501087,-0.09864449,-0.6264609,9.692174911499023,-1.5169459581375122,-0.8521842360496521,-0.3132561445236206,-2.440685272216797, 0.2401382476091385
118,138267861,0.1873928,-0.75017244,-0.09848644,-0.626439,9.69753360748291,-1.528099536895752,-0.8618144392967224,-0.07467382401227951,-2.4669387340545654, 0.4394947290420532
119,138284528,0.18732765,-0.75021446,-0.09835032,-0.62642956,9.704658508300781,-1.5532174110412598,-0.8498917818069458,0.33908015489578247,-2.3580076694488525, 0.419606477022171
120,138301195,0.18734607,-0.7502458,-0.09829168,-0.6263957,9.686722755432129,-1.5530247688293457,-0.8593106865882874,0.9191564917564392,-2.469691514968872, 0.43501245975494385
121,138317862,0.1873294,-0.7502726,-0.098265395,-0.6263727,9.679487228393555,-1.5497825145721436,-0.8191857933998108,1.0092748403549194,-2.503667116165161, 0.07826600968837738
122,138334529,0.18722825,-0.7503121,-0.098226495,-0.6263619,9.663520812988281,-1.5541547536849976,-0.8506870269775391,0.6520545482635498,-2.5863704681396484, -0.252041757106781
123,138351196,0.18710886,-0.75036734,-0.09823621,-0.6263298,9.666558265686035,-1.5650049448013306,-0.8404598832130432,0.4735596477985382,-2.814887285232544, -0.5017015933990479
124,138367863,0.18699603,-0.75043625,-0.09825855,-0.62627727,9.656414985656738,-1.5423754453659058,-0.8404608964920044,0.647777259349823,-3.0290095806121826, -0.5196048617362976
125,138384530,0.18689474,-0.7505184,-0.09827563,-0.62620634,9.666696548461914,-1.5154833793640137,-0.8206519484519958,0.9142516851425171,-3.226956605911255, -0.44608354568481445
126,138401197,0.18685998,-0.7505996,-0.09835931,-0.62610614,9.696578025817871,-1.4800565242767334,-0.8533555269241333,1.2126524448394775,-3.382143974304199, -0.4122619926929474
127,138417864,0.1868559,-0.75065714,-0.09845287,-0.62602377,9.721624374389648,-1.4608433246612549,-0.8424713611602783,1.5026140213012695,-3.2141635417938232, -0.37724947929382324
128,138434531,0.18684472,-0.75071275,-0.09852586,-0.625949,9.719966888427734,-1.4441496133804321,-0.8405924439430237,1.2374584674835205,-3.146904468536377, -0.2860938608646393
129,138451198,0.18686162,-0.75075775,-0.09857099,-0.62588274,9.720162391662598,-1.471692442893982,-0.8236030340194702,1.3611931800842285,-3.040752410888672, -0.04729384556412697
130,138467865,0.18686998,-0.7507971,-0.09854812,-0.62583673,9.69172191619873,-1.4923635721206665,-0.8402956128120422,1.2193119525909424,-2.8877809047698975, 0.2106836885213852
131,138484532,0.18691395,-0.75082994,-0.098489866,-0.6257933,9.736620903015137,-1.4554404020309448,-0.8560305833816528,1.094616413116455,-2.7742910385131836, 0.5666746497154236
132,138501199,0.18693952,-0.7508516,-0.098334424,-0.6257844,9.73839282989502,-1.458700180053711,-0.8363752365112305,0.8802381157875061,-2.5080466270446777, 0.8960155248641968
133,138517866,0.18699418,-0.7508665,-0.09815128,-0.6257789,9.707500457763672,-1.4895009994506836,-0.8361127376556396,0.5624229311943054,-2.3733112812042236, 1.214406967163086
134,138534533,0.18704522,-0.75088346,-0.09792046,-0.6257794,9.6846923828125,-1.5205621719360352,-0.8592305183410645,0.448868989944458,-2.335660457611084, 1.423675537109375
135,138551200,0.18710023,-0.75088847,-0.09770574,-0.6257905,9.712675094604492,-1.463302493095398,-0.8232652544975281,0.5461716651916504,-2.2684526443481445, 1.3366947174072266
136,138567867,0.18711793,-0.75090545,-0.097429,-0.6258079,9.695021629333496,-1.4743924140930176,-0.8040127754211426,0.34395936131477356,-2.303055763244629, 1.4595718383789062
137,138584534,0.18714374,-0.7509277,-0.09715482,-0.6258161,9.699165344238281,-1.5020549297332764,-0.8306514024734497,0.3366597294807434,-2.3859126567840576, 1.5095165967941284
138,138601201,0.1871738,-0.75093377,-0.09692679,-0.62583536,9.697410583496094,-1.5019140243530273,-0.8299462199211121,0.343050092458725,-2.302043914794922, 1.302066445350647
139,138617868,0.18716326,-0.75094825,-0.096671306,-0.62586063,9.696069717407227,-1.5295823812484741,-0.8040534853935242,0.06434550136327744,-2.3327789306640625, 1.2603431940078735
140,138634535,0.18716577,-0.7509692,-0.09641444,-0.6258743,9.696651458740234,-1.5434521436691284,-0.8170432448387146,0.06592068821191788,-2.425023078918457, 1.3527923822402954
141,138651202,0.18717,-0.7509925,-0.09617183,-0.62588257,9.689749717712402,-1.5720422267913818,-0.8164432048797607,0.15986809134483337,-2.5076241493225098, 1.2918598651885986
142,138667869,0.187195,-0.751016,-0.095939785,-0.62588245,9.692926406860352,-1.548964023590088,-0.8078761100769043,0.21663863956928253,-2.5576205253601074, 1.3518191576004028
143,138684536,0.18721354,-0.75103915,-0.0957251,-0.62588197,9.716551780700684,-1.5334371328353882,-0.7998703718185425,0.18694068491458893,-2.596935510635376, 1.2458336353302002
144,138701203,0.18719219,-0.7510803,-0.09548198,-0.62587607,9.701976776123047,-1.5199841260910034,-0.7870314717292786,0.06867405027151108,-2.7547738552093506, 1.2068383693695068
145,138717870,0.18711884,-0.7511455,-0.095253006,-0.6258545,9.717992782592773,-1.4947035312652588,-0.7980176210403442,-0.3979060649871826,-2.9764902591705322, 0.9852244853973389
146,138734537,0.18702714,-0.751206,-0.09494038,-0.6258567,9.70663833618164,-1.5409364700317383,-0.8193219900131226,-0.4284364581108093,-2.833456516265869, 1.2432597875595093
147,138751204,0.1869869,-0.75124675,-0.09466755,-0.62586117,9.684090614318848,-1.5346285104751587,-0.821844220161438,-0.2617361843585968,-2.727470874786377, 1.2893112897872925
148,138767871,0.18699433,-0.7512877,-0.09440189,-0.62584996,9.705156326293945,-1.5634803771972656,-0.8183056712150574,-0.10010723024606705,-2.7877883911132812, 1.4986821413040161
149,138784538,0.18704368,-0.75132054,-0.09412105,-0.6258381,9.688185691833496,-1.5618616342544556,-0.8067280650138855,0.0668555423617363,-2.732900381088257, 1.7529138326644897
150,138801205,0.1871184,-0.75134504,-0.09384443,-0.6258279,9.69480037689209,-1.551507830619812,-0.8280618190765381,0.2215050309896469,-2.699002265930176, 1.8340675830841064
151,138817872,0.18720374,-0.7513728,-0.093578786,-0.62580884,9.69664192199707,-1.5657708644866943,-0.8089670538902283,0.33412405848503113,-2.78873610496521, 1.837486982345581
152,138834539,0.18732598,-0.75140196,-0.09332774,-0.62577486,9.6959867477417,-1.5983936786651611,-0.809851348400116,0.4164048433303833,-2.857736825942993, 1.9695459604263306
153,138851206,0.1874543,-0.751433,-0.0931117,-0.6257312,9.684654235839844,-1.605466604232788,-0.8274227380752563,0.5640621185302734,-2.9722259044647217, 1.8337732553482056
154,138867873,0.18754889,-0.7514637,-0.0928489,-0.6257051,9.692745208740234,-1.60256028175354,-0.8083208799362183,0.6154924035072327,-2.9367778301239014, 1.8413803577423096
155,138884540,0.18765488,-0.75150365,-0.09260056,-0.62566197,9.675562858581543,-1.580202579498291,-0.7838273644447327,0.6257758736610413,-3.077826976776123, 1.860039234161377
156,138901207,0.1877385,-0.7515678,-0.09232203,-0.62560135,9.680046081542969,-1.5703614950180054,-0.7659901976585388,-0.03834220767021179,-3.201382637023926, 2.019670009613037
157,138917874,0.18748039,-0.75173193,-0.09173329,-0.62556803,9.701987266540527,-1.6109451055526733,-0.7520900368690491,-2.9974801540374756,-3.380812168121338, 2.1389870643615723
158,138934541,0.18714562,-0.75191253,-0.09101892,-0.6255556,9.71195125579834,-1.5922091007232666,-0.8024657964706421,-4.628291606903076,-3.139925003051758, 2.5398638248443604
159,138951208,0.18659735,-0.75211996,-0.09003212,-0.62561274,9.69253158569336,-1.6278716325759888,-0.815714418888092,-6.401049613952637,-2.8006980419158936, 2.867668867111206
160,138967875,0.18622665,-0.7522963,-0.089187056,-0.6256323,9.656783103942871,-1.623336672782898,-0.8386325240135193,-5.150534629821777,-2.893902063369751, 2.975818157196045
161,138984542,0.1859612,-0.7524719,-0.08842373,-0.6256083,9.664056777954102,-1.633621096611023,-0.8298777341842651,-4.004482269287109,-3.212806224822998, 3.0246617794036865
162,139001209,0.18368025,-0.75315726,-0.08559132,-0.62585145,9.792881965637207,-1.7920382022857666,-0.39633145928382874,-24.400941848754883,-2.5781803131103516, 5.058897495269775
163,139017876,0.18066944,-0.75418866,-0.081909075,-0.6259785,9.496766090393066,-1.6549286842346191,-0.9876472353935242,-32.72419357299805,-3.982509136199951, 6.7232770919799805
164,139034543,0.17895739,-0.75496995,-0.079708405,-0.62581235,9.612950325012207,-1.5875487327575684,-0.9042742848396301,-19.386383056640625,-5.499631404876709, 4.876748561859131
165,139051210,0.17794943,-0.75563616,-0.07839381,-0.6254618,9.602924346923828,-1.6699981689453125,-0.8871257901191711,-11.746439933776855,-6.6690897941589355, 3.4772911071777344
166,139067877,0.1774471,-0.7561901,-0.077722155,-0.6250188,9.622764587402344,-1.6859346628189087,-0.9108352661132812,-6.171919822692871,-7.196710109710693, 2.3608450889587402
167,139084544,0.1772101,-0.7566779,-0.07745655,-0.6245284,9.607345581054688,-1.757668137550354,-0.8899182677268982,-2.9131503105163574,-7.533246994018555, 1.405324101448059
168,139101211,0.17712642,-0.75714916,-0.077618256,-0.6239606,9.591649055480957,-1.9487736225128174,-0.8398287892341614,-0.3049065172672272,-8.306022644042969, -0.06460805982351303
169,139117878,0.17706455,-0.7577148,-0.078224115,-0.62321556,9.484991073608398,-2.0566134452819824,-0.8295311331748962,1.3812742233276367,-10.130236625671387, -1.9795807600021362
170,139134545,0.17711875,-0.7583224,-0.07934518,-0.62231857,9.435534477233887,-1.9225051403045654,-0.8383448719978333,4.19846773147583,-11.683841705322266, -3.9738125801086426
171,139151212,0.17624667,-0.7593395,-0.07987693,-0.6212571,9.423837661743164,-1.8935234546661377,-0.6071451306343079,-3.960289716720581,-14.034463882446289, -4.386012077331543
172,139167879,0.17424971,-0.7608754,-0.07968891,-0.61996424,9.412128448486328,-1.6414903402328491,-0.8866999745368958,-12.923678398132324,-17.326507568359375, -4.9664387702941895
173,139184546,0.17285895,-0.7623352,-0.08020176,-0.6184923,9.6337308883667,-1.4840104579925537,-0.9686489105224609,-7.417320728302002,-18.32610511779785, -5.7275590896606445
174,139201213,0.17186078,-0.7637278,-0.08109191,-0.61693454,9.685881614685059,-1.433976411819458,-0.9980882406234741,-3.6206040382385254,-18.74637222290039, -5.955114841461182
175,139217880,0.1712159,-0.76502234,-0.08217738,-0.61536396,9.737837791442871,-1.309053897857666,-1.1726081371307373,-1.1704378128051758,-18.3963680267334, -5.435879707336426
176,139234547,0.17039429,-0.76632816,-0.08287281,-0.61387223,9.777909278869629,-1.2008119821548462,-1.2985358238220215,-3.6324868202209473,-17.71627426147461, -4.227303981781006
177,139251214,0.16933784,-0.7676923,-0.08291079,-0.6124532,9.631071090698242,-1.3331557512283325,-1.308823585510254,-8.248656272888184,-16.872974395751953, -1.6780437231063843
178,139267881,0.16848722,-0.7689432,-0.08279485,-0.61113304,9.763799667358398,-1.1715712547302246,-1.4756419658660889,-7.507960796356201,-15.625260353088379, -0.20515792071819305
179,139284548,0.16789731,-0.77011573,-0.082497574,-0.60985774,9.68134593963623,-1.3325304985046387,-1.3789438009262085,-7.203437805175781,-14.64394474029541, 1.8582863807678223
180,139301215,0.16737461,-0.7712424,-0.08208074,-0.6086326,9.71867561340332,-1.334574818611145,-1.4769660234451294,-7.1618428230285645,-14.04637622833252, 2.673705816268921
181,139317882,0.1669364,-0.7723145,-0.081553064,-0.6074636,9.719574928283691,-1.5514936447143555,-1.3606674671173096,-7.362338066101074,-13.316349029541016, 3.583200454711914
182,139334549,0.1663899,-0.773309,-0.080887735,-0.6064362,9.57952880859375,-2.0247857570648193,-1.3784929513931274,-8.477669715881348,-12.163006782531738, 3.6553900241851807
183,139351216,0.1660519,-0.7739738,-0.08047576,-0.60573494,9.5616455078125,-2.1778900623321533,-1.6899248361587524,-6.1415815353393555,-9.238901138305664, 2.6017708778381348
184,139367883,0.16637614,-0.7744611,-0.0806012,-0.6050062,9.55258560180664,-1.9240946769714355,-1.7480981349945068,-0.10611343383789062,-8.899967193603516, 2.3892109394073486
185,139384550,0.16717075,-0.77485013,-0.081111215,-0.60422033,9.731839179992676,-1.299506425857544,-1.6189517974853516,4.183253288269043,-8.977446556091309, 2.286081314086914
186,139401217,0.16822162,-0.7752362,-0.0816868,-0.60335547,9.674854278564453,-1.3784061670303345,-1.5228708982467651,5.892248630523682,-9.325088500976562, 3.1103756427764893
187,139417884,0.16902238,-0.7756957,-0.081947155,-0.60250515,9.695950508117676,-1.5096355676651,-1.5531600713729858,3.1988160610198975,-9.34402847290039, 3.788715362548828
188,139434551,0.16985483,-0.7761085,-0.08224052,-0.60169894,9.614856719970703,-1.7798434495925903,-1.638211727142334,3.3889646530151367,-8.919663429260254, 3.711530923843384
189,139451218,0.17120457,-0.7763841,-0.0829581,-0.6008618,9.575796127319336,-1.8253228664398193,-1.6592122316360474,8.086246490478516,-8.723971366882324, 3.543550729751587
190,139467885,0.17294799,-0.77650243,-0.08410049,-0.6000502,9.627708435058594,-1.5782819986343384,-1.6490633487701416,12.065851211547852,-8.206981658935547, 2.7914211750030518
191,139484552,0.17474507,-0.7765565,-0.0854982,-0.59926146,9.697197914123535,-1.3378164768218994,-1.5282918214797974,13.530680656433105,-8.106156349182129, 1.5856001377105713
192,139501219,0.17612147,-0.77670467,-0.08670146,-0.5984932,9.69897174835205,-1.171521544456482,-1.4780586957931519,10.289671897888184,-8.396385192871094, 0.9653239846229553
193,139517886,0.17675656,-0.77704924,-0.08728205,-0.5977737,9.635679244995117,-1.2431448698043823,-1.432352066040039,3.4352595806121826,-8.635427474975586, 1.3492069244384766
194,139534553,0.1763461,-0.7776851,-0.08716275,-0.5970853,9.648157119750977,-1.348065972328186,-1.4756745100021362,-5.4326863288879395,-9.453868865966797, 0.9630827307701111
195,139551220,0.17546457,-0.77848065,-0.08676176,-0.5963661,9.515865325927734,-1.7347484827041626,-1.5908530950546265,-9.217657089233398,-10.245084762573242, 0.6727755069732666
196,139567887,0.17461972,-0.7792902,-0.08660581,-0.5955789,9.407038688659668,-1.7828493118286133,-1.586371898651123,-8.113020896911621,-10.932161331176758, -0.3733437657356262
197,139584554,0.17372867,-0.78012276,-0.08656247,-0.5947552,9.414090156555176,-1.8763437271118164,-1.6655439138412476,-7.812314033508301,-11.414063453674316, -1.137217402458191
198,139601221,0.17306848,-0.78106165,-0.086854994,-0.59367186,9.338821411132812,-2.161383628845215,-1.7019152641296387,-5.255383491516113,-13.50110149383545, -1.611795425415039
199,139617888,0.17280279,-0.7819178,-0.08766868,-0.5925017,9.409455299377441,-1.853299856185913,-1.7331501245498657,-0.7084734439849854,-14.050267219543457, -2.807281970977783
200,139634555,0.17285718,-0.78275007,-0.0888906,-0.59120345,9.391830444335938,-1.8910950422286987,-1.6260755062103271,2.7624406814575195,-14.939425468444824, -3.5599372386932373
201,139651222,0.17313594,-0.78353864,-0.09050246,-0.5898309,9.450057983398438,-1.7213385105133057,-1.7575432062149048,5.490835666656494,-15.476640701293945, -4.649080753326416
202,139667889,0.17363723,-0.78428507,-0.09261085,-0.58836234,9.493831634521484,-1.5803478956222534,-1.711402416229248,8.76437759399414,-16.278005599975586, -6.314051151275635
203,139684556,0.17414223,-0.78506935,-0.095077485,-0.5867717,9.4671049118042,-1.42357337474823,-1.7230979204177856,10.366111755371094,-17.547378540039062, -8.070229530334473
204,139701223,0.1741859,-0.78600883,-0.09727279,-0.58513886,9.443517684936523,-1.515165090560913,-1.825874924659729,8.690384864807129,-18.74325180053711, -8.83279800415039
205,139717890,0.17414428,-0.7870531,-0.09954693,-0.58336246,9.395829200744629,-1.704249620437622,-1.9704015254974365,8.522237777709961,-20.102407455444336, -9.351009368896484
206,139734557,0.1744719,-0.78801745,-0.10213512,-0.5815125,9.51502513885498,-1.575530767440796,-2.1319079399108887,11.929264068603516,-20.307985305786133, -9.537076950073242
207,139751224,0.17511009,-0.78894943,-0.105222315,-0.57950294,9.527886390686035,-1.4711005687713623,-1.950331687927246,15.763936996459961,-21.423072814941406, -10.822881698608398
208,139767891,0.17600922,-0.7899994,-0.10871362,-0.5771509,9.429232597351074,-1.615079402923584,-1.9627444744110107,18.901187896728516,-24.059919357299805, -11.463366508483887
209,139784558,0.17694071,-0.7910732,-0.11255984,-0.57465255,9.452554702758789,-1.5045671463012695,-2.0479958057403564,20.5704345703125,-25.364225387573242, -13.06161117553711
210,139801225,0.1780178,-0.79229206,-0.11668587,-0.57181066,9.412610054016113,-1.704473614692688,-2.0971810817718506,22.564363479614258,-28.0439510345459, -13.465639114379883
211,139817892,0.1790175,-0.79364425,-0.12112142,-0.5686927,9.516739845275879,-1.535109519958496,-2.1372857093811035,23.421855926513672,-30.52129554748535, -15.009272575378418
212,139834559,0.17998841,-0.79508233,-0.12591204,-0.5653267,9.52031135559082,-1.677168369293213,-2.2111778259277344,24.761011123657227,-32.68405532836914, -16.67157554626465
213,139851226,0.18052502,-0.79655224,-0.13093865,-0.5619346,9.56507396697998,-1.5251284837722778,-2.265449047088623,23.2933349609375,-33.628814697265625, -19.58749008178711
214,139867893,0.18020515,-0.79822534,-0.135846,-0.5584875,9.471842765808105,-1.7217549085617065,-2.246656656265259,17.949016571044922,-35.3516731262207, -21.985383987426758
215,139884560,0.17930497,-0.8000437,-0.14066291,-0.5549719,9.70644474029541,-1.514467477798462,-2.445408582687378,14.307188034057617,-36.73228073120117, -23.504552841186523
216,139901227,0.17801465,-0.8020275,-0.14540224,-0.55129015,9.776346206665039,-1.496799349784851,-2.6058642864227295,11.831989288330078,-38.57332229614258, -24.201934814453125
217,139917894,0.17662328,-0.804131,-0.15021673,-0.5473689,9.901278495788574,-1.2403550148010254,-2.730055570602417,11.663257598876953,-40.55352020263672, -24.589128494262695
218,139934561,0.1745699,-0.80649763,-0.15492605,-0.54321694,9.948356628417969,-0.763210117816925,-3.185347318649292,7.540262699127197,-43.389041900634766, -25.94038200378418
219,139951228,0.1719685,-0.8089082,-0.15940844,-0.5391505,10.618537902832031,-1.528564453125,-1.963146686553955,3.533912420272827,-43.38856506347656, -26.761213302612305
220,139967895,0.16820061,-0.8115206,-0.16286772,-0.5353663,11.221049308776855,-1.9322068691253662,-2.232099771499634,-7.2913336753845215,-42.70895004272461, -25.524089813232422
221,139984562,0.1632077,-0.8143386,-0.16529873,-0.5318762,11.523273468017578,-1.6690082550048828,-2.285895347595215,-18.483400344848633,-42.08386993408203, -24.4475154876709
222,140001229,0.15690908,-0.81742585,-0.16667178,-0.52859724,11.540026664733887,-0.6884563565254211,-1.8636276721954346,-30.20761489868164,-42.267765045166016, -23.26996612548828
223,140017896,0.14954202,-0.8205215,-0.16786037,-0.52555174,12.296844482421875,-0.09541527181863785,-1.5623046159744263,-37.147090911865234,-42.12131118774414, -26.36533546447754
224,140034563,0.1415003,-0.82369477,-0.16977525,-0.52218914,12.428226470947266,-0.4221309721469879,-1.08861243724823,-38.017704010009766,-45.858245849609375, -32.47212600708008
225,140051230,0.1327908,-0.8269802,-0.17247109,-0.518386,12.605633735656738,-0.7242261171340942,-0.8099590539932251,-38.56956100463867,-50.466461181640625, -38.7440071105957
226,140067897,0.12334843,-0.8303175,-0.17537428,-0.5143948,12.124445915222168,-0.7855503559112549,-0.9154500365257263,-41.803016662597656,-52.9693603515625, -42.33812713623047
227,140084564,0.11260773,-0.83376807,-0.17714792,-0.51065564,11.765335083007812,-0.6918106079101562,-0.6529300212860107,-53.59188461303711,-52.7187385559082, -40.615516662597656
228,140101231,0.099918656,-0.83741677,-0.17729114,-0.5072649,11.259580612182617,-0.6380739808082581,-0.01985841989517212,-71.04631805419922,-52.71480178833008, -38.21620559692383
229,140117898,0.08556699,-0.8410042,-0.17665225,-0.504167,11.007927894592285,-0.13961587846279144,0.7543225884437561,-83.64517974853516,-52.50925827026367, -39.88948059082031
230,140134565,0.06953585,-0.84440297,-0.17542553,-0.5013725,10.623922348022461,-0.09374232590198517,1.396894931793213,-95.62220764160156,-52.02666091918945, -42.826839447021484
231,140151232,0.052187838,-0.8476361,-0.17359468,-0.49865296,10.478547096252441,-0.5920827984809875,2.4021904468536377,-105.32685852050781,-52.565677642822266, -44.22682189941406
232,140167899,0.034056317,-0.85025734,-0.17120548,-0.49657986,10.803485870361328,-0.794831395149231,3.4812464714050293,-112.3296127319336,-47.71147537231445, -44.80065155029297
233,140184566,0.014939178,-0.8521167,-0.16763046,-0.49555427,10.115482330322266,-0.41205739974975586,3.072056531906128,-123.16324615478516,-40.186763763427734, -42.59425354003906
234,140201233,-0.005196551,-0.85331434,-0.16345876,-0.49508488,9.602851867675781,1.188454508781433,-0.4660142660140991,-131.6946258544922,-36.05704879760742, -43.61890411376953
235,140217900,-0.023690006,-0.85438377,-0.16256355,-0.4929914,11.408666610717773,1.4293335676193237,-5.51814603805542,-109.01689147949219,-43.297523498535156, -57.61933135986328
236,140234567,-0.035784002,-0.85658723,-0.16619925,-0.4871916,13.108393669128418,-2.228647232055664,-6.13974666595459,-51.70012664794922,-60.9858512878418, -62.00837326049805
237,140251234,-0.0423632,-0.85980135,-0.1730445,-0.47854233,12.462599754333496,-0.8978968262672424,-5.479094505310059,-5.031512260437012,-74.06684875488281, -62.213993072509766
238,140267901,-0.048750184,-0.8632432,-0.17814188,-0.46978748,11.075129508972168,-0.5117892026901245,-4.629167079925537,-9.502415657043457,-75.75684356689453, -51.15903091430664
239,140284568,-0.05730325,-0.8663582,-0.18008567,-0.4622869,10.94115924835205,0.8168171644210815,-4.878489017486572,-34.240962982177734,-71.00446319580078, -39.561607360839844
240,140301235,-0.06696328,-0.86773354,-0.18010738,-0.45838404,11.105321884155273,0.337401419878006,-1.8516855239868164,-52.11281204223633,-46.19498825073242, -32.493255615234375
241,140317902,-0.07428177,-0.86702085,-0.1777935,-0.45950702,8.297657012939453,-4.039976596832275,1.6473219394683838,-52.69939422607422,-7.939072132110596, -11.611445426940918
242,140334569,-0.07588796,-0.86507726,-0.17449817,-0.46414763,5.088958740234375,-4.057089328765869,1.647783637046814,-26.760971069335938,23.213577270507812, 12.312758445739746
243,140351236,-0.072783895,-0.8619059,-0.17087312,-0.4718294,5.457853317260742,-2.0345470905303955,0.810701310634613,-4.1747026443481445,50.583377838134766, 29.230531692504883
244,140367903,-0.068974674,-0.856963,-0.16462974,-0.48348123,6.534000396728516,-1.2422478199005127,0.23891150951385498,-14.091717720031738,79.27967071533203, 46.829376220703125
245,140384570,-0.06489589,-0.8506673,-0.15563214,-0.49792817,7.043878555297852,-1.7431557178497314,-0.7640835046768188,-25.50779151916504,99.16053009033203, 63.63885498046875
246,140401237,-0.05791729,-0.8433665,-0.14569256,-0.51395744,8.172189712524414,-1.5002297163009644,-1.3448560237884521,-13.98119068145752,114.48981475830078, 78.57328796386719
247,140417904,-0.0483129,-0.83491254,-0.13461477,-0.53147507,8.473658561706543,-0.7284117341041565,-1.4965237379074097,-4.7981767654418945,129.32652282714844, 93.77236938476562
248,140434571,-0.03717406,-0.82484514,-0.122208074,-0.5507394,8.411649703979492,-0.05499406158924103,-1.3424080610275269,-3.0561509132385254,146.19508361816406, 106.0174331665039
249,140451238,-0.025694642,-0.81309295,-0.10839437,-0.57137585,8.467511177062988,0.038736097514629364,-1.2023731470108032,-8.073945045471191,160.31463623046875, 114.20630645751953
250,140467905,-0.013058911,-0.7997848,-0.0941844,-0.59270835,9.170681953430176,-0.20402637124061584,-1.5993529558181763,-3.9819281101226807,171.24728393554688, 119.98037719726562
251,140484572,0.0016545802,-0.785121,-0.08022576,-0.6141224,9.905342102050781,-0.31062689423561096,-2.082862138748169,8.279739379882812,178.81796264648438, 126.30320739746094
252,140501239,0.017907497,-0.76947707,-0.065646045,-0.63503945,10.48687744140625,-1.1190558671951294,-2.403207540512085,14.24384593963623,181.43719482421875, 135.7811279296875
253,140517906,0.03734283,-0.7529166,-0.051650554,-0.65502256,11.048027038574219,-1.9486793279647827,-2.5483407974243164,43.380123138427734,182.35482788085938, 145.1630859375
254,140534573,0.060292754,-0.7355802,-0.03908494,-0.6736164,11.834105491638184,-2.3173694610595703,-3.0299322605133057,59.52717590332031,179.7701873779297, 155.1667022705078
255,140551240,0.084652305,-0.7173264,-0.026658745,-0.69106156,12.275856971740723,-1.2137738466262817,-4.295775413513184,67.99298095703125,178.92601013183594, 161.43743896484375
256,140567907,0.11005702,-0.6974722,-0.014749869,-0.70795643,14.693917274475098,-0.8127142190933228,-5.023541450500488,76.66526794433594,184.1397705078125, 164.14405822753906
257,140584574,0.13642609,-0.6770794,-0.0030938138,-0.72314733,16.00389289855957,-1.4593361616134644,-5.123719692230225,83.13996887207031,178.9315948486328, 169.13978576660156
258,140601241,0.16380714,-0.6570921,0.00723514,-0.7357616,14.596327781677246,-1.8298494815826416,-6.150006294250488,94.16529846191406,164.10455322265625, 170.67254638671875
259,140617908,0.19303982,-0.6376736,0.013134678,-0.74561095,13.039351463317871,-1.4465500116348267,-7.657812595367432,124.22671508789062,144.0471954345703, 163.3422393798828
260,140634575,0.2232363,-0.6192389,0.014055893,-0.7526694,12.77830696105957,0.39476871490478516,-8.398682594299316,152.48953247070312,120.44992065429688, 150.28524780273438
261,140651242,0.25037983,-0.60402346,0.013371837,-0.7564964,11.419140815734863,1.668372392654419,-8.720964431762695,142.6046905517578,88.20630645751953, 132.51963806152344
262,140667909,0.27044088,-0.5944676,0.014720475,-0.7571351,9.212092399597168,4.818800449371338,-9.512508392333984,92.62629699707031,49.98374938964844, 109.28266906738281
263,140684576,0.27986377,-0.5927797,0.019228367,-0.75492966,8.440632820129395,6.990204334259033,-10.799846649169922,17.819063186645508,4.626363277435303, 71.5108413696289
264,140701243,0.2815209,-0.59736603,0.021763012,-0.7506174,8.63083267211914,6.049436092376709,-10.739267349243164,-15.903332710266113,-39.044795989990234, 26.590545654296875
265,140717910,0.2775802,-0.6064905,0.01786548,-0.7448486,8.727516174316406,6.292250156402588,-11.036835670471191,-14.663888931274414,-79.8542251586914, -26.419445037841797
266,140734577,0.267642,-0.6161478,0.012753771,-0.7406532,14.568340301513672,2.4863271713256836,4.786099910736084,-34.247283935546875,-77.43022918701172, -65.13021850585938
267,140751244,0.25774035,-0.62094134,0.009192307,-0.74021447,17.48792839050293,-10.518155097961426,22.871742248535156,-32.76481246948242,-33.96877670288086, -64.7693862915039
268,140767911,0.25436673,-0.6284266,0.0040041823,-0.7350929,6.789280414581299,4.912704944610596,3.105804204940796,-1.776188611984253,-71.27159118652344, -30.45940589904785
269,140784578,0.24818586,-0.6366287,-0.0021676489,-0.7301392,9.426017761230469,1.2136366367340088,-2.0255277156829834,-10.203411102294922,-75.84767150878906, -49.14047622680664
270,140801245,0.24337247,-0.6438547,-0.008118843,-0.72536564,10.3272066116333,0.9438838362693787,-0.5665004849433899,-3.644439458847046,-69.7191162109375, -41.61043167114258
271,140817912,0.2380356,-0.6519508,-0.0135591505,-0.7198023,14.469564437866211,-1.5278472900390625,-5.575185775756836,-9.913442611694336,-76.7115707397461, -40.57429122924805
272,140834579,0.23535055,-0.6608584,-0.02399219,-0.71225053,17.42644691467285,-5.277018070220947,-2.5842981338500977,25.575162887573242,-97.48368835449219, -46.50516891479492
273,140851246,0.23615073,-0.6684263,-0.038034413,-0.7042674,8.57066822052002,-3.073700428009033,0.09749199450016022,61.34805679321289,-98.10994720458984, -45.40428924560547
274,140867913,0.2363553,-0.67481166,-0.050830238,-0.69726735,7.242318630218506,-1.9627783298492432,0.08513763546943665,54.23966598510742,-86.00857543945312, -44.511043548583984
275,140884580,0.23285148,-0.68164665,-0.057431433,-0.6912596,9.328989028930664,-0.41685476899147034,0.042816661298274994,6.25724983215332,-74.80462646484375, -35.03327941894531
276,140901247,0.22616784,-0.68942773,-0.057765815,-0.685712,10.617574691772461,-0.7161693572998047,-0.33623287081718445,-40.12526321411133,-68.3853988647461, -21.14086151123047
277,140917914,0.21861935,-0.6971072,-0.055589825,-0.6805565,10.49714469909668,-1.1869546175003052,-0.4496338367462158,-56.05937576293945,-62.50111389160156, -13.9696626663208
278,140934581,0.2118088,-0.7041901,-0.05356473,-0.6755621,9.906108856201172,-2.509321689605713,-0.27373844385147095,-50.978946685791016,-58.89604568481445, -11.715938568115234
279,140951248,0.20731977,-0.71054745,-0.053447634,-0.67028666,9.423200607299805,-3.3717241287231445,-0.3464851975440979,-29.717634201049805,-58.82728576660156, -10.04936408996582
280,140967915,0.20535353,-0.7158349,-0.056003228,-0.66503686,9.340531349182129,-2.519650936126709,-0.26512235403060913,-3.560821771621704,-56.666526794433594, -11.938758850097656
281,140984582,0.20414087,-0.72033054,-0.060030233,-0.66018707,9.991439819335938,-0.7097508907318115,-0.011454008519649506,7.8372578620910645,-52.87778854370117, -16.623462677001953
282,141001249,0.20223512,-0.7246385,-0.06356568,-0.6557131,10.569657325744629,-0.7677385807037354,-0.7418466806411743,2.2801740169525146,-49.77674865722656, -17.938915252685547
283,141017916,0.20016137,-0.7286874,-0.066590674,-0.6515488,10.431607246398926,-1.1744707822799683,-0.8622468113899231,-0.6330360770225525,-46.43684768676758, -16.69634437561035
284,141034583,0.19727477,-0.73266286,-0.06840289,-0.6477724,9.696849822998047,-0.6989637613296509,-0.6113274097442627,-10.215330123901367,-42.875343322753906, -14.83154296875
285,141051250,0.19334064,-0.7366744,-0.06891869,-0.6443451,9.542512893676758,-1.1156772375106812,-0.6577750444412231,-21.480209350585938,-40.02201461791992, -13.422799110412598
286,141067917,0.18923774,-0.7405808,-0.06870811,-0.6410994,9.76276969909668,-1.7930368185043335,-1.0131551027297974,-25.500263214111328,-37.761474609375, -10.785910606384277
287,141084584,0.18546568,-0.74439585,-0.068565756,-0.63779014,9.796737670898438,-3.0697550773620605,-1.1929945945739746,-23.366622924804688,-37.62236022949219, -9.644225120544434
288,141101251,0.18341926,-0.74763376,-0.07014047,-0.6344143,9.779622077941895,-2.31215238571167,-1.4233453273773193,-6.241502285003662,-36.81303787231445, -11.071249961853027
289,141117918,0.18183407,-0.7507443,-0.07228372,-0.6309473,9.346755981445312,-1.9797879457473755,-1.1619749069213867,-1.187744140625,-37.2246208190918, -11.939846992492676
290,141134585,0.180332,-0.7539551,-0.07468165,-0.62725985,9.295860290527344,-1.6112871170043945,-1.0383543968200684,0.3287089169025421,-39.081199645996094, -12.577112197875977
291,141151252,0.17889704,-0.75711745,-0.077635854,-0.6234916,9.510132789611816,-1.3643105030059814,-1.058347225189209,3.175553560256958,-39.953712463378906, -15.101012229919434
292,141167919,0.17734441,-0.76029617,-0.081045985,-0.6196212,9.574124336242676,-1.5700984001159668,-1.280782699584961,4.550929069519043,-41.18534851074219, -17.847606658935547
293,141184586,0.17641261,-0.76342374,-0.085311316,-0.615455,9.739015579223633,-1.1447935104370117,-1.3973394632339478,11.665779113769531,-43.216949462890625, -19.34524154663086
294,141201253,0.17521453,-0.76670474,-0.0897755,-0.61106795,9.814653396606445,-0.9401633739471436,-1.2608976364135742,11.052666664123535,-45.4263916015625, -21.159038543701172
295,141217920,0.17341875,-0.77023405,-0.09401109,-0.6064878,9.675382614135742,-1.2333142757415771,-1.484439730644226,6.761312961578369,-47.58878707885742, -22.078325271606445
296,141234587,0.17149521,-0.77397865,-0.097936295,-0.6016272,9.557838439941406,-1.6328363418579102,-1.8460055589675903,4.715160369873047,-49.690555572509766, -20.49555778503418
297,141251254,0.16974722,-0.7777405,-0.10199395,-0.59657615,9.654180526733398,-1.4712026119232178,-1.933549404144287,6.303718090057373,-50.816978454589844, -20.243637084960938
298,141267921,0.1682001,-0.7815227,-0.10642192,-0.5912744,9.687615394592285,-1.381834864616394,-2.119192600250244,9.048644065856934,-52.53597640991211, -21.097326278686523
299,141284588,0.16696292,-0.78534895,-0.11111983,-0.58566445,9.566917419433594,-1.5464911460876465,-2.133060932159424,11.985003471374512,-54.4586296081543, -20.902515411376953
300,141301255,0.16609307,-0.7891563,-0.11622367,-0.5797737,9.591758728027344,-1.46584153175354,-2.4682772159576416,15.838104248046875,-56.08848571777344, -21.312349319458008
301,141317922,0.16512755,-0.79291844,-0.12153548,-0.57379633,9.762145042419434,-1.2911124229431152,-2.335118055343628,16.26815414428711,-56.6942138671875, -22.763582229614258
302,141334589,0.16354793,-0.7967322,-0.12689178,-0.5677749,10.14752197265625,-1.216242790222168,-2.521547317504883,13.073620796203613,-57.70611572265625, -25.33889389038086
303,141351256,0.16085143,-0.80071867,-0.13186884,-0.5617713,10.422402381896973,-1.0290404558181763,-2.6617417335510254,5.264904022216797,-58.83659744262695, -27.493133544921875
304,141367923,0.15709092,-0.80483454,-0.1360683,-0.55592203,10.79961109161377,-1.7883551120758057,-1.9349087476730347,-3.8799078464508057,-58.597129821777344, -27.375308990478516
305,141384590,0.15180244,-0.8092797,-0.13911617,-0.55015385,11.36691665649414,-1.587231993675232,-2.206041097640991,-18.071622848510742,-59.50708770751953, -26.3211727142334
306,141401257,0.14496183,-0.8139037,-0.14143719,-0.5445573,11.873276710510254,-1.0485925674438477,-1.9085729122161865,-31.45929527282715,-59.810306549072266, -27.549867630004883
307,141417924,0.13687281,-0.818685,-0.14377643,-0.53884035,11.929999351501465,-0.6267772316932678,-1.5676724910736084,-39.60750961303711,-62.24576187133789, -31.55443572998047
308,141434591,0.12821814,-0.823515,-0.14684391,-0.5327479,11.938994407653809,-0.2636081576347351,-1.425510287284851,-40.27049255371094,-65.82111358642578, -37.0717658996582
309,141451258,0.11920685,-0.8283393,-0.1507816,-0.5262212,12.33370590209961,-0.05705917254090309,-1.1331894397735596,-38.86025619506836,-69.46607208251953, -42.752105712890625
310,141467925,0.110053405,-0.83301365,-0.1560442,-0.519256,12.888435363769531,0.03621075302362442,-0.5675047636032104,-34.71439743041992,-72.74413299560547, -50.32143020629883
311,141484592,0.10016756,-0.83766705,-0.16196808,-0.51190525,13.18746566772461,-0.6500832438468933,0.07349996268749237,-31.337440490722656,-76.4106216430664, -58.5982780456543
312,141501259,0.0896132,-0.8422659,-0.16857731,-0.5041223,13.135285377502441,-0.512958288192749,1.0030198097229004,-32.255794525146484,-79.9741439819336, -64.66984558105469
313,141517926,0.07729156,-0.84671855,-0.17501935,-0.49644938,13.803393363952637,-0.8131051659584045,3.0542616844177246,-43.10366439819336,-80.83318328857422, -70.07606506347656
314,141534593,0.061516516,-0.85079366,-0.18043862,-0.489702,14.613343238830566,-2.0044054985046387,5.049895286560059,-67.6098403930664,-77.84700012207031, -76.87525939941406
315,141551260,0.042267628,-0.8545998,-0.18326089,-0.48403347,13.065011978149414,-3.379079580307007,5.748069763183594,-97.90098571777344,-73.94039154052734, -74.20718383789062
316,141567927,0.020074522,-0.8580299,-0.18175125,-0.479946,11.06259536743164,-2.8135414123535156,4.042816162109375,-131.5082244873047,-65.94598388671875, -59.54170227050781
317,141584594,-0.0028244623,-0.86095107,-0.17694673,-0.47691202,9.602132797241211,0.18032541871070862,-1.8445947170257568,-147.7974395751953,-58.547035217285156, -43.27252197265625
318,141601261,-0.023929916,-0.86380136,-0.17428859,-0.4721208,11.543784141540527,2.1870462894439697,-7.469027519226074,-128.00108337402344,-66.50502014160156, -50.251468658447266
319,141617928,-0.041934844,-0.866905,-0.17395781,-0.4652483,14.984704971313477,-0.8113631010055542,-5.62005615234375,-99.49119567871094,-75.56950378417969, -54.066619873046875
320,141634595,-0.058125436,-0.87057966,-0.17396805,-0.45656067,12.448325157165527,-1.748067855834961,-5.138665676116943,-85.2640151977539,-85.96431732177734, -50.18490982055664
321,141651262,-0.07284851,-0.874409,-0.17331779,-0.44728392,11.774877548217773,-0.22400543093681335,-4.277494430541992,-77.80835723876953,-88.49454498291016, -41.72582244873047
322,141667929,-0.08991483,-0.87677556,-0.17006417,-0.4407475,13.09611701965332,2.734435558319092,-3.3272347450256348,-103.91552734375,-71.6317138671875, -33.693763732910156
323,141684596,-0.10898327,-0.87616676,-0.16392954,-0.43997905,10.664916038513184,-2.4548637866973877,-0.3783324360847473,-133.29556274414062,-31.99237060546875, -22.33892822265625
324,141701263,-0.1224694,-0.87463623,-0.15627612,-0.44225654,5.810520172119141,-5.443698883056641,1.107972264289856,-108.39825439453125,-5.733295917510986, 4.872832775115967
325,141717930,-0.1263565,-0.87318057,-0.14861205,-0.44665897,4.22066068649292,-5.616216659545898,1.1621770858764648,-52.95599365234375,17.10306167602539, 35.92620086669922
326,141734597,-0.12139986,-0.8714655,-0.142735,-0.45325115,4.828807830810547,-3.4372899532318115,0.983376145362854,3.129929542541504,41.6169319152832, 53.941322326660156
327,141751264,-0.113006994,-0.8680902,-0.13715404,-0.4635059,5.46941614151001,-0.7095316648483276,0.2701162099838257,19.64372444152832,72.33230590820312, 64.27229309082031
328,141767931,-0.1048799,-0.8622875,-0.12991239,-0.47810382,6.465290069580078,0.9296493530273438,-0.5802727937698364,6.782284736633301,104.43006896972656, 74.41166687011719
329,141784598,-0.09705244,-0.85436296,-0.12037936,-0.4961387,6.839900970458984,-0.3667615056037903,-1.3014718294143677,-7.119091510772705,129.84988403320312, 87.59203338623047
330,141801265,-0.08664914,-0.84535235,-0.10882258,-0.5157801,7.439568996429443,-1.6229736804962158,-1.3805102109909058,-0.9481496810913086,143.7674102783203, 108.42594146728516
331,141817932,-0.07197296,-0.8354856,-0.09628632,-0.5362022,8.514978408813477,-1.2923343181610107,-0.7645661234855652,19.312143325805664,153.94760131835938, 129.07301330566406
332,141834599,-0.054483436,-0.8241708,-0.083934724,-0.5574308,9.736294746398926,0.178739532828331,-0.9021168947219849,34.89964294433594,165.8552703857422, 137.80662536621094
333,141851266,-0.0360039,-0.8108912,-0.07127343,-0.5797234,10.06685733795166,1.0362951755523682,-1.678207516670227,37.97454071044922,179.85108947753906, 142.6183624267578
334,141867933,-0.016358549,-0.7960856,-0.05873112,-0.60210526,10.240653991699219,0.7721536159515381,-2.3983209133148193,44.53343963623047,187.0255889892578, 145.88949584960938
335,141884600,0.0052870456,-0.7799421,-0.046807826,-0.62407637,11.422680854797363,0.219244122505188,-2.5661745071411133,58.06655502319336,191.205322265625, 150.21923828125
336,141901267,0.030430274,-0.7619198,-0.03644342,-0.6459289,12.848675727844238,-1.29325532913208,-2.565324544906616,83.62759399414062,199.72451782226562, 156.30079650878906
337,141917934,0.056718312,-0.7428811,-0.024915235,-0.666551,12.474017143249512,-2.858330488204956,-4.018548011779785,84.9764633178711,198.3476104736328, 167.5105438232422
338,141934601,0.08490292,-0.7227777,-0.01267741,-0.6857282,13.908946990966797,-2.738706588745117,-5.274430274963379,92.07737731933594,196.502197265625, 180.2279510498047
339,141951268,0.11300804,-0.7006909,0.000834181,-0.7044577,15.584434509277344,-0.19740444421768188,-5.7311224937438965,86.8790054321289,204.4436492919922, 186.3000030517578
340,141967935,0.13822001,-0.67802995,0.016944142,-0.7217226,16.14944839477539,-0.021347664296627045,-6.762624740600586,60.797611236572266,202.29151916503906, 186.00186157226562
341,141984602,0.1641826,-0.65649194,0.031351775,-0.73558104,14.73733139038086,-1.242788553237915,-8.622693061828613,71.3005142211914,179.23109436035156, 184.95892333984375
342,142001269,0.19349721,-0.63651544,0.038579978,-0.74559957,12.806357383728027,0.6948308348655701,-9.944721221923828,120.18638610839844,145.28982543945312, 173.55575561523438
343,142017936,0.22202769,-0.61949855,0.040557668,-0.75185144,13.426058769226074,3.2005350589752197,-11.064605712890625,138.76730346679688,106.9742431640625, 150.84912109375
344,142034603,0.24618767,-0.6070816,0.0402764,-0.7544678,11.11014461517334,5.47418737411499,-11.930961608886719,123.81320190429688,65.61476135253906, 122.9855728149414
345,142051270,0.26246646,-0.6009145,0.039651524,-0.7539504,8.870109558105469,7.2537431716918945,-12.381916999816895,81.28154754638672,21.84674835205078, 84.33708953857422
346,142067937,0.2704466,-0.6019162,0.03640827,-0.75048655,8.403782844543457,7.557185649871826,-12.561179161071777,46.85124969482422,-29.818683624267578, 33.96168518066406
347,142084604,0.27247962,-0.6083751,0.026516506,-0.7449372,9.07719898223877,7.643364906311035,-12.907371520996094,45.903961181640625,-77.35746002197266, -21.634111404418945
348,142101271,0.2687233,-0.6183772,0.011838507,-0.7384153,10.616857528686523,6.753501892089844,-8.311851501464844,39.409339904785156,-107.36602020263672, -70.0467758178711
349,142117938,0.25539407,-0.62622094,0.006995909,-0.7365952,19.80051612854004,-6.218715667724609,21.526029586791992,-46.855960845947266,-57.38977813720703, -85.25843811035156
350,142134605,0.25298706,-0.63295805,-0.0009177213,-0.73168373,9.529200553894043,-6.642804145812988,10.0291109085083,17.454824447631836,-71.19706726074219, -37.69038772583008
351,142151272,0.24919301,-0.6412998,-0.0064284503,-0.7256694,6.305923938751221,2.5762805938720703,-3.4704034328460693,-3.4752860069274902,-79.99187469482422, -32.33154296875
352,142167939,0.24437906,-0.6489815,-0.015822472,-0.72031355,10.61367130279541,-0.22645817697048187,-7.504880428314209,12.511983871459961,-80.46797943115234, -55.67329406738281
353,142184606,0.24057145,-0.65758234,-0.025312996,-0.71349144,19.53162384033203,-0.0584653876721859,-5.529029846191406,16.11408042907715,-91.54659271240234, -48.54571533203125
354,142201273,0.23793009,-0.66771233,-0.03634301,-0.7044352,14.872055053710938,-2.539268732070923,-0.6211392879486084,26.81130599975586,-111.43441009521484, -45.79236602783203
355,142217940,0.23642346,-0.67684937,-0.04800668,-0.69546705,7.772278785705566,-2.3447844982147217,-0.3903547525405884,36.697078704833984,-106.97344207763672, -43.605186462402344
356,142234607,0.23783052,-0.684001,-0.060133144,-0.6869959,8.702510833740234,-1.2670384645462036,-0.6066462397575378,55.532352447509766,-94.96660614013672, -33.31565475463867
357,142251274,0.2365739,-0.6907776,-0.068363935,-0.6798425,10.371116638183594,0.9684926271438599,-0.3935343623161316,24.67165184020996,-81.73605346679688, -29.89824867248535
358,142267941,0.2322594,-0.6979207,-0.07084679,-0.6737531,11.38053035736084,1.128665566444397,-0.40866008400917053,-17.816585540771484,-70.49549865722656, -18.434951782226562
359,142284608,0.22596277,-0.7053061,-0.0688934,-0.6683845,10.677178382873535,-0.17635126411914825,-0.3544565439224243,-48.613990783691406,-62.05923080444336, -7.340313911437988
360,142301275,0.22016883,-0.71207684,-0.067105204,-0.66330177,9.817410469055176,-1.7693405151367188,0.09401999413967133,-44.59774398803711,-57.88581848144531, -6.558077812194824
361,142317942,0.2163141,-0.7179766,-0.067533985,-0.6581467,9.705611228942871,-2.41727876663208,-0.49267008900642395,-23.641660690307617,-56.752323150634766, -8.869194984436035
362,142334609,0.21395472,-0.72283214,-0.069471106,-0.65338427,10.063501358032227,-2.1957740783691406,-1.1108192205429077,-8.067390441894531,-51.65291976928711, -10.632655143737793
363,142351276,0.21201421,-0.72706103,-0.072170235,-0.6490177,10.193936347961426,-2.2599551677703857,-1.030785322189331,-1.8299150466918945,-47.801239013671875, -13.432632446289062
364,142367943,0.21081771,-0.73094255,-0.07589197,-0.644608,9.814046859741211,-1.8703091144561768,-0.6668741703033447,6.9778523445129395,-47.59965896606445, -15.347612380981445
365,142384610,0.20949095,-0.7347077,-0.0791497,-0.6403542,9.22396183013916,-1.5480996370315552,-0.846553385257721,4.3515496253967285,-45.711334228515625, -13.890583992004395
366,142401277,0.20842549,-0.7382023,-0.081357494,-0.6363939,9.130732536315918,-2.4537999629974365,-0.8544620871543884,1.2765254974365234,-41.39799499511719, -8.015774726867676
367,142417944,0.20926113,-0.7406895,-0.085070886,-0.63273364,9.881333351135254,-2.3773162364959717,-1.219806432723999,18.784759521484375,-36.575279235839844, -8.349791526794434
368,142434611,0.21147092,-0.74294126,-0.089933135,-0.62867355,10.130728721618652,-2.155055046081543,-1.0279607772827148,31.349523544311523,-38.446651458740234, -7.80103063583374
369,142451278,0.21298635,-0.74567205,-0.09434664,-0.62426674,9.883624076843262,-1.5745718479156494,-0.9108788371086121,25.37804412841797,-42.07925033569336, -7.722295761108398
370,142467945,0.21325184,-0.74880177,-0.09783643,-0.61987704,9.254433631896973,-1.3729616403579712,-0.7802110314369202,14.406477928161621,-43.17558670043945, -8.124679565429688
371,142484612,0.2121307,-0.75227225,-0.100379005,-0.61563903,9.316057205200195,-1.382666826248169,-1.0633435249328613,2.6270554065704346,-43.406494140625, -9.156911849975586
372,142501279,0.21001627,-0.75614727,-0.10220573,-0.61130077,9.525378227233887,-1.4251987934112549,-1.0684720277786255,-6.06362247467041,-45.29225540161133, -9.238045692443848
373,142517946,0.20692368,-0.7603908,-0.10372643,-0.6068191,9.863897323608398,-1.1145782470703125,-0.9837344884872437,-12.868217468261719,-47.84562301635742, -11.295814514160156
374,142534613,0.20300129,-0.76521206,-0.10512996,-0.6018213,9.76041316986084,-1.7383142709732056,-1.1083344221115112,-18.151079177856445,-53.39506912231445, -13.000866889953613
375,142551280,0.19902562,-0.77032113,-0.107141815,-0.59625065,9.648449897766113,-1.926468014717102,-1.439255952835083,-15.904372215270996,-58.50233459472656, -15.420721054077148
376,142567947,0.19483548,-0.7754898,-0.10976942,-0.59042835,9.48062801361084,-1.8491268157958984,-1.6962058544158936,-14.415237426757812,-61.09132385253906, -19.181062698364258
377,142584614,0.19028018,-0.78059584,-0.112694755,-0.5846055,9.468509674072266,-1.9938180446624756,-1.7782944440841675,-15.07157039642334,-61.52434539794922, -22.3050594329834
378,142601281,0.18574683,-0.78561556,-0.1160263,-0.57865745,9.457843780517578,-1.975974678993225,-2.111921787261963,-13.114108085632324,-62.37461471557617, -24.308757781982422
379,142617948,0.1813365,-0.7905158,-0.119846925,-0.572572,9.59650993347168,-1.5906850099563599,-2.2420618534088135,-10.24495792388916,-63.17615509033203, -26.389785766601562
380,142634615,0.17678225,-0.7953367,-0.12379101,-0.56644803,9.745105743408203,-1.5754910707473755,-2.453402519226074,-10.412471771240234,-63.35395431518555, -27.650768280029297
381,142651282,0.17182504,-0.800142,-0.12780893,-0.56028026,10.165632247924805,-1.327699065208435,-2.615330934524536,-12.273941040039062,-63.972782135009766, -29.58917808532715
382,142667949,0.16623418,-0.8049976,-0.13179214,-0.5540541,10.77780532836914,-1.5305806398391724,-2.3796589374542236,-15.903553009033203,-65.01139831542969, -31.72916603088379
383,142684616,0.15993364,-0.8099173,-0.13552637,-0.5478028,11.289276123046875,-1.6356374025344849,-1.9879335165023804,-20.83318519592285,-65.7668685913086, -32.972816467285156
384,142701283,0.15233533,-0.8150952,-0.1388892,-0.541409,11.884126663208008,-1.1584874391555786,-1.7746812105178833,-29.612552642822266,-68.35393524169922, -35.40135192871094
385,142717950,0.14368947,-0.82045287,-0.14255515,-0.5346856,12.422262191772461,-0.8098816871643066,-1.5947892665863037,-34.2309455871582,-72.21157836914062, -40.48599624633789
386,142734617,0.13478586,-0.82579494,-0.14728284,-0.52744997,12.56263256072998,-0.2283393293619156,-1.1966462135314941,-31.264699935913086,-76.37397766113281, -46.93328094482422
387,142751284,0.12538616,-0.8312282,-0.15313327,-0.5195079,12.944587707519531,-0.0010596627835184336,-0.679485559463501,-29.377992630004883,-82.29080963134766, -54.358890533447266
388,142767951,0.11497155,-0.83675545,-0.15994339,-0.510921,14.012558937072754,-0.38738539814949036,0.04305829107761383,-31.149818420410156,-88.2475814819336, -62.81386947631836
389,142784618,0.10363565,-0.8423463,-0.167691,-0.5015897,14.319612503051758,-1.3676762580871582,1.068833351135254,-32.38713836669922,-94.55748748779297, -70.79109191894531
390,142801285,0.0908961,-0.84809,-0.1753593,-0.4916607,14.317626953125,-1.225134253501892,2.1896793842315674,-40.211761474609375,-100.16897583007812, -74.58627319335938
391,142817952,0.07542195,-0.85358065,-0.18147647,-0.4824705,14.744473457336426,-1.2034335136413574,3.9919912815093994,-62.134765625,-97.40251159667969, -75.57156372070312
392,142834619,0.05686777,-0.8583305,-0.18570554,-0.47491947,14.749099731445312,-2.5372934341430664,5.780835151672363,-88.13465118408203,-88.27375793457031, -76.50808715820312
393,142851286,0.03641177,-0.8624908,-0.18694758,-0.4688653,12.450602531433105,-2.886305570602417,6.929651260375977,-110.79608917236328,-78.87128448486328, -66.47151184082031
394,142867953,0.014776233,-0.86574054,-0.18344651,-0.46542728,10.294774055480957,-1.6150484085083008,4.594513893127441,-136.22119140625,-60.84019088745117, -44.023529052734375
395,142884620,-0.0057307594,-0.8683142,-0.1782619,-0.46283972,8.847352981567383,1.5178813934326172,-3.2522032260894775,-135.8941192626953,-52.07666778564453, -31.37470245361328
396,142901287,-0.021382209,-0.87082595,-0.17832783,-0.4576073,12.436713218688965,2.8965139389038086,-7.903962135314941,-86.94721984863281,-61.502281188964844, -47.464542388916016
397,142917954,-0.038410697,-0.87361866,-0.1774113,-0.45148692,14.834200859069824,1.2228431701660156,-6.056558609008789,-97.14974975585938,-69.5162124633789, -45.710453033447266
398,142934621,-0.055752993,-0.8768889,-0.1764187,-0.44365987,13.006793975830078,0.06756734848022461,-6.455076217651367,-97.06732940673828,-81.66152954101562, -46.12673568725586
399,142951288,-0.075177856,-0.8799095,-0.17327803,-0.43598455,12.535970687866211,1.1535909175872803,-6.051486492156982,-116.47200775146484,-83.33351135253906, -39.81175231933594
400,142967955,-0.09505932,-0.880691,-0.16796063,-0.43259278,11.944416999816895,-0.114968441426754,-1.8367958068847656,-132.02975463867188,-52.37144088745117, -28.498924255371094
401,142984622,-0.11107984,-0.8796988,-0.1614426,-0.43327522,8.039543151855469,-4.856391429901123,0.900518536567688,-118.09010314941406,-18.773754119873047, -9.174881935119629
402,143001289,-0.1198106,-0.8780419,-0.15348858,-0.43718335,4.314410209655762,-5.486478805541992,1.0422110557556152,-82.38870239257812,9.691323280334473, 22.88912010192871
403,143017956,-0.121058635,-0.8762216,-0.1459753,-0.44302565,4.231843948364258,-4.152100563049316,0.8331319689750671,-38.096702575683594,30.114198684692383, 44.092254638671875
404,143034623,-0.11879019,-0.8733596,-0.13853878,-0.45159617,4.751276969909668,-1.2341725826263428,0.6439915895462036,-20.305715560913086,53.31208419799805, 55.53451156616211
405,143051290,-0.116178915,-0.8684559,-0.13014719,-0.46405676,5.411709308624268,1.057342529296875,-0.771236002445221,-26.58946990966797,82.55229187011719, 63.55322265625
406,143067957,-0.113719694,-0.86161035,-0.11926388,-0.48007485,6.446269512176514,0.0619661882519722,-1.5703035593032837,-40.17780685424805,107.87059020996094, 79.05241394042969
407,143084624,-0.1079057,-0.8535268,-0.10671485,-0.49845803,6.8332014083862305,-1.6688084602355957,-1.508407711982727,-28.71111297607422,127.42599487304688, 100.81936645507812
408,143101291,-0.097249046,-0.84446496,-0.092777915,-0.5184727,7.509383201599121,-2.426100492477417,-0.8867303133010864,-6.982186794281006,142.88430786132812, 126.03739929199219
409,143117958,-0.08182465,-0.83432174,-0.078805834,-0.53944564,8.818360328674316,-1.4724832773208618,-0.7074886560440063,19.232507705688477,155.31980895996094, 143.16690063476562
410,143134625,-0.06393612,-0.8224318,-0.06480018,-0.561533,9.882478713989258,-0.19186456501483917,-1.0242719650268555,31.652585983276367,169.50015258789062, 152.16854858398438
411,143151292,-0.044056114,-0.8086539,-0.05135714,-0.58438045,10.291278839111328,0.48878028988838196,-1.771024465560913,43.9218864440918,182.21670532226562, 156.17047119140625
412,143167959,-0.02142908,-0.7930624,-0.039659426,-0.6074703,10.927901268005371,0.5018168687820435,-1.929484486579895,65.58201599121094,192.3504638671875, 156.95053100585938
413,143184626,0.005323037,-0.77556133,-0.03148097,-0.6304646,12.310355186462402,-0.1762135922908783,-1.8732579946517944,76.90968322753906,200.76885986328125, 159.74874877929688
414,143201293,0.033861786,-0.75614846,-0.022078753,-0.65315044,13.51352310180664,-2.0018184185028076,-1.5038917064666748,106.82156372070312,208.54556274414062, 168.39529418945312
415,143217960,0.06435355,-0.7345988,-0.013082771,-0.6753162,14.030543327331543,-0.9075310230255127,-3.8313100337982178,119.38255310058594,215.64926147460938, 174.8706512451172
416,143234627,0.09462529,-0.7100534,-0.0037150185,-0.697751,16.406034469604492,0.4804120659828186,-5.812575340270996,117.85386657714844,231.10838317871094, 175.37623596191406
417,143251294,0.123398416,-0.68452173,0.0080794105,-0.7184273,17.171875,-0.8238608837127686,-8.246223449707031,99.57977294921875,228.8603057861328, 181.2058868408203
418,143267961,0.1541441,-0.66041994,0.017387474,-0.7346991,16.00765037536621,-2.24958872795105,-11.220926284790039,119.70955657958984,198.9373016357422, 182.94808959960938
419,143284628,0.18875247,-0.6384379,0.018435428,-0.7459422,13.286025047302246,0.5708833932876587,-14.231743812561035,176.1627960205078,156.3018798828125, 170.0619659423828
420,143301295,0.22247933,-0.62012404,0.012932105,-0.75218475,12.557524681091309,3.8733103275299072,-15.51220417022705,200.54794311523438,107.28659057617188, 142.85958862304688
421,143317962,0.2511095,-0.6069325,0.003966447,-0.75403,10.210282325744629,5.900666236877441,-14.863696098327637,188.50755310058594,57.365760803222656, 108.07481384277344
422,143334629,0.27158335,-0.5996439,-0.0064269025,-0.7527474,9.14206600189209,8.503643035888672,-15.292491912841797,151.62283325195312,11.618289947509766, 65.1484603881836
423,143351296,0.28228128,-0.60064197,-0.016922988,-0.74783707,8.376245498657227,7.663755893707275,-15.946901321411133,96.5541000366211,-46.69095993041992, 21.364484786987305
424,143367963,0.2856965,-0.6069052,-0.031343676,-0.74098676,9.937455177307129,6.2189555168151855,-11.811812400817871,76.69418334960938,-90.08048248291016, -27.83016014099121
425,143384630,0.27915072,-0.61398375,-0.04132376,-0.7371509,16.372634887695312,2.0667200088500977,10.135397911071777,10.26179027557373,-74.9588623046875, -65.721435546875
426,143401297,0.2756456,-0.62045044,-0.051118407,-0.7324261,13.108933448791504,-7.746197700500488,11.510921478271484,23.548301696777344,-74.47369384765625, -47.94057846069336
427,143417964,0.27575392,-0.6274374,-0.060486797,-0.72568834,7.913877010345459,2.0255095958709717,-0.18478268384933472,36.513710021972656,-83.7061996459961, -23.983871459960938
428,143434631,0.27255854,-0.6353128,-0.06955942,-0.7192018,8.790581703186035,1.4848254919052124,-5.378505706787109,18.99234962463379,-87.8687744140625, -39.27223205566406
429,143451298,0.2693342,-0.64097756,-0.080463775,-0.7142355,15.538419723510742,5.9440999031066895,-2.5786280632019043,31.343687057495117,-73.69158935546875, -51.302005767822266
430,143467965,0.26202947,-0.6524678,-0.084123924,-0.7060807,17.666704177856445,-4.118167877197266,-1.7981014251708984,-31.235193252563477,-105.16500091552734, -30.204219818115234
431,143484632,0.26103038,-0.6618833,-0.09317014,-0.69648623,10.144423484802246,-1.4447253942489624,-1.0538524389266968,27.778427124023438,-107.58722686767578, -22.3767147064209
432,143501299,0.26158017,-0.6695001,-0.103611276,-0.68746644,8.535412788391113,-2.152423620223999,-0.46093419194221497,44.37357711791992,-97.86869812011719, -23.50441551208496
433,143517966,0.2640801,-0.67519224,-0.114025615,-0.6792464,9.146321296691895,-0.14722222089767456,-0.018418148159980774,56.11784744262695,-83.65979766845703, -16.99791717529297
434,143534633,0.26399913,-0.6810748,-0.12056733,-0.6722392,10.89245319366455,1.2325586080551147,0.05825193226337433,24.751331329345703,-73.92450714111328, -13.128244400024414
435,143551300,0.26037246,-0.6880798,-0.12175572,-0.66627926,11.378337860107422,0.7953237891197205,0.11385059356689453,-19.498533248901367,-67.44806671142578, -5.3981757164001465
436,143567967,0.25486234,-0.69585496,-0.11963389,-0.6606958,9.697467803955078,-1.8871201276779175,-0.018049538135528564,-45.266117095947266,-64.86810302734375, 1.6258530616760254
437,143584634,0.25042716,-0.7029266,-0.11862665,-0.6550637,9.095592498779297,-2.9094417095184326,-0.315108984708786,-33.78462219238281,-62.997459411621094, 0.6749773621559143
438,143601301,0.24816346,-0.7087621,-0.11990687,-0.6493795,9.505888938903809,-2.708552837371826,-0.7742553949356079,-10.817408561706543,-59.86799621582031, -1.5394328832626343
439,143617968,0.2473801,-0.7136309,-0.12237357,-0.6438625,9.823884963989258,-2.667821168899536,-1.0395481586456299,3.202794075012207,-55.55443572998047, -1.813488483428955
440,143634635,0.24718316,-0.7179444,-0.1256799,-0.6384834,9.837273597717285,-2.413628578186035,-0.8478808403015137,10.62614917755127,-53.365657806396484, -4.057248115539551
441,143651302,0.24783072,-0.7219111,-0.12987621,-0.6328954,9.641120910644531,-1.7715950012207031,-0.6245551109313965,19.469253540039062,-53.67049789428711, -4.703993320465088
442,143667969,0.24930884,-0.72548,-0.1346998,-0.6272002,9.66377067565918,-1.244574785232544,-0.8167533278465271,27.093341827392578,-52.81419372558594, -4.386460304260254
443,143684636,0.2512236,-0.72879785,-0.13962828,-0.6214857,9.752744674682617,-1.0635404586791992,-0.9199799299240112,30.17072105407715,-51.616085052490234, -3.2313385009765625
444,143701303,0.25352523,-0.7317472,-0.14526926,-0.6157663,10.352229118347168,-0.5260557532310486,-0.7489157915115356,35.79417037963867,-50.94169616699219, -5.498148441314697
445,143717970,0.2556532,-0.7348379,-0.15047331,-0.60992855,10.220725059509277,-0.8477142453193665,-0.8673031330108643,32.94274139404297,-51.56388473510742, -3.6851398944854736
446,143734637,0.25696927,-0.7383646,-0.15480416,-0.60400367,9.636693954467773,-1.4249491691589355,-1.0468429327011108,24.501422882080078,-53.154972076416016, -2.074371814727783
447,143751304,0.25783876,-0.7421947,-0.15869741,-0.5978976,9.127426147460938,-1.880980372428894,-1.089503526687622,20.073345184326172,-55.05500030517578, -1.0712257623672485
448,143767971,0.25831234,-0.7461629,-0.1624304,-0.59171975,9.204032897949219,-2.058645248413086,-1.251511573791504,17.22454833984375,-56.15185546875, -1.6143878698349
449,143784638,0.25878435,-0.7500306,-0.16640593,-0.58548623,9.44249153137207,-2.118293285369873,-1.3111846446990967,18.44019889831543,-56.4754753112793, -2.890915632247925
450,143801305,0.25874612,-0.75416005,-0.17047687,-0.5789914,9.52663516998291,-2.021289825439453,-1.336100459098816,16.02322006225586,-59.64719009399414, -4.683856964111328
451,143817972,0.2582554,-0.75830245,-0.17441909,-0.57259035,9.681694984436035,-1.5661277770996094,-1.4952659606933594,13.027592658996582,-59.53077697753906, -5.978929042816162
452,143834639,0.25658888,-0.7625293,-0.17779346,-0.5666575,10.0338134765625,-0.9810330867767334,-1.6670594215393066,3.948443651199341,-57.84049606323242, -8.38116455078125
453,143851306,0.2539785,-0.76690334,-0.180597,-0.5610161,9.962693214416504,-1.0526319742202759,-1.7290928363800049,-3.8411943912506104,-57.04827117919922, -9.397307395935059
454,143867973,0.24993464,-0.77174336,-0.18204182,-0.5557029,10.049304008483887,-1.1880695819854736,-1.9116202592849731,-8.434791564941406,-58.41455841064453, -9.882720947265625
455,143884640,0.24604967,-0.77659714,-0.18436684,-0.5498776,10.157970428466797,-1.5850305557250977,-1.8267536163330078,-8.355415344238281,-61.55548095703125, -12.05942440032959
456,143901307,0.2418728,-0.78148013,-0.18772121,-0.5436427,10.326122283935547,-1.492463231086731,-1.9173429012298584,-9.023463249206543,-65.2982406616211, -17.109434127807617
457,143917974,0.23673865,-0.7865435,-0.19124198,-0.5373367,10.831274032592773,-1.3368617296218872,-2.416408061981201,-16.472087860107422,-67.3747787475586, -20.487977981567383
458,143934641,0.23079441,-0.7916919,-0.19425282,-0.5312473,11.627632141113281,-2.034825563430786,-1.242372989654541,-25.79107666015625,-66.30796813964844, -20.13353157043457
459,143951308,0.22379243,-0.79701346,-0.19716454,-0.52517885,12.326574325561523,-1.5658454895019531,-1.5184005498886108,-35.17837142944336,-67.64434051513672, -22.213642120361328
460,143967975,0.21479912,-0.80275667,-0.19949445,-0.51927394,12.444612503051758,-0.8721767067909241,-1.096763014793396,-41.97291564941406,-71.32123565673828, -28.210161209106445
461,143984642,0.20444815,-0.8087189,-0.2025075,-0.5129967,12.57972240447998,-0.45685693621635437,-0.6069600582122803,-46.84218215942383,-77.06958770751953, -35.97471237182617
462,144001309,0.19256279,-0.81491685,-0.20626591,-0.506246,13.179574012756348,-0.5139040946960449,-0.3175651431083679,-52.4173583984375,-83.76402282714844, -44.533817291259766
463,144017976,0.17914787,-0.82133085,-0.21097852,-0.49880844,13.346901893615723,-1.4314582347869873,0.2338988035917282,-56.97974395751953,-91.8497543334961, -53.98747634887695
464,144034643,0.16474019,-0.82757574,-0.21668229,-0.4909459,13.659706115722656,-1.8998265266418457,0.34954458475112915,-58.36585235595703,-96.3917465209961, -62.722713470458984
465,144051310,0.14900479,-0.83367866,-0.22186168,-0.4832755,12.922531127929688,-0.9772909879684448,1.1608859300613403,-67.82164001464844,-96.26653289794922, -64.66914367675781
466,144067977,0.1304059,-0.8398906,-0.22504458,-0.47637486,12.78389835357666,-0.4411752223968506,3.4472155570983887,-92.15869903564453,-94.60894775390625, -63.377994537353516
467,144084644,0.10939446,-0.8452641,-0.22782762,-0.47080374,14.479780197143555,-1.2991420030593872,5.928423881530762,-108.70368194580078,-87.64960479736328, -71.48118591308594
468,144101311,0.08581689,-0.85006076,-0.22904812,-0.4664434,13.886866569519043,-2.5717649459838867,7.259459495544434,-130.13870239257812,-81.71060943603516, -72.5594253540039
469,144117978,0.05959576,-0.8543156,-0.22597328,-0.46425152,11.689068794250488,-2.6174840927124023,5.250594139099121,-162.47047424316406,-69.05245208740234, -58.12588119506836
470,144134645,0.03458369,-0.8579962,-0.21995357,-0.46288988,9.01009750366211,-1.1233192682266235,-2.735278367996216,-165.82720947265625,-59.34513854980469, -38.2673454284668
471,144151312,0.015333353,-0.8609645,-0.2192495,-0.45873162,12.58714771270752,2.2317800521850586,-7.950179576873779,-110.51832580566406,-66.12290954589844, -51.74454116821289
472,144167979,-0.0050596814,-0.86410713,-0.21784872,-0.45369074,15.037172317504883,-0.2749427258968353,-6.670616626739502,-118.16295623779297,-73.52521514892578, -50.88882827758789
473,144184646,-0.02171113,-0.867846,-0.21829163,-0.44578138,13.190502166748047,0.1738472580909729,-6.256196975708008,-85.87547302246094,-86.76638793945312, -49.423606872558594
474,144201313,-0.041105743,-0.8714046,-0.2157616,-0.43864706,12.525440216064453,2.1489181518554688,-5.69276762008667,-112.5613784790039,-86.1538314819336, -40.28846740722656
475,144217980,-0.06290966,-0.8725281,-0.20924705,-0.43698156,13.225565910339355,-0.8262686133384705,-0.33965250849723816,-147.81915283203125,-50.7449951171875, -25.781103134155273
476,144234647,-0.08019434,-0.87241304,-0.1995629,-0.43890658,7.373839855194092,-6.146321773529053,1.852656364440918,-135.93731689453125,-20.39959716796875, 6.516324520111084
477,144251314,-0.08898834,-0.8717284,-0.18932521,-0.4430876,2.429912567138672,-4.79052734375,1.4989656209945679,-90.12570190429688,6.16997766494751, 35.836669921875
478,144267981,-0.09022714,-0.87005496,-0.18085295,-0.4496173,3.9174537658691406,-2.0378730297088623,1.2723582983016968,-43.15610122680664,34.179019927978516, 48.37466812133789
479,144284648,-0.08727259,-0.8667598,-0.17316237,-0.45948428,4.807916164398193,-0.7386561036109924,0.43222445249557495,-20.822023391723633,64.84898376464844, 56.693790435791016
480,144301315,-0.08185176,-0.8618694,-0.164966,-0.4725124,5.62282657623291,-0.05076150968670845,-0.13795596361160278,-12.445141792297363,91.3541259765625, 67.48619079589844
481,144317982,-0.073600486,-0.85545063,-0.15527263,-0.48854667,5.967571258544922,-0.6761424541473389,-0.6846105456352234,-4.805296421051025,116.49737548828125, 85.50682067871094
482,144334649,-0.06202016,-0.8477484,-0.14401619,-0.50669074,6.277900218963623,-1.6849788427352905,-0.5500534176826477,6.618623733520508,135.98159790039062, 105.57339477539062
483,144351316,-0.04555923,-0.83883333,-0.1327986,-0.5259729,7.544334411621094,-1.4010639190673828,-0.37933290004730225,33.55063247680664,151.6871795654297, 121.62195587158203
484,144367983,-0.025585597,-0.82824576,-0.12179104,-0.5463709,9.344930648803711,-0.5093819499015808,-0.446067750453949,53.02284622192383,167.43484497070312, 131.93017578125
485,144384650,-0.0038329805,-0.81571144,-0.11036322,-0.56782055,10.378732681274414,-0.03821456432342529,-0.9606939554214478,60.35118865966797,182.13442993164062, 139.5643310546875
486,144401317,0.020042226,-0.80106544,-0.099538974,-0.58990216,10.441583633422852,0.24180112779140472,-1.614608883857727,74.07847595214844,195.53814697265625, 142.8931121826172
487,144417984,0.046168134,-0.78426725,-0.09017139,-0.61209697,11.463098526000977,0.421173632144928,-2.4487850666046143,92.61015319824219,206.22987365722656, 142.53338623046875
488,144434651,0.074187435,-0.7654128,-0.08159011,-0.6340211,13.214856147766113,-0.7302754521369934,-2.580832004547119,106.9563217163086,214.36117553710938, 145.10882568359375
489,144451318,0.104091436,-0.7446259,-0.073292024,-0.65522945,14.041037559509277,-1.8872777223587036,-2.8477771282196045,119.49625396728516,219.94879150390625, 151.1481475830078
490,144467985,0.1349036,-0.7217598,-0.064039804,-0.6758423,15.743011474609375,-2.5773916244506836,-3.4352903366088867,121.64061737060547,227.43954467773438, 159.5306854248047
491,144484652,0.16633171,-0.6968174,-0.05418594,-0.69558847,17.734384536743164,-0.6500480771064758,-5.551374435424805,98.40884399414062,237.64215087890625, 164.7428741455078
492,144501319,0.19204731,-0.67265725,-0.03879445,-0.7135441,16.64145278930664,-2.161937952041626,-8.588725090026855,70.05489349365234,225.62548828125, 166.90093994140625
493,144517986,0.21931805,-0.65043443,-0.026911033,-0.72671217,13.051301956176758,-3.088329792022705,-11.577117919921875,93.1927261352539,189.87557983398438, 165.1715087890625
494,144534653,0.24945003,-0.6300407,-0.023106324,-0.73504406,13.176231384277344,1.6867685317993164,-12.671100616455078,144.53514099121094,147.6038360595703, 150.99058532714844
495,144551320,0.2755377,-0.6142484,-0.021987433,-0.73911744,12.388394355773926,4.154024124145508,-13.716727256774902,133.40170288085938,100.81085205078125, 127.01953887939453
496,144567987,0.29517856,-0.6044264,-0.021701988,-0.73963994,9.668464660644531,6.95868444442749,-13.59343433380127,99.66604614257812,53.096012115478516, 98.4573745727539
497,144584654,0.3055308,-0.60233724,-0.021434749,-0.7371442,8.913148880004883,7.073174953460693,-14.40852165222168,45.94270706176758,-0.022385934367775917, 58.533077239990234
498,144601321,0.30917895,-0.6062259,-0.02510141,-0.73230374,8.812382698059082,5.371326923370361,-13.139012336730957,25.943016052246094,-49.10379409790039, 14.17782974243164
499,144617988,0.30560607,-0.61446804,-0.03110018,-0.7266821,9.428067207336426,4.03763484954834,-9.64133071899414,-1.4978564977645874,-80.32891845703125, -29.401676177978516
500,144634655,0.2951478,-0.6238781,-0.036437318,-0.7227283,13.980154037475586,3.00508451461792,4.023341178894043,-36.68566131591797,-79.08882904052734, -64.18989562988281
501,144651322,0.287559,-0.63158154,-0.04297023,-0.7187269,14.623222351074219,-8.04964542388916,10.426424026489258,-14.98682689666748,-72.54969024658203, -55.315521240234375
502,144667989,0.28986025,-0.6376255,-0.05571141,-0.7115555,8.634478569030762,0.34970614314079285,0.014930672943592072,62.832603454589844,-87.56730651855469, -27.679916381835938
503,144684656,0.28623712,-0.6443773,-0.06748403,-0.7058982,10.348872184753418,4.983665466308594,-5.127313613891602,30.128599166870117,-84.72622680664062, -55.149818420410156
504,144701323,0.28128958,-0.652525,-0.07875392,-0.69920325,18.10114097595215,0.6596981287002563,-3.6576695442199707,19.561508178710938,-95.66218566894531, -56.589969635009766
505,144717990,0.27940527,-0.6620675,-0.08882749,-0.6897168,13.751977920532227,-2.5329222679138184,-1.2643944025039673,26.379241943359375,-110.86288452148438, -30.300697326660156
506,144734657,0.27812836,-0.6705392,-0.09937426,-0.6805489,8.90011978149414,0.29763129353523254,-0.2081148475408554,33.25908660888672,-104.85907745361328, -30.85149383544922
507,144751324,0.27887934,-0.6776465,-0.10938233,-0.67160785,9.510092735290527,-2.2639191150665283,-0.42942875623703003,42.546669006347656,-95.01882934570312, -20.241802215576172
508,144767991,0.28163612,-0.68328947,-0.119386666,-0.66298074,9.900782585144043,-0.5204856395721436,-0.6207988262176514,54.44989013671875,-85.28330993652344, -12.690993309020996
509,144784658,0.2834481,-0.6886071,-0.12715112,-0.6552177,10.974370002746582,0.4630226492881775,-0.04663657397031784,39.725502014160156,-76.1848373413086, -8.419012069702148
510,144801325,0.28258538,-0.6947643,-0.13067295,-0.6483616,10.662734031677246,0.5318825840950012,0.08884058147668839,5.523146629333496,-69.75785827636719, -1.4020119905471802
511,144817992,0.27962962,-0.70132136,-0.13093859,-0.64250356,9.747835159301758,-1.434714436531067,-0.14602363109588623,-20.661989212036133,-62.34888458251953, 3.260821580886841
512,144834659,0.2756119,-0.70784175,-0.13007395,-0.63724333,9.366522789001465,-2.5034117698669434,-0.23163892328739166,-20.85846519470215,-60.577823638916016, 2.93457293510437
513,144851326,0.27355653,-0.7134973,-0.13138421,-0.63152736,9.700495719909668,-2.7869036197662354,-0.7541570663452148,-4.251864910125732,-60.32035827636719, 0.8684800863265991
514,144867993,0.27265942,-0.7184397,-0.13432796,-0.6256656,10.026548385620117,-2.983100652694702,-1.101584553718567,5.054121017456055,-58.80415344238281, -2.482541799545288
515,144884660,0.27267608,-0.72284025,-0.13878675,-0.6195868,9.590032577514648,-2.91414213180542,-0.9998155832290649,13.576549530029297,-58.669700622558594, -6.0138115882873535
516,144901327,0.2741476,-0.726523,-0.14491385,-0.61319464,9.315665245056152,-1.8340774774551392,-0.6586086750030518,27.05844497680664,-58.339473724365234, -8.046195030212402
517,144917994,0.27579007,-0.7297065,-0.15103616,-0.6071708,9.658833503723145,-0.6303849816322327,-0.8245300650596619,27.7839412689209,-54.0852165222168, -8.383979797363281
518,144934661,0.2764693,-0.7330564,-0.15590318,-0.60157084,10.10329818725586,-0.8936368823051453,-0.8863402605056763,15.93957805633545,-51.067420959472656, -6.571324825286865
519,144951328,0.27653655,-0.73687994,-0.16036443,-0.5956668,10.125734329223633,-1.328056812286377,-0.9963706731796265,10.164144515991211,-54.371543884277344, -5.830601692199707
520,144967995,0.27626938,-0.7409613,-0.16492543,-0.5894501,9.876611709594727,-1.7288621664047241,-1.2051358222961426,7.910686016082764,-57.414283752441406, -6.626585006713867
521,144984662,0.27524453,-0.74507624,-0.16872324,-0.5836388,9.504534721374512,-1.8731848001480103,-1.3195617198944092,8.641166687011719,-56.78895568847656, -7.463193893432617
522,145001329,0.27398017,-0.74903053,-0.17229174,-0.57810366,9.355032920837402,-1.4716699123382568,-1.4028209447860718,6.474889755249023,-54.590049743652344, -7.968837261199951
523,145017996,0.27217275,-0.7531264,-0.1751687,-0.5727468,9.326485633850098,-1.8956108093261719,-1.2650738954544067,0.4498852491378784,-53.59366226196289, -6.7393083572387695
524,145034663,0.2702496,-0.7572608,-0.17792696,-0.56733006,9.632060050964355,-1.8463329076766968,-1.5604653358459473,-0.6199617385864258,-53.99330139160156, -6.431979179382324
525,145051330,0.26849705,-0.7612819,-0.18077612,-0.56185365,9.883853912353516,-1.5838252305984497,-1.6636894941329956,0.9025176167488098,-53.83985900878906, -6.276290416717529
526,145067997,0.2662417,-0.76530194,-0.18339397,-0.5565926,9.86764907836914,-1.5272804498672485,-1.8361809253692627,-2.890204668045044,-52.926605224609375, -7.410712718963623
527,145084664,0.2635422,-0.7693467,-0.18586327,-0.5514583,9.846778869628906,-1.4985461235046387,-1.949623703956604,-6.003049850463867,-52.65932083129883, -8.533905982971191
528,145101331,0.260332,-0.77350086,-0.18813322,-0.5463789,9.813164710998535,-1.312260627746582,-1.906691312789917,-9.730290412902832,-53.09370422363281, -9.37804889678955
529,145117998,0.256425,-0.7779792,-0.19017164,-0.54113704,9.930285453796387,-1.2626556158065796,-1.8728480339050293,-14.677933692932129,-55.68231201171875, -10.055987358093262
530,145134665,0.25193626,-0.7828062,-0.19209275,-0.5355772,10.321603775024414,-1.127386450767517,-2.156928062438965,-18.426708221435547,-59.256168365478516, -10.576704978942871
531,145151332,0.24667776,-0.7880251,-0.19373992,-0.52974683,10.803947448730469,-1.3679835796356201,-2.296363353729248,-23.900367736816406,-62.718624114990234, -10.949607849121094
532,145167999,0.24086216,-0.7933664,-0.19509348,-0.5239216,10.78067398071289,-2.0231754779815674,-1.7680933475494385,-28.204181671142578,-63.403446197509766, -11.23416805267334
533,145184666,0.23424204,-0.7988822,-0.19636732,-0.5180328,11.543336868286133,-1.6690735816955566,-1.7327613830566406,-33.08870315551758,-65.35722351074219, -13.366375923156738
534,145201333,0.22625715,-0.80461,-0.19773304,-0.51216435,12.115452766418457,-1.2143828868865967,-1.402443528175354,-40.631473541259766,-68.02696228027344, -18.482093811035156
535,145218000,0.21745798,-0.81045234,-0.19994912,-0.5058654,12.212409019470215,-0.6313495635986328,-1.1775423288345337,-41.73785400390625,-73.28362274169922, -25.228071212768555
536,145234667,0.20760429,-0.8164405,-0.20308043,-0.49908295,12.545510292053223,-0.643902063369751,-0.7608141899108887,-43.98421096801758,-79.35225677490234, -33.067466735839844
537,145251334,0.19633122,-0.82263726,-0.20693174,-0.49183485,13.014629364013672,-1.1014809608459473,-0.4356282949447632,-49.1298828125,-85.74697875976562, -41.022483825683594
538,145268001,0.18339266,-0.82895976,-0.21131904,-0.48429057,13.299947738647461,-1.5818541049957275,0.19229459762573242,-56.489234924316406,-91.00440979003906, -49.11295700073242
539,145284668,0.16898231,-0.8350976,-0.21601072,-0.47686112,13.690753936767578,-1.7972646951675415,0.4833858609199524,-63.803932189941406,-92.32992553710938, -56.17634963989258
540,145301335,0.15270953,-0.8413523,-0.21962339,-0.46965086,12.66507625579834,-0.5036470890045166,2.1494483947753906,-78.50349426269531,-93.04733276367188, -56.18895721435547
541,145318002,0.13315155,-0.8472556,-0.22200872,-0.46383312,13.845332145690918,0.3977929651737213,4.893666744232178,-103.20596313476562,-87.62309265136719, -61.70661926269531
542,145334669,0.11110126,-0.8522902,-0.22394946,-0.45946133,14.556121826171875,-1.3903884887695312,6.986914157867432,-120.5478286743164,-79.95663452148438, -69.73399353027344
543,145351336,0.08633368,-0.85679394,-0.22296236,-0.45687932,12.731871604919434,-1.9670194387435913,6.879696369171143,-148.07493591308594,-69.89309692382812, -63.39604187011719
544,145368003,0.059367772,-0.8606805,-0.21609068,-0.4571757,9.661170959472656,-1.942592740058899,2.088024139404297,-183.56764221191406,-51.00907897949219, -38.35983657836914
545,145384670,0.03526495,-0.86399364,-0.21035631,-0.45609385,9.376838684082031,1.2309976816177368,-6.207398414611816,-160.769287109375,-53.633113861083984, -36.450416564941406
546,145401337,0.016450351,-0.8668156,-0.20947114,-0.45219678,14.470526695251465,0.6648771166801453,-6.882786750793457,-109.94229125976562,-62.31564712524414, -48.732154846191406
547,145418004,-0.0030218193,-0.8702253,-0.20757231,-0.44678017,13.856804847717285,-1.011096715927124,-6.4787492752075195,-114.89502716064453,-74.0378646850586, -43.76107406616211
548,145434671,-0.022364054,-0.87395954,-0.20478366,-0.4401799,11.88518238067627,-0.07484541088342667,-6.276772499084473,-115.17447662353516,-81.95811462402344, -37.66215896606445
549,145451338,-0.04547659,-0.87673074,-0.19909345,-0.43547356,13.426054000854492,2.7498457431793213,-4.393514156341553,-149.4479217529297,-73.41438293457031, -32.75829315185547
550,145468005,-0.0694131,-0.87636065,-0.1905902,-0.436863,11.507290840148926,-2.0347187519073486,0.47411420941352844,-172.15969848632812,-29.29082679748535, -20.707691192626953
551,145484672,-0.08810633,-0.87430954,-0.18018621,-0.4419878,5.34791374206543,-5.7122626304626465,1.5371119976043701,-151.98326110839844,4.181966304779053, 5.9845805168151855
552,145501339,-0.09621544,-0.8721187,-0.1693979,-0.44883868,3.6052157878875732,-6.927741527557373,1.3574564456939697,-91.78446960449219,27.848356246948242, 41.2403564453125
553,145518006,-0.094061926,-0.8698716,-0.16101784,-0.45667166,4.431102752685547,-4.279261589050293,1.0807392597198486,-24.047157287597656,47.45103073120117, 58.975433349609375
554,145534673,-0.088857144,-0.8662413,-0.15367316,-0.46702817,5.319702625274658,-1.0924134254455566,0.04579075425863266,-6.265588283538818,70.92117309570312, 62.417945861816406
555,145551340,-0.08233435,-0.8604323,-0.14531153,-0.48141652,7.013093948364258,-0.408473402261734,-0.4580981135368347,-7.279985427856445,102.69304656982422, 72.8531723022461
556,145568007,-0.07337631,-0.8532879,-0.13500375,-0.49828693,7.36106538772583,-2.011249542236328,-1.2221266031265259,-2.5539402961730957,123.11752319335938, 92.48489379882812
557,145584674,-0.06042748,-0.8451543,-0.123883456,-0.5164455,8.04633903503418,-1.764435052871704,-1.1197969913482666,16.366317749023438,137.35342407226562, 110.62960815429688
558,145601341,-0.04421484,-0.8356561,-0.11193686,-0.53590477,9.03536605834961,-0.9391971826553345,-1.0345580577850342,30.709487915039062,152.1854705810547, 126.38027954101562
559,145618008,-0.025866158,-0.82453567,-0.099599466,-0.55637395,10.169258117675781,-0.3031318783760071,-1.1831187009811401,40.267154693603516,165.47811889648438, 135.54635620117188
560,145634675,-0.0053212577,-0.81131846,-0.08768319,-0.57796705,10.514796257019043,0.6273070573806763,-1.357313632965088,53.18367004394531,181.437744140625, 140.32855224609375
561,145651342,0.015623853,-0.79606915,-0.07555495,-0.60026777,10.5662841796875,0.8826130032539368,-1.914048671722412,54.077728271484375,193.68621826171875, 141.9203643798828
562,145668009,0.037570465,-0.77909064,-0.06348757,-0.6225557,11.421249389648438,0.31420764327049255,-2.128145694732666,60.00515365600586,201.27243041992188, 144.85353088378906
563,145684676,0.06189787,-0.7600797,-0.052163105,-0.6447688,12.83811092376709,-1.1816017627716064,-2.018477201461792,76.50518035888672,210.43563842773438, 150.2301483154297
564,145701343,0.08778219,-0.73940957,-0.039459232,-0.6663413,13.45431137084961,-2.635819911956787,-2.443373441696167,85.1217269897461,215.1975555419922, 163.46185302734375
565,145718010,0.11484664,-0.71712184,-0.025928264,-0.6869312,14.916450500488281,-1.6908824443817139,-4.337544918060303,82.92507934570312,218.87518310546875, 173.82191467285156
566,145734677,0.13998206,-0.6939575,-0.009020372,-0.7062199,16.54296875,-0.05674365162849426,-6.9271368980407715,58.37892532348633,218.99220275878906, 182.26344299316406
567,145751344,0.1652275,-0.6719771,0.007940946,-0.7218612,16.035037994384766,-2.8740055561065674,-9.38918685913086,57.73950958251953,196.00155639648438, 186.69232177734375
568,145768011,0.19551805,-0.65122503,0.017922183,-0.7330467,13.1460599899292,-1.8722084760665894,-10.319596290588379,114.08897399902344,161.25479125976562, 184.51211547851562
569,145784678,0.22726221,-0.6319812,0.020663165,-0.74062455,12.904763221740723,2.472529649734497,-11.12272834777832,154.6644287109375,127.73306274414062, 164.13250732421875
570,145801345,0.25607526,-0.6163229,0.01925547,-0.7444467,12.739835739135742,3.77028751373291,-11.458980560302734,156.94583129882812,87.2474365234375, 136.63438415527344
571,145818012,0.27923125,-0.60492015,0.014656395,-0.74557817,10.728493690490723,6.4865312576293945,-12.402840614318848,141.49209594726562,49.36137390136719, 98.43606567382812
572,145834679,0.29229462,-0.60177964,0.01118214,-0.743169,8.476978302001953,7.384866237640381,-14.13786506652832,77.55553436279297,-4.360372543334961, 57.465816497802734
573,145851346,0.2979757,-0.60513055,0.0036961706,-0.73825055,9.096874237060547,6.595951557159424,-13.5586576461792,54.31721878051758,-55.2109375, 7.81546688079834
574,145868013,0.29779664,-0.61288446,-0.008982579,-0.7318533,9.833481788635254,5.942751407623291,-11.763945579528809,47.27719497680664,-94.01588439941406, -40.50746154785156
575,145884680,0.29163733,-0.6231626,-0.021728164,-0.725358,13.023038864135742,2.6977379322052,-1.9366081953048706,17.279266357421875,-107.4742202758789, -70.42488861083984
576,145901347,0.28422618,-0.63052464,-0.02813239,-0.7217084,16.928821563720703,-11.837898254394531,19.594919204711914,-14.292632102966309,-68.16233825683594, -55.56106185913086
577,145918014,0.28815973,-0.6374688,-0.040988613,-0.7133847,7.51310396194458,-2.9669113159179688,3.05165433883667,68.56880950927734,-96.98233795166016, -18.278575897216797
578,145934681,0.2924843,-0.6434762,-0.05663649,-0.70511264,7.022141933441162,3.5695464611053467,-8.73030948638916,85.81282043457031,-97.61233520507812, -28.991626739501953
579,145951348,0.2911581,-0.6475344,-0.075000115,-0.7002152,18.178876876831055,6.953065872192383,-3.4837145805358887,76.6068115234375,-80.77604675292969, -75.9000015258789
580,145968015,0.2874817,-0.6587509,-0.08456063,-0.69010955,18.281635284423828,-4.0646233558654785,-0.5529999732971191,12.116103172302246,-121.94438171386719, -33.7728271484375
581,145984682,0.2891407,-0.6671231,-0.09774918,-0.6795512,8.063432693481445,2.2589948177337646,0.09065905213356018,59.39399337768555,-114.54513549804688, -25.660215377807617
582,146001349,0.29008955,-0.6744067,-0.10918619,-0.6701509,8.12047290802002,-3.886218786239624,-0.7522096037864685,49.34154510498047,-101.14513397216797, -23.950986862182617
583,146018016,0.29511756,-0.6794311,-0.1216438,-0.6606677,9.588159561157227,-0.6903709769248962,-0.8620284795761108,77.53602600097656,-90.09019470214844, -11.470878601074219
584,146034683,0.29765904,-0.6843357,-0.13177815,-0.6524709,11.566205978393555,0.9232828617095947,-0.2671078145503998,54.537445068359375,-80.89897155761719, -14.629643440246582
585,146051350,0.29622218,-0.69092697,-0.13622187,-0.6452257,11.443986892700195,0.9249745607376099,-0.19470623135566711,5.978696346282959,-75.95366668701172, -6.0951151847839355
586,146068017,0.2916219,-0.69856805,-0.1363384,-0.63903946,9.811982154846191,-0.8695675730705261,-0.21904295682907104,-31.369911193847656,-69.74822998046875, -0.7142246961593628
587,146084684,0.2874065,-0.7053276,-0.13695404,-0.63336736,9.479077339172363,-2.0110063552856445,-0.2762041389942169,-26.03984260559082,-64.06665802001953, -3.2708351612091064
588,146101351,0.2849023,-0.7109033,-0.13955173,-0.6276725,9.864360809326172,-1.7691013813018799,-0.337380975484848,-6.7488322257995605,-61.347557067871094, -6.510631561279297
589,146118018,0.2827338,-0.71610975,-0.14235331,-0.6220805,10.268802642822266,-1.9917876720428467,-0.8977651596069336,-3.6013059616088867,-59.34962463378906, -6.62175989151001
590,146134685,0.28100455,-0.7207932,-0.14530161,-0.6167505,10.05814266204834,-2.407228469848633,-1.2550126314163208,-0.05067528039216995,-55.69244384765625, -6.495951175689697
591,146151352,0.2805421,-0.7246947,-0.1490892,-0.6114623,9.672351837158203,-2.3618087768554688,-1.0408074855804443,11.257352828979492,-52.536441802978516, -6.16073751449585
592,146168019,0.28103268,-0.7281162,-0.1532645,-0.6061168,9.276322364807129,-1.9295227527618408,-0.8823842406272888,18.619043350219727,-50.58732986450195, -4.485508441925049
593,146184686,0.28269434,-0.73110485,-0.15782459,-0.60055083,9.351092338562012,-2.1665005683898926,-1.0174299478530884,27.15213966369629,-49.413265228271484, -1.576056718826294
594,146201353,0.2844868,-0.7340231,-0.16228403,-0.5949297,9.715503692626953,-2.096323013305664,-0.9711900949478149,27.589521408081055,-49.07685470581055, -0.5162938237190247
595,146218020,0.285692,-0.7369599,-0.1664387,-0.58954924,10.213800430297852,-1.3880085945129395,-1.220686912536621,23.07223129272461,-48.01538848876953, -1.8447602987289429
596,146234687,0.2865223,-0.7400264,-0.16998044,-0.5842712,9.951552391052246,-1.0659520626068115,-1.1446092128753662,18.315505981445312,-47.266090393066406, -0.31432193517684937
597,146251354,0.28679264,-0.74332076,-0.17258342,-0.57917136,9.655282974243164,-1.1676770448684692,-1.0521118640899658,11.038039207458496,-46.09945297241211, 2.12864351272583
598,146268021,0.28631765,-0.747035,-0.17441694,-0.5740557,9.306309700012207,-1.9140894412994385,-1.0633718967437744,3.3553993701934814,-47.241153717041016, 3.6225802898406982
599,146284688,0.28569546,-0.75084317,-0.1762785,-0.5688048,9.344923973083496,-2.243379592895508,-1.289063572883606,2.6854565143585205,-48.56022262573242, 3.2666006088256836
600,146301355,0.28471828,-0.7547343,-0.17816226,-0.5635334,9.407171249389648,-2.1672658920288086,-1.439951777458191,0.7975927591323853,-49.48545455932617, 1.8917895555496216
601,146318022,0.28269047,-0.75866073,-0.17994812,-0.55869377,9.875374794006348,-1.2540547847747803,-1.5901185274124146,-5.634162425994873,-48.49824523925781, -2.4825830459594727
602,146334689,0.27970424,-0.7628123,-0.18144795,-0.5540391,9.724084854125977,-1.7248039245605469,-1.478011965751648,-12.399730682373047,-49.04769515991211, -4.750711917877197
603,146351356,0.2763779,-0.7669897,-0.1832999,-0.54931164,9.782856941223145,-1.6390447616577148,-1.725032091140747,-12.804221153259277,-50.6523323059082, -7.723687171936035
604,146368023,0.2724131,-0.77133316,-0.1852276,-0.5445432,9.717205047607422,-1.5956100225448608,-1.645532250404358,-16.150981903076172,-52.46391296386719, -10.249931335449219
605,146384690,0.26760304,-0.77593064,-0.18720217,-0.53969973,9.965530395507812,-1.2108713388442993,-1.7633976936340332,-20.840757369995117,-55.00160598754883, -13.200800895690918
606,146401357,0.2610156,-0.781105,-0.18819052,-0.5350984,10.015348434448242,-1.2089289426803589,-1.7427345514297485,-27.215757369995117,-58.2248420715332, -16.33881378173828
607,146418024,0.25362012,-0.7866629,-0.18942975,-0.5300517,10.200278282165527,-1.698145866394043,-2.1880955696105957,-29.317398071289062,-63.81375503540039, -19.91816520690918
608,146434691,0.24601115,-0.79225487,-0.19111997,-0.52467537,10.956442832946777,-2.242499351501465,-1.8242536783218384,-29.097095489501953,-66.59685516357422, -22.530609130859375
609,146451358,0.23777707,-0.79802644,-0.19292966,-0.51903194,11.402628898620605,-2.2815494537353516,-1.7867380380630493,-32.51613998413086,-69.57756042480469, -24.7996768951416
610,146468025,0.22837959,-0.80402803,-0.1946502,-0.51331586,12.151562690734863,-1.629905343055725,-1.4368376731872559,-41.59121322631836,-71.73402404785156, -27.52366065979004
611,146484692,0.21774781,-0.81030935,-0.19690453,-0.5071618,12.380212783813477,-1.4019323587417603,-1.0135736465454102,-49.8660774230957,-76.95945739746094, -32.63929748535156
612,146501359,0.20631047,-0.8168103,-0.20031962,-0.5001291,12.646005630493164,-1.1295716762542725,-0.7859062552452087,-52.243743896484375,-84.98817443847656, -39.2664680480957
613,146518026,0.19367385,-0.82344514,-0.20443414,-0.49258047,13.270706176757812,-0.9605559706687927,-0.2911335527896881,-56.05531692504883,-91.05310821533203, -46.40504837036133
614,146534693,0.17958689,-0.8300434,-0.20931648,-0.48473004,13.963027000427246,-1.0279836654663086,0.39427512884140015,-61.195068359375,-95.7748794555664, -55.318016052246094
615,146551360,0.16413331,-0.8364506,-0.21471466,-0.47676885,14.113303184509277,-1.0143885612487793,1.168357253074646,-66.88212585449219,-98.46458435058594, -62.964603424072266
616,146568027,0.14641714,-0.8429198,-0.21902569,-0.46912283,14.131997108459473,-0.6829346418380737,3.319249153137207,-83.99581909179688,-99.07318878173828, -64.41031646728516
617,146584694,0.12550949,-0.8488004,-0.22243309,-0.46293512,15.563126564025879,-0.7387285232543945,5.45906400680542,-107.01058959960938,-92.75106048583984, -71.846435546875
618,146601361,0.10164423,-0.85420156,-0.22367428,-0.4582336,13.900552749633789,-1.6643024682998657,6.757658958435059,-133.02392578125,-85.37531280517578, -70.6736068725586
619,146618028,0.07476064,-0.85927385,-0.22017397,-0.4556128,11.108489036560059,-1.2633745670318604,4.776918411254883,-168.66835021972656,-73.61508178710938, -54.36262130737305
620,146634695,0.048602264,-0.8636362,-0.21237548,-0.45460662,8.958603858947754,-1.3010458946228027,-1.1723930835723877,-179.9289093017578,-58.66199493408203, -28.6755428314209
621,146651362,0.027653528,-0.86701167,-0.20887801,-0.4515487,10.8718843460083,1.9757417440414429,-7.06955099105835,-132.2212371826172,-61.617942810058594, -38.756465911865234
622,146668029,0.0064268447,-0.8701031,-0.20615116,-0.44763973,15.147359848022461,-0.3675069808959961,-5.858678340911865,-130.2007598876953,-66.33304595947266, -44.49011993408203
623,146684696,-0.011477283,-0.8737018,-0.20483235,-0.44108617,13.324430465698242,-0.8335562944412231,-5.523038864135742,-102.27227020263672,-79.09658813476562, -41.919776916503906
624,146701363,-0.032039154,-0.8776016,-0.20073019,-0.43416163,11.8485689163208,1.2826627492904663,-5.64954137802124,-126.15635681152344,-86.22262573242188, -32.93790054321289
625,146718030,-0.055200115,-0.87947804,-0.19360425,-0.43126428,12.213608741760254,0.6591203212738037,-1.8587815761566162,-156.8804473876953,-60.1389274597168, -24.412626266479492
626,146734697,-0.07469853,-0.8793824,-0.18396582,-0.4327395,8.728975296020508,-5.0011491775512695,2.218137741088867,-148.7533721923828,-23.972368240356445, 0.6017992496490479
627,146751364,-0.085342094,-0.8783769,-0.17335711,-0.43717054,4.131596565246582,-5.5687174797058105,2.504136323928833,-102.34657287597656,7.25120735168457, 33.06605911254883
628,146768031,-0.086181276,-0.8766426,-0.16369878,-0.44415483,4.259740829467773,-4.6146087646484375,1.5638715028762817,-43.796836853027344,37.0819206237793, 57.33924102783203
629,146784698,-0.08052509,-0.8735647,-0.1556993,-0.45404646,5.02066707611084,-2.4243741035461426,0.9002283215522766,-3.6920862197875977,66.98097229003906, 67.32731628417969
630,146801365,-0.072658375,-0.86838716,-0.14764103,-0.46778938,6.0200324058532715,-0.21286609768867493,0.05046761780977249,4.093969821929932,98.98085021972656, 74.43470764160156
631,146818032,-0.06556509,-0.86098033,-0.13642226,-0.4855957,7.029292106628418,-0.35725855827331543,-0.38849759101867676,-15.933019638061523,128.03463745117188, 90.57392120361328
632,146834699,-0.056859825,-0.8521934,-0.12241764,-0.505517,7.082222938537598,-2.496201276779175,-0.6930906772613525,-18.307605743408203,145.40853881835938, 112.08938598632812
633,146851366,-0.043282438,-0.84237486,-0.108019434,-0.5261779,8.336512565612793,-1.5359487533569336,-0.4991328716278076,7.823395252227783,157.26866149902344, 130.7115478515625
634,146868033,-0.02654249,-0.83110285,-0.09404762,-0.5474656,10.277031898498535,-0.19304955005645752,-0.6401429772377014,26.769166946411133,168.6170196533203, 138.7682342529297
635,146884700,-0.0070866556,-0.8178059,-0.0813895,-0.56966597,11.159529685974121,1.2036274671554565,-0.9581729173660278,46.269554138183594,183.4265594482422, 140.3408660888672
636,146901367,0.012980404,-0.80217826,-0.06887031,-0.5929573,10.77913761138916,1.9649890661239624,-1.1383154392242432,49.52742004394531,199.02073669433594, 140.7296600341797
637,146918034,0.03331563,-0.7848934,-0.055901308,-0.6162042,11.27176284790039,0.6147844195365906,-1.7647294998168945,49.347068786621094,205.69131469726562, 143.5668182373047
638,146934701,0.055841614,-0.7657168,-0.04281162,-0.63931763,12.716585159301758,-2.2446811199188232,-2.1953465938568115,79.06777954101562,213.39476013183594, 149.4654541015625
639,146951368,0.0835131,-0.7446034,-0.032808032,-0.6614494,13.665821075439453,-3.3922476768493652,-3.0985939502716064,118.18180847167969,216.4113006591797, 157.15525817871094
640,146968035,0.11302699,-0.7216403,-0.02310704,-0.6825879,15.852249145507812,-1.877911925315857,-4.339596271514893,114.9792251586914,221.1688995361328, 166.01239013671875
641,146984702,0.14036162,-0.69685125,-0.010234609,-0.7032726,16.462064743041992,-1.4359197616577148,-6.217898368835449,90.76502990722656,229.67620849609375, 171.62521362304688
642,147001369,0.16678277,-0.6728905,0.0030701954,-0.72068894,15.609709739685059,-3.307898759841919,-9.465204238891602,83.72699737548828,210.47190856933594, 172.54075622558594
643,147018036,0.19700329,-0.6508729,0.010337124,-0.73310804,13.051212310791016,-1.9360820055007935,-11.517743110656738,128.9264373779297,170.88148498535156, 169.15695190429688
644,147034703,0.22888115,-0.630677,0.01073992,-0.7414477,13.178864479064941,2.918459177017212,-11.931746482849121,168.23825073242188,134.22177124023438, 152.24826049804688
645,147051370,0.2560369,-0.6149005,0.00992404,-0.7458178,12.789681434631348,4.616102695465088,-11.880558013916016,146.75762939453125,93.11172485351562, 128.93312072753906
646,147068037,0.27772218,-0.60371137,0.006972208,-0.7472313,10.930885314941406,7.025769233703613,-13.164255142211914,126.33533477783203,53.917938232421875, 96.88078308105469
647,147084704,0.29121205,-0.5991755,0.0037998178,-0.74576795,8.853225708007812,6.632140636444092,-13.602662086486816,80.64434814453125,7.999943733215332, 59.19117736816406
648,147101371,0.29743412,-0.601149,-0.001982588,-0.74172026,8.502201080322266,4.841092586517334,-12.586073875427246,51.035465240478516,-40.82839584350586, 16.31496810913086
649,147118038,0.2975962,-0.60832834,-0.010761414,-0.735702,9.067821502685547,3.8387134075164795,-11.112857818603516,30.70091438293457,-81.52190399169922, -22.768390655517578
650,147134705,0.2917926,-0.61972296,-0.019665208,-0.72829527,10.335083961486816,2.7198054790496826,-7.520944118499756,-2.099285125732422,-109.16824340820312, -50.224937438964844
651,147151372,0.2828886,-0.628529,-0.02296493,-0.7241532,17.250953674316406,-6.6654863357543945,15.829495429992676,-38.59685134887695,-71.34306335449219, -48.68642044067383
652,147168039,0.28329316,-0.6350842,-0.031091223,-0.71794605,9.854836463928223,-8.32188606262207,11.090204238891602,30.299999237060547,-77.17513275146484, -19.56401824951172
653,147184706,0.28612795,-0.6414116,-0.04096361,-0.7106645,7.341646194458008,6.6584978103637695,-4.049726963043213,50.17669677734375,-83.77688598632812, -13.241873741149902
654,147201373,0.28138715,-0.64779687,-0.05285055,-0.7059656,15.263007164001465,3.8434669971466064,-6.22645378112793,25.775522232055664,-78.69316101074219, -64.0931167602539
655,147218040,0.27887866,-0.65790874,-0.062462986,-0.6967648,20.000131607055664,-4.264786720275879,-2.2498605251312256,19.124073028564453,-111.5014419555664, -32.95634460449219
656,147234707,0.28024352,-0.6669931,-0.07421849,-0.68634945,9.558024406433105,2.8776557445526123,0.21039433777332306,49.43094253540039,-114.45829772949219, -22.20865821838379
657,147251374,0.27786982,-0.67565495,-0.08275089,-0.6778136,7.96780252456665,-1.739617109298706,0.23641034960746765,16.93291473388672,-99.54293060302734, -28.852764129638672
658,147268041,0.27965927,-0.6822347,-0.09251991,-0.66916853,9.85181999206543,-1.0244712829589844,-0.24195288121700287,46.08049011230469,-90.35276794433594, -16.193744659423828
659,147284708,0.27939874,-0.6886312,-0.0999685,-0.66161156,11.378853797912598,-0.017702842131257057,-0.4646284580230713,25.456003189086914,-81.251220703125, -16.953508377075195
660,147301375,0.27629632,-0.6957994,-0.10280807,-0.65494615,11.366291046142578,0.7414124011993408,-0.38295242190361023,-11.054544448852539,-73.6448745727539, -9.219013214111328
661,147318042,0.26957285,-0.7038168,-0.10039059,-0.649534,9.895155906677246,0.005969312973320484,-0.05417315289378166,-54.541778564453125,-64.06489562988281, -2.1153035163879395
662,147334709,0.26158938,-0.7119328,-0.09622385,-0.64456487,9.312942504882812,-1.6264674663543701,0.13192184269428253,-68.93359375,-60.022125244140625, -0.002766252728179097
663,147351376,0.25467324,-0.7191944,-0.092914976,-0.63974035,9.559889793395996,-3.1438405513763428,-0.9938468337059021,-58.46435546875,-56.40176773071289, -0.2971526086330414
664,147368043,0.24954833,-0.7250741,-0.09133276,-0.63533586,10.038103103637695,-3.73698091506958,-1.4052945375442505,-39.85702133178711,-50.14455795288086, -2.598215103149414
665,147384710,0.2455816,-0.7300663,-0.09131633,-0.63115317,10.00166130065918,-2.468733310699463,-0.7827988862991333,-25.857940673828125,-47.132991790771484, -6.315401077270508
666,147401377,0.24172734,-0.7348227,-0.091802634,-0.62703747,9.748781204223633,-1.5600085258483887,-0.3231349587440491,-22.756694793701172,-46.57373046875, -8.626582145690918
667,147418044,0.23824291,-0.739397,-0.0920946,-0.6229374,9.149259567260742,-2.301023483276367,-0.7813644409179688,-21.434782028198242,-45.18276596069336, -6.193539619445801
668,147434711,0.23528518,-0.7436336,-0.09255614,-0.61893743,9.237710952758789,-2.816971778869629,-1.1166021823883057,-17.542593002319336,-43.19420623779297, -5.194551944732666
669,147451378,0.23300977,-0.74757457,-0.09373081,-0.6148606,9.558686256408691,-2.8234012126922607,-1.17099928855896,-10.494187355041504,-43.06662368774414, -6.025853157043457
670,147468045,0.23137476,-0.7512392,-0.09592663,-0.6106584,9.837435722351074,-1.9056531190872192,-1.0149948596954346,-2.3664634227752686,-43.78535079956055, -8.569055557250977
671,147484712,0.22935942,-0.7550022,-0.0983778,-0.6063728,9.879342079162598,-1.1587133407592773,-0.7873656153678894,-3.362730026245117,-45.30880355834961, -11.298219680786133
672,147501379,0.22720058,-0.75873506,-0.10106334,-0.60206926,9.64275074005127,-0.957918107509613,-0.9176263213157654,-3.072690725326538,-45.76909637451172, -13.10411262512207
673,147518046,0.22449434,-0.76249176,-0.10322639,-0.5979574,9.532855987548828,-1.0652905702590942,-1.1407524347305298,-8.26241397857666,-44.45802688598633, -12.925395965576172
674,147534713,0.22148052,-0.7664166,-0.10464423,-0.5938028,9.370386123657227,-1.9487735033035278,-1.589066743850708,-13.16915512084961,-44.467559814453125, -10.099065780639648
675,147551380,0.21921241,-0.77024317,-0.10635299,-0.58937293,9.465692520141602,-2.120922803878784,-1.684519648551941,-7.706459045410156,-45.44025802612305, -8.252845764160156
676,147568047,0.21787922,-0.77391654,-0.10897279,-0.5845571,9.547532081604004,-1.8929622173309326,-1.6477086544036865,1.4463162422180176,-47.57028579711914, -8.837326049804688
677,147584714,0.21693468,-0.7774911,-0.11212932,-0.5795463,9.33140754699707,-2.3469080924987793,-1.6829407215118408,11.218899726867676,-49.98121643066406, -10.974264144897461
678,147601381,0.21793768,-0.7807379,-0.117699504,-0.573671,9.089728355407715,-3.1350739002227783,-1.81515371799469,27.788707733154297,-54.323974609375, -14.19360065460205
679,147618048,0.22032146,-0.7836042,-0.12526104,-0.5672149,9.285914421081543,-2.353327989578247,-1.9364296197891235,41.384037017822266,-57.195556640625, -18.30710792541504
680,147634715,0.22229934,-0.7864696,-0.13342005,-0.5605782,9.517236709594727,-1.5449427366256714,-1.8146889209747314,39.774269104003906,-59.003360748291016, -22.37158203125
681,147651382,0.2235501,-0.78953475,-0.14156277,-0.5537334,9.906440734863281,-1.008766770362854,-1.9209462404251099,35.635162353515625,-61.56694412231445, -24.52781105041504
682,147668049,0.22370711,-0.79292065,-0.14920254,-0.54678214,10.1719970703125,-1.0248966217041016,-2.054453134536743,25.988122940063477,-63.38264083862305, -25.037931442260742
683,147684716,0.22227381,-0.7967887,-0.15576023,-0.5398713,10.3772554397583,-1.0329705476760864,-2.3455989360809326,11.990890502929688,-64.88704681396484, -24.450565338134766
