PacketCounter,SampleTimeFine,Quat_W,Quat_X,Quat_Y,Quat_Z,Acc_X,Acc_Y,Acc_Z,Gyr_X,Gyr_Y,Gyr_Z 
1,400069186,0.20136239,-0.72279954,-0.19387557,-0.6320018,2.9798355102539062,0.16792765259742737,0.3391495943069458,-1.1494349241256714,3.5242834091186523, -1.0983818769454956
2,400085853,0.20114006,-0.7230246,-0.19411774,-0.631741,9.785358428955078,-0.46005791425704956,-1.1727803945541382,-0.12333795428276062,-3.6291403770446777, -0.3704749047756195
3,400102520,0.20116527,-0.723225,-0.19440642,-0.6314147,9.790059089660645,-0.4438473880290985,-1.1885992288589478,0.20821204781532288,-3.8126940727233887, -0.44079458713531494
4,400119187,0.20074545,-0.7235964,-0.19422959,-0.631177,9.815705299377441,-0.4240350127220154,-1.1800899505615234,0.4113592505455017,-3.960249185562134, -0.3511117100715637
5,400135854,0.2004449,-0.72389174,-0.19425966,-0.6309247,9.811118125915527,-0.40669679641723633,-1.199266791343689,0.6169522404670715,-4.063723564147949, -0.2791783809661865
6,400152521,0.20032626,-0.7241415,-0.19455391,-0.6305849,9.784026145935059,-0.41883912682533264,-1.2158349752426147,0.9939072728157043,-4.157670974731445, -0.16018182039260864
7,400169188,0.20029615,-0.72440517,-0.19491905,-0.630179,9.791114807128906,-0.436477392911911,-1.1972484588623047,1.8634331226348877,-4.263157844543457, -0.17981399595737457
8,400185855,0.20032477,-0.7246722,-0.19527365,-0.62975264,9.773824691772461,-0.434899240732193,-1.2010951042175293,2.2756309509277344,-4.4338531494140625, -0.17749600112438202
9,400202522,0.20051211,-0.7249049,-0.19574183,-0.62927973,9.771815299987793,-0.41482269763946533,-1.2039356231689453,2.3253962993621826,-4.468263626098633, -0.05076437443494797
10,400219189,0.20052181,-0.72518796,-0.19599853,-0.62887037,9.761490821838379,-0.4055907428264618,-1.2150918245315552,1.6543564796447754,-4.423198699951172, 0.060746930539608
11,400235856,0.20059712,-0.7254494,-0.19627967,-0.6284573,9.752642631530762,-0.42956799268722534,-1.221604347229004,1.7649906873703003,-4.265757083892822, 0.28079846501350403
12,400252523,0.20072193,-0.7256992,-0.19657701,-0.6280358,9.754982948303223,-0.44190892577171326,-1.2101293802261353,2.3294689655303955,-4.202839374542236, 0.28492212295532227
13,400269190,0.20092405,-0.72592616,-0.19694574,-0.62759316,9.78740406036377,-0.44158101081848145,-1.2213068008422852,2.403911828994751,-4.219128608703613, 0.24255867302417755
14,400285857,0.20096116,-0.7261817,-0.19709887,-0.6272376,9.798604011535645,-0.42746344208717346,-1.200761318206787,1.5731767416000366,-3.901390552520752, 0.3169763684272766
15,400302524,0.2009093,-0.7264387,-0.19717497,-0.62693256,9.753246307373047,-0.42518144845962524,-1.1990740299224854,0.6236245036125183,-3.7441420555114746, 0.2595527470111847
16,400319191,0.20085841,-0.7266854,-0.19720526,-0.62665325,9.752263069152832,-0.4326987564563751,-1.2228120565414429,0.8105971217155457,-3.571255683898926, 0.38568243384361267
17,400335858,0.20087282,-0.7269227,-0.1972987,-0.62634414,9.763323783874512,-0.45633503794670105,-1.220932960510254,0.924893856048584,-3.640960931777954, 0.43453869223594666
18,400352525,0.20086715,-0.72717094,-0.19736749,-0.62603605,9.764735221862793,-0.4499022662639618,-1.200360655784607,1.0653283596038818,-3.691417694091797, 0.38127708435058594
19,400369192,0.2008658,-0.72742265,-0.19742954,-0.62572443,9.798507690429688,-0.44573646783828735,-1.191737413406372,0.8222252726554871,-3.7312068939208984, 0.4476267397403717
20,400385859,0.20081507,-0.72766364,-0.19746193,-0.6254502,9.793012619018555,-0.43868017196655273,-1.219573974609375,0.08860073983669281,-3.5525457859039307, 0.3508619964122772
21,400402526,0.20073414,-0.7279287,-0.19746321,-0.62516725,9.796913146972656,-0.4775298535823822,-1.1968389749526978,0.4412364065647125,-3.7249064445495605, 0.3319854438304901
22,400419193,0.20070323,-0.72820085,-0.19747545,-0.62485623,9.797006607055664,-0.4521558880805969,-1.2082370519638062,0.9741343855857849,-3.877469062805176, 0.46812981367111206
23,400435860,0.20062852,-0.72849286,-0.19743742,-0.62455183,9.791654586791992,-0.4216351807117462,-1.2300786972045898,1.2870700359344482,-3.9640133380889893, 0.433616578578949
24,400452527,0.20067182,-0.7287457,-0.19753967,-0.6242105,9.778916358947754,-0.44011273980140686,-1.250483512878418,1.1936990022659302,-3.9347379207611084, 0.45838409662246704
25,400469194,0.200726,-0.728976,-0.19762242,-0.62389797,9.770227432250977,-0.42933204770088196,-1.2702162265777588,0.6939696669578552,-3.600313663482666, 0.6039922833442688
26,400485861,0.2007324,-0.7292139,-0.19760309,-0.62362385,9.765329360961914,-0.4430951476097107,-1.277637004852295,0.562896728515625,-3.353227138519287, 0.7955111861228943
27,400502528,0.20082712,-0.7294074,-0.19764617,-0.6233535,9.755581855773926,-0.4329264461994171,-1.282884955406189,1.016971468925476,-3.0594751834869385, 0.8437398672103882
28,400519195,0.20096977,-0.7295861,-0.19770177,-0.62308073,9.785148620605469,-0.4336946904659271,-1.2719426155090332,1.1086008548736572,-2.914353609085083, 1.011375069618225
29,400535862,0.20102318,-0.72978014,-0.19765016,-0.6228526,9.7731351852417,-0.4373934268951416,-1.2432715892791748,0.6860425472259521,-2.7379465103149414, 1.0547118186950684
30,400552529,0.20103352,-0.72999483,-0.19759344,-0.6226157,9.748919486999512,-0.4635484218597412,-1.2138774394989014,0.13278263807296753,-2.908860206604004, 0.9871326684951782
31,400569196,0.20098345,-0.7302431,-0.19747184,-0.6223791,9.765539169311523,-0.4670722484588623,-1.2238540649414062,0.15288859605789185,-3.089442014694214, 0.9958665370941162
32,400585863,0.20100665,-0.7304873,-0.19745733,-0.6220895,9.75047492980957,-0.48463931679725647,-1.218774437904358,0.5863195061683655,-3.372769832611084, 0.9006385803222656
33,400602530,0.20103368,-0.7307468,-0.19744045,-0.62178135,9.7670259475708,-0.46681705117225647,-1.210140585899353,0.9076307415962219,-3.546769618988037, 0.916428804397583
34,400619197,0.20102988,-0.7309959,-0.19742943,-0.62149316,9.763711929321289,-0.4978654086589813,-1.2332477569580078,0.503385603427887,-3.4528098106384277, 0.7486656308174133
35,400635864,0.20106657,-0.7312243,-0.19746003,-0.6212029,9.795073509216309,-0.4802761375904083,-1.2530872821807861,0.678281843662262,-3.368466854095459, 0.709490954875946
36,400652531,0.20105328,-0.7314656,-0.19742537,-0.620934,9.807140350341797,-0.450192391872406,-1.2579402923583984,0.6940080523490906,-3.318714141845703, 0.7196848392486572
37,400669198,0.20115678,-0.7316807,-0.19750959,-0.62062025,9.793391227722168,-0.4585379660129547,-1.2278233766555786,1.2939729690551758,-3.4066684246063232, 0.7458098530769348
38,400685865,0.20128378,-0.7318914,-0.19759646,-0.6203029,9.79111385345459,-0.4714074730873108,-1.2321614027023315,1.6602602005004883,-3.396897792816162, 0.8028621077537537
39,400702532,0.2014413,-0.7321048,-0.19769676,-0.61996794,9.747376441955566,-0.4931933283805847,-1.2164205312728882,1.711332082748413,-3.4717507362365723, 0.9224607348442078
40,400719199,0.20153324,-0.7323442,-0.19773366,-0.61964333,9.773366928100586,-0.47591885924339294,-1.2179594039916992,1.4887832403182983,-3.5625863075256348, 0.9115496873855591
41,400735866,0.2015599,-0.7326139,-0.19771914,-0.61932045,9.773170471191406,-0.4667581021785736,-1.2228484153747559,1.0173814296722412,-3.716031551361084, 0.9130479693412781
42,400752533,0.2016025,-0.7328775,-0.19773452,-0.6189897,9.768021583557129,-0.4748629927635193,-1.243926763534546,0.5210199356079102,-3.720027208328247, 0.9506217837333679
43,400769200,0.20168288,-0.7331361,-0.1977741,-0.6186446,9.756708145141602,-0.5054284930229187,-1.2310463190078735,0.8058077096939087,-3.753720998764038, 1.0106068849563599
44,400785867,0.20178731,-0.73339593,-0.1978388,-0.6182818,9.774340629577637,-0.49041205644607544,-1.2442024946212769,1.1143252849578857,-3.859372854232788, 0.9978130459785461
45,400802534,0.2017767,-0.73367244,-0.19782007,-0.6179631,9.763582229614258,-0.49730631709098816,-1.2436027526855469,0.5634090900421143,-3.7770285606384277, 0.8174358606338501
46,400819201,0.20161659,-0.7339635,-0.19762345,-0.6177326,9.751503944396973,-0.5202837586402893,-1.2672909498214722,-0.5245096683502197,-3.3839879035949707, 0.8861289024353027
47,400835868,0.20154063,-0.7341909,-0.19754873,-0.61751115,9.740105628967285,-0.516288161277771,-1.290561318397522,-0.6121562719345093,-3.063124895095825, 0.6986953020095825
48,400852535,0.20146197,-0.73441964,-0.19745088,-0.6172958,9.747900009155273,-0.5185794830322266,-1.308750033378601,-0.5650545954704285,-3.01375675201416, 0.7661462426185608
49,400869202,0.20138638,-0.7346211,-0.19738528,-0.6171018,9.776697158813477,-0.511433482170105,-1.2802482843399048,-0.5831755995750427,-2.8130557537078857, 0.5741662979125977
50,400885869,0.20127107,-0.7348054,-0.19726922,-0.616957,9.76861572265625,-0.5046935081481934,-1.2770836353302002,-0.4544717073440552,-2.507073402404785, 0.4728296101093292
51,400902536,0.20119993,-0.7349559,-0.19721712,-0.6168176,9.784310340881348,-0.4928475320339203,-1.2704070806503296,-0.6169331669807434,-2.3290908336639404, 0.3962476849555969
52,400919203,0.20104805,-0.73510367,-0.19703041,-0.61675066,9.775870323181152,-0.4986173212528229,-1.2678481340408325,-0.8726886510848999,-1.9223612546920776, 0.5003377199172974
53,400935870,0.20101951,-0.7352034,-0.1969518,-0.6166664,9.766554832458496,-0.5231781005859375,-1.2674275636672974,-0.6438776254653931,-1.7414329051971436, 0.5902253985404968
54,400952537,0.20098072,-0.7353049,-0.19686437,-0.6165857,9.754448890686035,-0.4977495074272156,-1.2607698440551758,-0.03686947375535965,-1.7745115756988525, 0.47122877836227417
55,400969204,0.20101117,-0.7353948,-0.19683151,-0.6164791,9.773111343383789,-0.4802965223789215,-1.2343984842300415,0.49444669485092163,-1.8363279104232788, 0.5273975133895874
56,400985871,0.20103762,-0.7354908,-0.19678351,-0.61637133,9.805044174194336,-0.48265308141708374,-1.2214128971099854,0.4028685390949249,-1.862504243850708, 0.6022378206253052
57,401002538,0.20100704,-0.7355969,-0.19664727,-0.61629814,9.780280113220215,-0.5040515661239624,-1.2079333066940308,0.16933195292949677,-1.7238627672195435, 0.6971328258514404
58,401019205,0.20102137,-0.73568255,-0.19655974,-0.61621904,9.731807708740234,-0.5281082391738892,-1.2335516214370728,0.09061133116483688,-1.6566166877746582, 0.7128462791442871
59,401035872,0.20108327,-0.7357576,-0.19646634,-0.61613905,9.744855880737305,-0.5460971593856812,-1.1849453449249268,0.7503558993339539,-1.5744765996932983, 0.8581213355064392
60,401052539,0.20114538,-0.73583466,-0.19638357,-0.6160533,9.765812873840332,-0.5003805160522461,-1.1827757358551025,0.3745664954185486,-1.6169679164886475, 0.8807629942893982
61,401069206,0.20112938,-0.73592055,-0.19622879,-0.61600506,9.783973693847656,-0.5033337473869324,-1.214171290397644,-0.10665129125118256,-1.5012885332107544, 0.830639123916626
62,401085873,0.20111881,-0.7359941,-0.19606109,-0.615974,9.770156860351562,-0.5050345659255981,-1.2127822637557983,-0.26930472254753113,-1.3398644924163818, 0.9020729064941406
63,401102540,0.20112503,-0.7360641,-0.19590798,-0.61593723,9.775235176086426,-0.5241783857345581,-1.1972596645355225,-0.1221981942653656,-1.3600088357925415, 0.9068111181259155
64,401119207,0.20115437,-0.73613536,-0.19582208,-0.61586976,9.772626876831055,-0.5638480186462402,-1.1942275762557983,0.3003281056880951,-1.5929434299468994, 0.7120139002799988
65,401135874,0.2011773,-0.7362353,-0.19575204,-0.61576504,9.774542808532715,-0.5331681370735168,-1.1709704399108887,0.42165547609329224,-1.9492546319961548, 0.6773086786270142
66,401152541,0.20116794,-0.73637587,-0.19571431,-0.61561185,9.76539421081543,-0.5165733695030212,-1.161379098892212,0.35507524013519287,-2.4652349948883057, 0.5057035088539124
67,401169208,0.20117056,-0.73653114,-0.19570051,-0.6154297,9.774887084960938,-0.5363886952400208,-1.1692456007003784,0.5811585783958435,-2.7095165252685547, 0.4894651174545288
68,401185875,0.20120198,-0.73668534,-0.1957,-0.6152351,9.759329795837402,-0.5384138822555542,-1.1725550889968872,0.8544589281082153,-2.7650060653686523, 0.5506794452667236
69,401202542,0.20124128,-0.73683137,-0.19570974,-0.61504424,9.772126197814941,-0.5156553387641907,-1.188910722732544,0.9601239562034607,-2.7301347255706787, 0.5125293731689453
70,401219209,0.20127176,-0.73699665,-0.19574377,-0.61482537,9.766995429992676,-0.5353674292564392,-1.1674023866653442,0.9919350147247314,-3.0080835819244385, 0.4253949224948883
71,401235876,0.20129406,-0.7371864,-0.19583112,-0.6145627,9.787921905517578,-0.5425299406051636,-1.1478163003921509,1.1039009094238281,-3.4275429248809814, 0.23054631054401398
72,401252543,0.2013102,-0.7373867,-0.19592427,-0.6142872,9.774470329284668,-0.5312705039978027,-1.167352318763733,1.0564405918121338,-3.5691170692443848, 0.21409015357494354
73,401269210,0.20127428,-0.73760414,-0.19595955,-0.6140267,9.791007995605469,-0.527142345905304,-1.1566389799118042,0.8945683836936951,-3.5932443141937256, 0.22492435574531555
74,401285877,0.20126957,-0.7378057,-0.19602358,-0.61376566,9.763470649719238,-0.5502222180366516,-1.182078242301941,1.0144613981246948,-3.5337586402893066, 0.2226192057132721
75,401302544,0.20130827,-0.73799807,-0.19614743,-0.61348206,9.764220237731934,-0.543677806854248,-1.2151457071304321,1.427402377128601,-3.6418192386627197, 0.13750819861888885
76,401319211,0.20135218,-0.7382018,-0.19627596,-0.6131812,9.77027702331543,-0.5237092971801758,-1.1761902570724487,1.5045732259750366,-3.7895395755767822, 0.17051014304161072
77,401335878,0.20136046,-0.7384207,-0.19640249,-0.6128744,9.788004875183105,-0.5146394371986389,-1.169264554977417,1.1570472717285156,-3.9369919300079346, 0.08619312942028046
78,401352545,0.20132545,-0.7386423,-0.1964867,-0.61259204,9.796795845031738,-0.5367148518562317,-1.1964558362960815,0.8288207054138184,-3.8477325439453125, 0.07302821427583694
79,401369212,0.20121156,-0.7388605,-0.19645405,-0.61237633,9.762557983398438,-0.5356252193450928,-1.215537667274475,0.1685379594564438,-3.4743239879608154, 0.18307317793369293
80,401385879,0.20111252,-0.7390512,-0.19646087,-0.61217666,9.75790786743164,-0.5646700859069824,-1.235821008682251,0.11952804774045944,-3.3076236248016357, 0.039642054587602615
81,401402546,0.20103386,-0.7392192,-0.19645786,-0.6120009,9.772233963012695,-0.5485042333602905,-1.1844127178192139,0.5672637224197388,-3.0840508937835693, 0.04179352521896362
82,401419213,0.20101365,-0.7393694,-0.1965013,-0.61181194,9.780977249145508,-0.527313768863678,-1.1914390325546265,0.7134354114532471,-3.0569655895233154, 0.11345785856246948
83,401435880,0.20089544,-0.7395286,-0.19645366,-0.6116736,9.788588523864746,-0.520975649356842,-1.1874572038650513,-0.14389215409755707,-2.8671882152557373, 0.08916421234607697
84,401452547,0.20069025,-0.7396776,-0.1962775,-0.61161727,9.797300338745117,-0.524944007396698,-1.212827205657959,-1.158539056777954,-2.370147705078125, 0.24053525924682617
85,401469214,0.20049562,-0.739807,-0.19608805,-0.61158526,9.775840759277344,-0.5444226861000061,-1.2013589143753052,-1.2806862592697144,-2.1406967639923096, 0.3139925003051758
86,401485881,0.2003209,-0.73992056,-0.19589473,-0.61156714,9.761585235595703,-0.5400747060775757,-1.2031123638153076,-0.909135639667511,-2.0052309036254883, 0.32631221413612366
87,401502548,0.20017235,-0.74003965,-0.19573672,-0.6115223,9.759279251098633,-0.5248193144798279,-1.1891179084777832,-0.7495812773704529,-2.1858773231506348, 0.3274775743484497
88,401519215,0.20001529,-0.74017394,-0.19560601,-0.611453,9.773438453674316,-0.5129806399345398,-1.186568021774292,-0.7552544474601746,-2.437201976776123, 0.22421996295452118
89,401535882,0.19985929,-0.7403094,-0.1955153,-0.61136895,9.773455619812012,-0.5233097076416016,-1.2087570428848267,-0.6972929239273071,-2.5815935134887695, 0.07310504466295242
90,401552549,0.19970888,-0.7404554,-0.19544975,-0.6112624,9.775186538696289,-0.5440775156021118,-1.1926019191741943,-0.29096025228500366,-2.799647092819214, -0.030351046472787857
91,401569216,0.19965021,-0.7405963,-0.19550739,-0.61109257,9.776837348937988,-0.5393656492233276,-1.183326005935669,0.5775215029716492,-3.1526029109954834, -0.1548287570476532
92,401585883,0.19958681,-0.7407477,-0.19557247,-0.61090887,9.781901359558105,-0.5447049140930176,-1.1873748302459717,0.9039809703826904,-3.322543144226074, -0.2355215698480606
93,401602550,0.19948407,-0.74091846,-0.19564983,-0.61071056,9.771032333374023,-0.5256254076957703,-1.1491570472717285,0.6073988080024719,-3.559704542160034, -0.3919127285480499
94,401619217,0.19936901,-0.7410924,-0.19571014,-0.6105177,9.771136283874512,-0.5334019660949707,-1.1881428956985474,0.3596087396144867,-3.5556063652038574, -0.3403671681880951
95,401635884,0.19922893,-0.7412515,-0.19577377,-0.6103496,9.766886711120605,-0.5272966027259827,-1.1929564476013184,0.20178326964378357,-3.4244439601898193, -0.5099616646766663
96,401652551,0.19912083,-0.74142665,-0.19589026,-0.61013496,9.776069641113281,-0.5098465085029602,-1.1851927042007446,0.6432054042816162,-3.778949499130249, -0.5618658661842346
97,401669218,0.1990185,-0.741601,-0.19604178,-0.60990775,9.782161712646484,-0.5181688666343689,-1.1823734045028687,0.8320350646972656,-3.90116024017334, -0.6966526508331299
98,401685885,0.19892332,-0.74178594,-0.19619124,-0.60966575,9.785890579223633,-0.5201632976531982,-1.1636652946472168,1.147608995437622,-4.047946453094482, -0.6711039543151855
99,401702552,0.19883083,-0.74196446,-0.19634683,-0.6094286,9.772337913513184,-0.5028978586196899,-1.2044947147369385,1.0423665046691895,-4.015917778015137, -0.678557276725769
100,401719219,0.19873692,-0.7421406,-0.19649577,-0.6091967,9.770551681518555,-0.5217934250831604,-1.2131351232528687,0.8959129452705383,-3.9873082637786865, -0.6383196711540222
101,401735886,0.19860575,-0.74230945,-0.19660993,-0.6089968,9.7717924118042,-0.504962682723999,-1.1977918148040771,0.7618434429168701,-3.8299829959869385, -0.7133010029792786
102,401752553,0.1984806,-0.7424798,-0.19671172,-0.60879713,9.770613670349121,-0.5227593183517456,-1.2046024799346924,0.769322395324707,-3.8346574306488037, -0.6269477009773254
103,401769220,0.1984215,-0.74263245,-0.19687444,-0.60857755,9.777741432189941,-0.5126140117645264,-1.2103230953216553,1.2499443292617798,-3.869387149810791, -0.6274982690811157
104,401785887,0.19833495,-0.74278474,-0.19700304,-0.6083782,9.76781940460205,-0.49005943536758423,-1.220572590827942,0.9280697703361511,-3.777412176132202, -0.5927419066429138
105,401802554,0.19819333,-0.7429543,-0.19708557,-0.60819054,9.789314270019531,-0.49411317706108093,-1.2131736278533936,0.453530490398407,-3.8245656490325928, -0.5853399038314819
106,401819221,0.19806707,-0.74311954,-0.19720465,-0.6079911,9.770878791809082,-0.5238742232322693,-1.2415344715118408,0.6376602649688721,-3.915849447250366, -0.6820791959762573
107,401835888,0.19791004,-0.74327487,-0.19727987,-0.607828,9.780802726745605,-0.5000604391098022,-1.2311434745788574,0.4212072789669037,-3.7003438472747803, -0.6799275875091553
108,401852555,0.19774017,-0.74340963,-0.19730973,-0.60770893,9.776371002197266,-0.4869329631328583,-1.2229615449905396,0.051769666373729706,-3.3629984855651855, -0.5726487040519714
109,401869222,0.19756812,-0.74352187,-0.19732335,-0.60762304,9.789373397827148,-0.5159897208213806,-1.2249494791030884,-0.1403575986623764,-3.098355770111084, -0.5536954402923584
110,401885889,0.19740587,-0.7436262,-0.19734968,-0.60753965,9.75490951538086,-0.49086084961891174,-1.2397541999816895,0.18176691234111786,-3.091068744659424, -0.6321982145309448
111,401902556,0.19721535,-0.74374795,-0.19737066,-0.60744566,9.754165649414062,-0.4945608377456665,-1.2225439548492432,-0.0830235630273819,-3.2669126987457275, -0.6663400530815125
112,401919223,0.19704627,-0.7438676,-0.19740586,-0.60734236,9.754742622375488,-0.5001585483551025,-1.2189702987670898,0.07279769331216812,-3.316831588745117, -0.6334916949272156
113,401935890,0.19688465,-0.7439879,-0.1974882,-0.60722065,9.793512344360352,-0.5059320330619812,-1.2284331321716309,0.2093198001384735,-3.485337972640991, -0.7936095595359802
114,401952557,0.19673446,-0.7441188,-0.19756326,-0.6070845,9.779021263122559,-0.4751448631286621,-1.207810401916504,0.34230732917785645,-3.607715368270874, -0.69382244348526
115,401969224,0.19654323,-0.74425274,-0.19758628,-0.60697484,9.784751892089844,-0.4780479073524475,-1.2328616380691528,-0.05808960646390915,-3.4991044998168945, -0.6410474181175232
116,401985891,0.19637735,-0.74435556,-0.19761863,-0.6068918,9.764286041259766,-0.5010471940040588,-1.2322311401367188,0.08119866251945496,-3.232975959777832, -0.6528934240341187
117,402002558,0.19625561,-0.7444548,-0.19768399,-0.6067882,9.744421005249023,-0.465155690908432,-1.2224442958831787,0.3039266765117645,-3.3231964111328125, -0.5812289714813232
118,402019225,0.19609973,-0.74455863,-0.19770996,-0.6067027,9.779500007629395,-0.4475528299808502,-1.2345246076583862,0.012543818913400173,-3.2714076042175293, -0.5532982349395752
119,402035892,0.19588158,-0.74466383,-0.19766112,-0.60666,9.762904167175293,-0.45620742440223694,-1.2174785137176514,-0.5442569851875305,-3.073126792907715, -0.5083352327346802
120,402052559,0.19571127,-0.7447582,-0.19762708,-0.60661024,9.760635375976562,-0.4732918441295624,-1.242866039276123,-0.3830379247665405,-3.0351178646087646, -0.35441574454307556
121,402069226,0.19554043,-0.7448475,-0.19760366,-0.6065632,9.761140823364258,-0.4711363911628723,-1.2276434898376465,-0.08631480485200882,-3.0519583225250244, -0.46954482793807983
122,402085893,0.1953719,-0.74492556,-0.19759278,-0.60652524,9.766098022460938,-0.46246689558029175,-1.2160793542861938,0.05502248555421829,-3.0006561279296875, -0.5646576285362244
123,402102560,0.19522792,-0.74499345,-0.19760366,-0.6064847,9.769288063049316,-0.4710046350955963,-1.2262824773788452,0.03331572189927101,-2.980050563812256, -0.5326545834541321
124,402119227,0.19507626,-0.74507827,-0.19765268,-0.6064135,9.769018173217773,-0.4540407657623291,-1.205923080444336,0.18687663972377777,-3.2950737476348877, -0.6976258754730225
125,402135894,0.19489206,-0.7451749,-0.19765739,-0.6063523,9.772798538208008,-0.45182499289512634,-1.2090799808502197,0.1585618108510971,-3.3223893642425537, -0.669900119304657
126,402152561,0.19470543,-0.7452626,-0.19770795,-0.60628796,9.775333404541016,-0.4651663303375244,-1.2248430252075195,-0.0054939244873821735,-3.3740251064300537, -0.8507643342018127
127,402169228,0.19452082,-0.74535066,-0.19775732,-0.60622287,9.783783912658691,-0.4624469578266144,-1.238470196723938,0.05644398182630539,-3.402557373046875, -0.8450525999069214
128,402185895,0.1943235,-0.745422,-0.1977885,-0.60618824,9.780174255371094,-0.42673352360725403,-1.2286450862884521,0.029819581657648087,-3.200319290161133, -0.8935245871543884
129,402202562,0.19412647,-0.7455023,-0.1977915,-0.6061515,9.799700736999512,-0.4462962746620178,-1.239537000656128,-0.2553073763847351,-3.2273409366607666, -0.6979460716247559
130,402219229,0.19393049,-0.74556404,-0.19778912,-0.6061391,9.775290489196777,-0.4307663142681122,-1.2328494787216187,-0.19881859421730042,-3.045363187789917, -0.738452672958374
131,402235896,0.19373852,-0.74560565,-0.1977675,-0.60615647,9.780071258544922,-0.435028612613678,-1.2442505359649658,-0.34151971340179443,-2.7994167804718018, -0.6736395955085754
132,402252563,0.19351667,-0.74564636,-0.19771355,-0.60619485,9.751976013183594,-0.43905189633369446,-1.2510981559753418,-0.38603460788726807,-2.722437858581543, -0.7129166722297668
133,402269230,0.1933031,-0.7456517,-0.19763075,-0.60628355,9.76960277557373,-0.4735751450061798,-1.2226780652999878,-0.714684009552002,-2.279043674468994, -0.5990170240402222
134,402285897,0.19307984,-0.7456483,-0.19755504,-0.6063835,9.774587631225586,-0.45886021852493286,-1.213112473487854,-0.6389472484588623,-2.237154245376587, -0.7233026623725891
135,402302564,0.19281241,-0.7456516,-0.19747518,-0.6064905,9.774619102478027,-0.4270537197589874,-1.2551263570785522,-0.964548647403717,-2.305540084838867, -0.8744431138038635
136,402319231,0.19253147,-0.74564165,-0.19740692,-0.6066141,9.777695655822754,-0.42122143507003784,-1.1990708112716675,-1.1888006925582886,-2.21173357963562, -0.9896490573883057
137,402335898,0.19220358,-0.74562985,-0.19729197,-0.60677,9.774445533752441,-0.44813355803489685,-1.2030457258224487,-1.4729862213134766,-2.0754482746124268, -1.027543067932129
138,402352565,0.19176222,-0.74556637,-0.19699168,-0.6070852,9.765887260437012,-0.40053442120552063,-1.154737114906311,-2.965348720550537,-0.9775214195251465, -0.8343848586082458
139,402369232,0.19115166,-0.7455188,-0.19652268,-0.6074881,9.702054023742676,-0.42776545882225037,-1.1631139516830444,-4.506593227386475,-0.6378074884414673, -0.8014727234840393
140,402385899,0.19055663,-0.7454763,-0.19610578,-0.60786176,9.70193099975586,-0.4479667842388153,-1.2007691860198975,-4.373676300048828,-0.8722021579742432, -0.9213145971298218
141,402402566,0.18994114,-0.7454571,-0.19573975,-0.6081959,9.718996047973633,-0.4867434799671173,-1.1858731508255005,-4.189239501953125,-1.2922377586364746, -1.1981239318847656
142,402419233,0.18932536,-0.7454805,-0.19552357,-0.60842866,9.78746223449707,-0.46381595730781555,-1.1884249448776245,-3.57151198387146,-2.2050232887268066, -1.7662264108657837
143,402435900,0.18869774,-0.74553573,-0.1954306,-0.6085857,9.84342098236084,-0.38544031977653503,-1.1855918169021606,-2.736640453338623,-2.94045352935791, -2.3718643188476562
144,402452567,0.1880294,-0.7456128,-0.19535045,-0.60872394,9.818510055541992,-0.3593546152114868,-1.2069014310836792,-3.046746015548706,-3.2173006534576416, -2.5236194133758545
145,402469234,0.18739596,-0.74569064,-0.19534379,-0.60882616,9.804261207580566,-0.4126487374305725,-1.2007390260696411,-2.444206953048706,-3.4788191318511963, -2.717763662338257
146,402485901,0.1868214,-0.7457486,-0.19542812,-0.60890454,9.795945167541504,-0.40974751114845276,-1.2087429761886597,-1.6412235498428345,-3.5798745155334473, -2.9480857849121094
147,402502568,0.18614891,-0.74581915,-0.19548579,-0.60900563,9.7872896194458,-0.3462878465652466,-1.155368685722351,-2.4560019969940186,-3.6294097900390625, -3.2055704593658447
148,402519235,0.18531059,-0.7459099,-0.19544357,-0.6091636,9.738412857055664,-0.35715121030807495,-1.1875666379928589,-3.824207067489624,-3.5421085357666016, -3.4332807064056396
149,402535902,0.18448818,-0.7460104,-0.1954982,-0.6092726,9.767897605895996,-0.3803985118865967,-1.1588382720947266,-3.318394184112549,-3.9566116333007812, -3.782125473022461
150,402552569,0.18375266,-0.74609524,-0.19567749,-0.60933346,9.780674934387207,-0.389455109834671,-1.1817063093185425,-2.1643502712249756,-4.207001686096191, -4.040185928344727
151,402569236,0.18306,-0.74617845,-0.1959726,-0.60934514,9.799595832824707,-0.34283149242401123,-1.19051194190979,-1.309065341949463,-4.567052364349365, -4.413952350616455
152,402585903,0.18236226,-0.74628574,-0.19633439,-0.60930663,9.788262367248535,-0.31089261174201965,-1.1671769618988037,-1.15249502658844,-5.033959865570068, -4.656557083129883
153,402602570,0.18161294,-0.74642307,-0.19672287,-0.60923696,9.802706718444824,-0.2992761731147766,-1.2099395990371704,-1.1818472146987915,-5.449615478515625, -4.953343868255615
154,402619237,0.18091732,-0.74654907,-0.1971802,-0.60914165,9.801608085632324,-0.2889881134033203,-1.1999346017837524,-0.5215771794319153,-5.569610595703125, -5.074222564697266
155,402635904,0.18024485,-0.7466815,-0.19770806,-0.6090074,9.83377742767334,-0.25947821140289307,-1.18129301071167,-0.1335318237543106,-5.8726983070373535, -5.268225193023682
156,402652571,0.17953211,-0.7468341,-0.19823417,-0.6088601,9.868130683898926,-0.23679381608963013,-1.1808726787567139,-0.17608734965324402,-6.105402946472168, -5.418520927429199
157,402669238,0.17876403,-0.7470237,-0.19875841,-0.6086823,9.845754623413086,-0.23638014495372772,-1.1544288396835327,-0.6185212135314941,-6.51059627532959, -5.521907329559326
158,402685905,0.17797716,-0.7472486,-0.19930667,-0.6084575,9.811607360839844,-0.21251296997070312,-1.1900296211242676,-0.5702540278434753,-6.980742454528809, -5.622718811035156
159,402702572,0.17717887,-0.74751025,-0.19989397,-0.60817647,9.816405296325684,-0.21478596329689026,-1.1929479837417603,-0.4025164842605591,-7.511411666870117, -5.757377624511719
160,402719239,0.17643946,-0.7477837,-0.2005492,-0.6078395,9.81932544708252,-0.2044331431388855,-1.2322205305099487,0.2662889063358307,-7.873359680175781, -5.7809929847717285
161,402735906,0.17568202,-0.7481136,-0.2012705,-0.6074144,9.745046615600586,-0.1499474197626114,-1.229804277420044,0.4416975975036621,-8.689008712768555, -5.999636173248291
162,402752573,0.17484663,-0.74850243,-0.20197994,-0.60694087,9.760396957397461,-0.09175058454275131,-1.2748744487762451,0.1433735340833664,-9.301984786987305, -6.1547722816467285
163,402769240,0.17398411,-0.74894303,-0.20276563,-0.6063827,9.75906753540039,-0.11459390819072723,-1.2589174509048462,0.12207658588886261,-10.098566055297852, -6.43032693862915
164,402785907,0.17307211,-0.74947345,-0.20360781,-0.6057058,9.756747245788574,-0.12333440035581589,-1.1995807886123657,0.3705839216709137,-11.245620727539062, -6.703205585479736
165,402802574,0.17216074,-0.7501193,-0.20462418,-0.604823,9.747374534606934,-0.16047213971614838,-1.111563801765442,1.158341646194458,-13.018983840942383, -7.172637939453125
166,402819241,0.17135659,-0.75089,-0.20592865,-0.603651,9.7594575881958,-0.14926277101039886,-1.112740397453308,2.851407051086426,-15.249688148498535, -7.630005359649658
167,402835908,0.17048752,-0.75184363,-0.20740399,-0.6022034,9.746085166931152,-0.10258027911186218,-1.0952014923095703,3.4342641830444336,-17.758703231811523, -8.208253860473633
168,402852575,0.16959028,-0.75296164,-0.20908813,-0.60047495,9.773733139038086,-0.05364229530096054,-1.1422480344772339,3.8474373817443848,-20.211002349853516, -8.726300239562988
169,402869242,0.168605,-0.75428236,-0.21096216,-0.5984359,9.8439302444458,-0.013780482113361359,-1.1117140054702759,4.387048721313477,-23.04146385192871, -9.41579818725586
170,402885909,0.16756004,-0.7557937,-0.21303365,-0.59608424,9.886411666870117,-0.037279121577739716,-1.126762866973877,5.129411697387695,-25.80476188659668, -10.043149948120117
171,402902576,0.16647558,-0.75749207,-0.2152455,-0.5934317,9.997430801391602,-0.05480852723121643,-1.1143481731414795,5.729458808898926,-28.400177001953125, -10.312182426452637
172,402919243,0.16518405,-0.7593865,-0.21748324,-0.5905484,10.206856727600098,-0.01208805013448,-1.039585828781128,4.879551887512207,-30.789308547973633, -10.738998413085938
173,402935910,0.16360687,-0.7615071,-0.21970434,-0.58742636,10.503816604614258,-0.0033867890015244484,-0.9968346357345581,3.4265267848968506,-33.424808502197266, -11.203633308410645
174,402952577,0.16180529,-0.76392883,-0.22205564,-0.5838862,10.753096580505371,0.026117539033293724,-0.9779114723205566,3.0768637657165527,-37.38868713378906, -11.869590759277344
175,402969244,0.15941949,-0.76672,-0.22421196,-0.5800474,10.97757339477539,0.2143617421388626,-0.7990739345550537,-0.7223212718963623,-41.19814682006836, -12.299467086791992
176,402985911,0.15649797,-0.7698446,-0.22612475,-0.5759476,11.003924369812012,0.37484535574913025,-0.8038411736488342,-4.470666885375977,-44.56487274169922, -12.351588249206543
177,403002578,0.15265076,-0.77334875,-0.22767372,-0.57165927,11.130494117736816,0.61625075340271,-0.7744770646095276,-10.912877082824707,-48.220726013183594, -13.295865058898926
178,403019245,0.14836949,-0.7771199,-0.22933182,-0.5669905,11.323083877563477,0.4364408552646637,-0.7444270849227905,-12.458178520202637,-52.205318450927734, -14.75543212890625
179,403035912,0.14398403,-0.7809961,-0.23105547,-0.562074,11.755387306213379,0.2100619226694107,-0.5490736365318298,-12.460378646850586,-54.299034118652344, -15.098286628723145
180,403052579,0.1392626,-0.7849494,-0.23198754,-0.55735284,11.331266403198242,-0.08842877298593521,-0.8231572508811951,-17.698698043823242,-53.45380401611328, -12.241886138916016
181,403069246,0.13325606,-0.7891603,-0.23169626,-0.55297893,10.746086120605469,0.4543038010597229,-1.4469588994979858,-30.12004852294922,-53.5838737487793, -10.53819465637207
182,403085913,0.12574582,-0.7936254,-0.23038842,-0.5488786,10.153397560119629,0.2968527674674988,-2.4697494506835938,-42.8031005859375,-54.630638122558594, -10.621667861938477
183,403102580,0.117544144,-0.79807115,-0.22836712,-0.5450822,9.610671997070312,0.19956207275390625,-2.6349380016326904,-49.72996520996094,-53.41744613647461, -9.688560485839844
184,403119247,0.10905658,-0.80197054,-0.22476208,-0.54261583,9.251513481140137,0.07694794237613678,-1.0300910472869873,-58.885467529296875,-43.266571044921875, -4.073520660400391
185,403135914,0.1010488,-0.80435187,-0.21924241,-0.5428996,8.015491485595703,-0.07481346279382706,0.3257960081100464,-66.50405883789062,-20.368297576904297, 3.777893304824829
186,403152581,0.09411516,-0.8047176,-0.21288596,-0.54612416,8.51734733581543,0.3240242600440979,1.8788793087005615,-66.73118591308594,5.469480991363525, 7.236350059509277
187,403169248,0.08977205,-0.80324656,-0.2067085,-0.55136895,8.371415138244629,0.0014364346861839294,1.1632977724075317,-53.49440002441406,26.980838775634766, 11.902742385864258
188,403185915,0.08782311,-0.79996556,-0.20054206,-0.55868167,8.912544250488281,0.034044623374938965,1.2507494688034058,-42.064579010009766,48.46776580810547, 16.989479064941406
189,403202582,0.08928173,-0.7949217,-0.1954251,-0.56739545,9.291891098022461,-0.019237056374549866,0.8887520432472229,-20.17047882080078,66.80943298339844, 20.96834945678711
190,403219249,0.09305485,-0.78832364,-0.1909702,-0.57742286,9.62059497833252,0.3142177164554596,0.7116458415985107,-5.7645955085754395,82.57442474365234, 23.44219398498535
191,403235916,0.0985499,-0.78034496,-0.18695633,-0.588555,9.92945384979248,0.3957578241825104,0.4815659523010254,4.740838527679443,95.85733795166016, 25.361021041870117
192,403252583,0.10526262,-0.77117264,-0.18319629,-0.6005429,10.248122215270996,0.422683984041214,0.2769920229911804,11.99799633026123,106.52932739257812, 26.82390594482422
193,403269250,0.11278606,-0.7609706,-0.17950489,-0.61317307,10.432926177978516,0.5571444630622864,0.05509275943040848,16.501768112182617,115.03861999511719, 28.069381713867188
194,403285917,0.120615505,-0.7499005,-0.17568707,-0.62628704,10.560834884643555,0.5028882026672363,-0.18779882788658142,17.63054847717285,121.61436462402344, 28.61308479309082
195,403302584,0.1282681,-0.73827606,-0.17125309,-0.6396626,10.694927215576172,0.21432755887508392,-0.37824076414108276,19.68486976623535,125.79553985595703, 29.247907638549805
196,403319251,0.13661024,-0.7261067,-0.16718173,-0.6528071,10.80019760131836,0.013233709149062634,-0.6143026351928711,26.817485809326172,127.46194458007812, 30.074872970581055
197,403335918,0.14596066,-0.713509,-0.16399978,-0.6653604,10.852173805236816,0.0034116841852664948,-0.7629340887069702,35.24458312988281,126.66488647460938, 30.666671752929688
198,403352585,0.15633973,-0.70057565,-0.16202094,-0.677127,10.864568710327148,0.17942869663238525,-0.7229810953140259,41.9449348449707,124.2448959350586, 30.3852481842041
199,403369252,0.16671592,-0.6876689,-0.1605659,-0.68813956,10.805306434631348,0.5034494996070862,-0.6695854663848877,45.15476608276367,119.97836303710938, 28.7589054107666
200,403385919,0.17629115,-0.6750795,-0.15934944,-0.6984247,10.735164642333984,0.8002926111221313,-0.5677143335342407,42.91313934326172,113.95697784423828, 25.11439323425293
201,403402586,0.18439703,-0.66305155,-0.15820251,-0.70804834,10.569107055664062,0.8511823415756226,-0.45374059677124023,36.44974899291992,106.5877685546875, 19.2526912689209
202,403419253,0.19137737,-0.6517138,-0.15759629,-0.7168036,10.327083587646484,0.6917252540588379,-0.5323919057846069,34.002685546875,97.46271514892578, 13.256926536560059
203,403435920,0.19715768,-0.6413456,-0.15750542,-0.72456664,10.076215744018555,0.6905332207679749,-0.4591595530509949,30.952457427978516,86.385498046875, 7.47261905670166
204,403452587,0.20181008,-0.632081,-0.1577785,-0.731336,9.806428909301758,0.5362014770507812,-0.2806608974933624,27.365188598632812,74.92393493652344, 2.8693461418151855
205,403469254,0.20563415,-0.62397456,-0.15843464,-0.7370678,9.5457763671875,0.22515815496444702,-0.16220468282699585,25.205297470092773,63.294525146484375, -0.200358584523201
206,403485921,0.2091913,-0.6169211,-0.1592587,-0.74181145,9.35046100616455,-0.21436405181884766,0.0077207013964653015,24.499006271362305,53.32502746582031, 0.3148927688598633
207,403502588,0.21245572,-0.61092615,-0.15943356,-0.7457966,9.266430854797363,0.01933196745812893,0.3977645933628082,19.255109786987305,45.45340347290039, 3.8413424491882324
208,403519255,0.21429256,-0.60613775,-0.15762214,-0.7495539,9.128656387329102,-0.004267504438757896,0.8499182462692261,1.5575873851776123,39.760780334472656, 6.535802364349365
209,403535922,0.21498162,-0.60221624,-0.15450758,-0.7531574,8.922652244567871,-0.10871128737926483,1.1943440437316895,-11.057455062866211,35.42450714111328, 7.218303680419922
210,403552589,0.21473585,-0.59901804,-0.15053263,-0.7565751,8.834962844848633,-0.2355063259601593,1.4923810958862305,-20.259979248046875,31.266727447509766, 6.9701924324035645
211,403569256,0.21384592,-0.5963786,-0.1457523,-0.75984126,8.767471313476562,-0.45208054780960083,1.6795978546142578,-27.7742919921875,28.324655532836914, 7.7143144607543945
212,403585923,0.21284387,-0.5941529,-0.14054686,-0.7628411,8.668312072753906,-0.7861518859863281,1.7049046754837036,-30.797094345092773,25.643299102783203, 9.641490936279297
213,403602590,0.21226907,-0.5921427,-0.13557026,-0.76546043,8.650484085083008,-0.8360604643821716,1.848820686340332,-27.797836303710938,23.097476959228516, 11.66328239440918
214,403619257,0.21211824,-0.59034467,-0.1311189,-0.76766336,8.617258071899414,-0.6489913463592529,1.8045673370361328,-23.22857666015625,19.970611572265625, 12.51650619506836
215,403635924,0.21200511,-0.5890096,-0.12696478,-0.7694165,8.54948616027832,-0.5592239499092102,1.7011480331420898,-21.777528762817383,15.36281681060791, 12.552762985229492
216,403652591,0.21202363,-0.58829147,-0.12336858,-0.77054495,8.474411964416504,-0.8310837745666504,1.4019752740859985,-18.649093627929688,8.938433647155762, 12.418886184692383
217,403669258,0.21270856,-0.5881819,-0.12106701,-0.7708048,8.443063735961914,-1.0569608211517334,1.0616071224212646,-9.242952346801758,0.9611238241195679, 12.470033645629883
218,403685925,0.21417022,-0.58876497,-0.12047161,-0.77004784,8.548911094665527,-1.1866223812103271,0.6339123249053955,2.780433416366577,-8.573088645935059, 11.724227905273438
219,403702592,0.21629883,-0.5902801,-0.12141147,-0.76814306,8.713845252990723,-1.281702995300293,0.15340280532836914,13.196839332580566,-19.746143341064453, 11.480952262878418
220,403719259,0.21873549,-0.5928946,-0.12335771,-0.7651233,8.52392864227295,-1.4544880390167236,-0.4062822759151459,19.07063102722168,-31.17727279663086, 11.579197883605957
221,403735926,0.2215043,-0.59683645,-0.12631112,-0.76076794,8.130282402038574,-1.6321768760681152,-1.1686652898788452,24.875003814697266,-44.67974853515625, 12.330117225646973
222,403752593,0.22225821,-0.60222924,-0.12578028,-0.7563733,9.90312385559082,-2.7258057594299316,3.2807228565216064,-3.775808811187744,-48.69154357910156, 17.367130279541016
223,403769260,0.2257851,-0.60552067,-0.12508203,-0.7528083,10.851428031921387,-5.601817607879639,7.212282180786133,9.334335327148438,-31.689001083374023, 29.309175491333008
224,403785927,0.232166,-0.6078385,-0.13546123,-0.74718255,11.708444595336914,4.3102707862854,3.851069450378418,81.85183715820312,-50.171730041503906, 0.13715404272079468
225,403802594,0.23494242,-0.6129478,-0.14271152,-0.74076366,12.587782859802246,1.8223166465759277,4.235496520996094,46.94126892089844,-66.2156982421875, -1.1439151763916016
226,403819261,0.2398397,-0.61810625,-0.15250619,-0.7329144,10.296208381652832,4.13059663772583,2.997133493423462,70.13616943359375,-74.5654067993164, 1.4654655456542969
227,403835928,0.24175511,-0.62527835,-0.15660772,-0.7252969,10.330157279968262,2.223895788192749,1.8520886898040771,25.175487518310547,-77.47651672363281, 12.624821662902832
228,403852595,0.240181,-0.63399583,-0.15638056,-0.71826696,10.128305435180664,0.3852342963218689,0.40736261010169983,-14.626694679260254,-79.19014739990234, 14.663711547851562
229,403869262,0.23733711,-0.64290535,-0.15490429,-0.71158177,9.843957901000977,-2.0869691371917725,0.6245285868644714,-27.012317657470703,-77.85869598388672, 13.516748428344727
230,403885929,0.2344411,-0.65132284,-0.15381178,-0.7050943,9.529424667358398,-2.2981724739074707,-0.25207436084747314,-24.756040573120117,-75.20529174804688, 10.64339828491211
231,403902596,0.2315273,-0.6595244,-0.15357362,-0.698454,10.40811824798584,-2.1326591968536377,-0.7622554302215576,-20.166793823242188,-76.155029296875, 6.6679582595825195
232,403919263,0.23069263,-0.66702914,-0.15635377,-0.69094616,9.56970500946045,-2.6283740997314453,-3.0056536197662354,5.798671245574951,-79.25212860107422, 3.5511577129364014
233,403935930,0.23237753,-0.67385596,-0.16192174,-0.68242246,11.311441421508789,-0.8037624955177307,-0.28487488627433777,32.79018783569336,-82.2108383178711, 3.542391777038574
234,403952597,0.23556598,-0.6796007,-0.1681972,-0.6740632,9.71415901184082,0.3395237326622009,-0.1931556761264801,44.630638122558594,-75.769287109375, 5.877436637878418
235,403969264,0.23606803,-0.68562454,-0.1700153,-0.66729724,10.865747451782227,2.2298152446746826,-0.19142940640449524,9.133268356323242,-65.46287536621094, 12.062396049499512
236,403985931,0.23269913,-0.69235724,-0.16624781,-0.66246086,10.832808494567871,0.6785704493522644,-0.39106476306915283,-38.13654708862305,-55.04805374145508, 18.470123291015625
237,404002598,0.22906019,-0.69865346,-0.16137092,-0.6583119,10.149991035461426,-1.140830397605896,-1.0440481901168823,-44.5545768737793,-48.2960205078125, 20.983116149902344
238,404019265,0.2277528,-0.70380116,-0.15850994,-0.6539627,9.680068016052246,-1.7863187789916992,-1.1923176050186157,-22.194324493408203,-44.59841537475586, 20.873647689819336
239,404035932,0.22725299,-0.7083111,-0.15682878,-0.64965856,9.619271278381348,-1.7564857006072998,-0.8062175512313843,-12.029739379882812,-42.4283332824707, 17.987382888793945
240,404052599,0.22704747,-0.71245253,-0.15589564,-0.64541256,9.713691711425781,-1.8513765335083008,-0.6468619704246521,-6.741527080535889,-41.32233810424805, 15.135580062866211
241,404069266,0.22674006,-0.7164686,-0.1552168,-0.6412252,9.663073539733887,-1.9807994365692139,-0.7362465262413025,-5.980310440063477,-40.968074798583984, 13.176163673400879
242,404085933,0.22658923,-0.72031575,-0.15511784,-0.6369781,9.631636619567871,-2.175625801086426,-0.8291327357292175,-2.327505111694336,-41.23934555053711, 10.884986877441406
243,404102600,0.22617263,-0.72392684,-0.15542763,-0.6329442,9.75922966003418,-2.0137288570404053,-0.8890323042869568,-1.7154202461242676,-40.05550765991211, 7.0684733390808105
244,404119267,0.22567439,-0.72724944,-0.15634957,-0.629074,9.730027198791504,-1.8661857843399048,-0.9406138062477112,0.8145586848258972,-39.012577056884766, 3.069730520248413
245,404135934,0.22563794,-0.73022956,-0.15815239,-0.62517214,9.689348220825195,-1.6244838237762451,-0.9699889421463013,7.498356819152832,-38.54975509643555, 0.31814348697662354
246,404152601,0.22569281,-0.73301214,-0.16025414,-0.6213491,9.735345840454102,-1.44206964969635,-1.0491077899932861,9.463309288024902,-37.662986755371094, -1.1404372453689575
247,404169268,0.22523402,-0.73577875,-0.161979,-0.61778826,9.72274398803711,-1.4370179176330566,-1.0865427255630493,5.002727031707764,-36.24856185913086, -1.8651381731033325
248,404185935,0.22463661,-0.73830795,-0.16343462,-0.6145967,9.551224708557129,-1.4381695985794067,-1.396876573562622,3.1164824962615967,-33.106231689453125, -1.9339072704315186
249,404202602,0.22386585,-0.74075204,-0.16491333,-0.6115344,9.649272918701172,-0.6578212380409241,-1.278100848197937,2.322984457015991,-32.30730056762695, -3.0865979194641113
250,404219269,0.22233523,-0.7434295,-0.16561429,-0.60864747,9.832746505737305,-0.49667370319366455,-1.1710342168807983,-5.367148399353027,-32.055809020996094, -2.301476240158081
251,404235936,0.22034399,-0.74628395,-0.1655669,-0.6058849,9.82589340209961,-0.5819576978683472,-1.2996635437011719,-11.257182121276855,-31.5467586517334, -0.3629205524921417
252,404252603,0.21841413,-0.7491452,-0.16522968,-0.60313857,9.66439151763916,-1.0936212539672852,-1.3648561239242554,-12.171060562133789,-30.986581802368164, 1.3868882656097412
253,404269270,0.21705891,-0.7519331,-0.16512448,-0.6001802,9.495878219604492,-1.4641574621200562,-1.3885388374328613,-7.895809650421143,-31.474014282226562, 2.811958074569702
254,404285937,0.21637675,-0.75458944,-0.1654801,-0.5969861,9.478311538696289,-1.9147677421569824,-1.434168815612793,-2.052417278289795,-32.07822799682617, 3.3967623710632324
255,404302604,0.21628596,-0.7571539,-0.16635263,-0.5935192,9.437066078186035,-1.7719800472259521,-1.529869794845581,3.578472852706909,-33.21854782104492, 3.4150121212005615
256,404319271,0.21681428,-0.75964975,-0.16799352,-0.5896629,9.457786560058594,-1.4495594501495361,-1.4950453042984009,10.479440689086914,-35.402732849121094, 2.421429395675659
257,404335938,0.2172993,-0.76232433,-0.16979007,-0.5855033,9.610787391662598,-1.05527925491333,-1.3571710586547852,10.96600341796875,-38.0040283203125, 2.086146593093872
258,404352605,0.21771228,-0.7652473,-0.17158887,-0.58099514,9.652128219604492,-1.0184893608093262,-1.4464668035507202,10.634544372558594,-40.93638229370117, 2.6068451404571533
259,404369272,0.21806668,-0.7684185,-0.17350401,-0.57608736,9.610387802124023,-0.9122761487960815,-1.6703113317489624,10.892681121826172,-44.29482650756836, 2.6661925315856934
260,404385939,0.21783519,-0.77191794,-0.17544992,-0.5708836,9.624175071716309,-0.9025202989578247,-1.7554954290390015,7.785050392150879,-47.918006896972656, 1.0361000299453735
261,404402606,0.21704493,-0.7757202,-0.17733005,-0.5654238,9.60084342956543,-1.3910536766052246,-1.802799940109253,4.42164421081543,-51.057762145996094, -0.041313666850328445
262,404419273,0.21608289,-0.7797472,-0.17952207,-0.5595307,9.4537935256958,-1.4355762004852295,-1.815698266029358,4.910871505737305,-54.93550491333008, -1.4535490274429321
263,404435940,0.21509042,-0.78398764,-0.18216194,-0.5530973,9.511725425720215,-1.5481294393539429,-1.8436647653579712,6.820088863372803,-59.378353118896484, -2.9087557792663574
264,404452607,0.21441153,-0.7883515,-0.18546763,-0.5460143,9.537403106689453,-1.4361639022827148,-2.0194480419158936,11.671427726745605,-63.96836853027344, -4.195986747741699
265,404469274,0.21413565,-0.79271674,-0.18941711,-0.5383935,9.686684608459473,-1.2780274152755737,-2.5050501823425293,16.956363677978516,-67.35093688964844, -5.377413749694824
266,404485941,0.21354774,-0.797047,-0.19333605,-0.5307869,9.88261604309082,-1.5102314949035645,-2.7667629718780518,15.180220603942871,-67.52166748046875, -6.424568176269531
267,404502608,0.21235321,-0.8013964,-0.19715694,-0.5232582,9.944100379943848,-1.5427963733673096,-2.8404488563537598,8.853949546813965,-67.48008728027344, -7.1924333572387695
268,404519275,0.20998211,-0.80598307,-0.20060594,-0.51580656,10.058357238769531,-1.4456255435943604,-2.871190071105957,0.1621631681919098,-68.92668151855469, -8.944106101989746
269,404535942,0.20751083,-0.8106208,-0.20432372,-0.508021,10.455038070678711,-1.706862211227417,-2.8689675331115723,0.20190219581127167,-71.4154052734375, -9.846906661987305
270,404552609,0.20484851,-0.8154004,-0.20840392,-0.4997273,10.791116714477539,-1.4616942405700684,-2.8176474571228027,0.5518433451652527,-75.5313949584961, -11.369532585144043
271,404569276,0.2015968,-0.82056093,-0.21269277,-0.4907142,10.713783264160156,-1.175648808479309,-3.1695878505706787,-1.7021845579147339,-82.06059265136719, -12.826882362365723
272,404585943,0.19743021,-0.82617193,-0.21684326,-0.4810827,10.982237815856934,-0.8397445678710938,-3.040738582611084,-7.139665126800537,-88.27045440673828, -13.446624755859375
273,404602610,0.19197093,-0.8322104,-0.22051798,-0.47111022,12.235797882080078,-1.3218882083892822,-2.7750916481018066,-11.918303489685059,-93.53646087646484, -16.08618927001953
274,404619277,0.1859971,-0.8383257,-0.22460967,-0.46061453,12.823792457580566,-1.2096717357635498,-2.964667558670044,-12.81567096710205,-98.22374725341797, -19.330238342285156
275,404635944,0.1786311,-0.84471446,-0.2284511,-0.44984302,13.227797508239746,-0.6554094552993774,-2.292081356048584,-21.55020523071289,-102.63886260986328, -21.519262313842773
276,404652611,0.17000698,-0.8514485,-0.23182967,-0.43862075,13.643263816833496,-0.07955937087535858,-1.8378143310546875,-29.989660263061523,-107.90447998046875, -21.61285972595215
277,404669278,0.15969361,-0.85858953,-0.23448041,-0.42701432,14.247496604919434,0.4493831694126129,-1.4457676410675049,-41.91071319580078,-113.42945861816406, -21.328994750976562
278,404685945,0.14724913,-0.86602974,-0.23597579,-0.4154827,14.440476417541504,0.06070289760828018,-0.41046518087387085,-58.294925689697266,-116.27808380126953, -20.346851348876953
279,404702612,0.13279787,-0.87353724,-0.23656614,-0.40414608,14.086114883422852,0.4582058787345886,-0.34340617060661316,-73.18871307373047,-117.94209289550781, -20.79425811767578
280,404719279,0.11654738,-0.8808174,-0.23619977,-0.39343038,12.831611633300781,-0.6865503787994385,-0.9845468401908875,-87.42052459716797,-115.93023681640625, -21.016084671020508
281,404735946,0.10173172,-0.8873817,-0.23652086,-0.38244262,12.005014419555664,-0.8623988032341003,-1.5894383192062378,-75.84644317626953,-114.1150894165039, -22.32491683959961
282,404752613,0.08871593,-0.8928592,-0.237813,-0.37199068,11.281309127807617,-1.317620873451233,-1.6946483850479126,-62.418792724609375,-105.9607925415039, -25.747074127197266
283,404769280,0.07882696,-0.8965197,-0.23858844,-0.36484835,11.095020294189453,-1.5174161195755005,0.2936193346977234,-48.86007308959961,-75.77226257324219, -19.663074493408203
284,404785947,0.06784239,-0.9002256,-0.23884717,-0.35769182,6.864442825317383,-1.087913990020752,-6.154222011566162,-56.93317413330078,-77.74571228027344, -19.249956130981445
285,404802614,0.053646334,-0.9038411,-0.23684204,-0.3522775,6.774024486541748,-3.0280356407165527,-7.9131059646606445,-85.22480010986328,-70.9377670288086, -14.205389976501465
286,404819281,0.037490543,-0.9061071,-0.22824061,-0.35421827,9.469700813293457,-4.833664417266846,3.463423728942871,-124.96575927734375,-22.652950286865234, 16.940765380859375
287,404835948,0.0393395,-0.90583724,-0.22483213,-0.35687792,5.740532875061035,-1.9518539905548096,2.614809989929199,-0.7558456063270569,14.6326322555542, 24.066120147705078
288,404852615,0.039637785,-0.9038621,-0.22138116,-0.36394015,7.270544052124023,2.0032520294189453,0.6564773917198181,-16.91727066040039,43.6829833984375, 16.63225746154785
289,404869282,0.032094583,-0.900978,-0.21061383,-0.37795565,7.26888370513916,1.0166045427322388,0.23136132955551147,-94.25962829589844,79.08385467529297, 39.171566009521484
290,404885949,0.02632179,-0.8962497,-0.19807483,-0.39599288,7.621481418609619,0.17171651124954224,0.11163493990898132,-93.31868743896484,111.62980651855469, 51.087589263916016
291,404902616,0.025338387,-0.8892924,-0.18601088,-0.4170337,8.110481262207031,-0.21138589084148407,0.06177177280187607,-66.2236099243164,142.53038024902344, 57.50904083251953
292,404919283,0.02884958,-0.88005626,-0.17441264,-0.4407369,8.418414115905762,0.1400241106748581,-0.3782498836517334,-40.44422149658203,170.89642333984375, 64.07681274414062
293,404935950,0.036364842,-0.8685226,-0.16357775,-0.46646395,9.225366592407227,-0.3327532708644867,-1.168845534324646,-15.89326000213623,194.6529083251953, 68.38118743896484
294,404952617,0.04899578,-0.8545453,-0.15446278,-0.49345022,10.010623931884766,-0.7919299602508545,-2.249180316925049,19.343381881713867,215.24574279785156, 71.42399597167969
295,404969284,0.067329645,-0.83816206,-0.1479451,-0.52063775,10.462217330932617,-1.1211521625518799,-2.695981979370117,62.23507308959961,229.7093963623047, 72.89753723144531
296,404985951,0.0906395,-0.81920964,-0.14476433,-0.5474699,11.017013549804688,-0.7244960069656372,-3.1781680583953857,104.38520812988281,240.3294677734375, 69.08914947509766
297,405002618,0.115051724,-0.79776293,-0.1431158,-0.5743306,12.53966999053955,-0.1702604591846466,-3.3632895946502686,117.87590026855469,250.00047302246094, 62.2172737121582
298,405019285,0.13779527,-0.7743198,-0.14154896,-0.60116994,13.739204406738281,0.3049769997596741,-3.5054054260253906,110.63575744628906,256.05364990234375, 53.369991302490234
299,405035952,0.15677488,-0.74939424,-0.13855897,-0.6281972,14.591938972473145,0.5826812386512756,-3.467419385910034,85.9358139038086,260.9220886230469, 43.91038513183594
300,405052619,0.17149253,-0.7236828,-0.13315654,-0.6550901,14.942206382751465,0.18017709255218506,-3.4691760540008545,54.53636932373047,262.3146057128906, 37.4566535949707
301,405069286,0.18358836,-0.6976451,-0.1261848,-0.6809288,14.896913528442383,-0.774127185344696,-4.1515350341796875,35.78481674194336,258.2243347167969, 34.4921989440918
302,405085953,0.19542365,-0.67152274,-0.11934332,-0.7047156,14.335248947143555,-1.219351887702942,-4.147950649261475,37.05258560180664,248.712646484375, 35.21941375732422
303,405102620,0.20797879,-0.6458118,-0.11365134,-0.7257791,13.960139274597168,-1.3706536293029785,-4.211617469787598,47.65327453613281,233.56028747558594, 37.44601821899414
304,405119287,0.22143483,-0.6211345,-0.11013117,-0.74365956,12.82319164276123,-1.0507595539093018,-4.636519432067871,63.53203582763672,212.26133728027344, 37.714298248291016
305,405135954,0.23493516,-0.598232,-0.10934311,-0.7582666,11.761606216430664,-0.17138764262199402,-4.880630970001221,77.49591827392578,185.49142456054688, 32.66920852661133
306,405152621,0.24668588,-0.5780803,-0.11039264,-0.7699238,10.409989356994629,0.24263925850391388,-5.496739864349365,77.67961120605469,155.1360626220703, 22.906721115112305
307,405169288,0.25607184,-0.56160384,-0.11180311,-0.77879936,9.153146743774414,0.4574557840824127,-6.153223514556885,66.09339141845703,122.60981750488281, 16.535799026489258
308,405185955,0.26206526,-0.55003387,-0.11104003,-0.78514636,8.37791919708252,0.602564811706543,-6.1665120124816895,34.68281555175781,88.16415405273438, 15.03951644897461
309,405202622,0.26441193,-0.5438389,-0.107592866,-0.7891447,7.928775787353516,0.6217023730278015,-6.0503363609313965,-1.467879056930542,52.6501579284668, 13.874946594238281
310,405219289,0.2627063,-0.543105,-0.101659566,-0.79100436,7.6054277420043945,0.5566532611846924,-5.767273426055908,-38.432037353515625,16.83433723449707, 9.135993957519531
311,405235956,0.25768772,-0.5471586,-0.09372421,-0.7908417,7.709422588348389,-0.4538256824016571,-5.334701061248779,-68.9046859741211,-15.209844589233398, 5.610080718994141
312,405252623,0.25176632,-0.55430114,-0.086012125,-0.7886482,8.003405570983887,-1.610392689704895,-4.927176475524902,-75.22478485107422,-40.42007827758789, 5.4496331214904785
313,405269290,0.24706505,-0.56302136,-0.0804188,-0.7845373,8.04656982421875,-2.2185230255126953,-4.768359661102295,-60.650665283203125,-59.06035232543945, 8.228270530700684
314,405285957,0.24423888,-0.5723992,-0.07832487,-0.7788273,8.07673454284668,-2.577706813812256,-4.769711971282959,-34.71754455566406,-73.56649017333984, 7.857192516326904
315,405302624,0.24460553,-0.5819582,-0.082121134,-0.77119994,7.861854553222656,-3.0240156650543213,-5.129721164703369,10.145118713378906,-90.13644409179688, 5.067229270935059
316,405319291,0.24393101,-0.59182537,-0.08123702,-0.76396406,11.870658874511719,-8.351641654968262,5.026813983917236,-19.55103874206543,-82.81932067871094, 17.762283325195312
317,405335958,0.25511205,-0.5956511,-0.09386187,-0.755849,10.586583137512207,-5.474079608917236,5.410242080688477,110.29363250732422,-70.75408172607422, 23.073455810546875
318,405352625,0.26340425,-0.6002939,-0.115284294,-0.74630773,15.008347511291504,7.410346508026123,3.3677659034729004,143.6746368408203,-98.2061996459961, -24.989944458007812
319,405369292,0.26554042,-0.60946816,-0.12986004,-0.7356448,14.621399879455566,7.195938587188721,1.7008575201034546,75.7643814086914,-118.57106018066406, -22.554508209228516
320,405385959,0.26100177,-0.6230279,-0.13366838,-0.7251533,12.7330961227417,3.0106382369995117,0.9517223238945007,-14.855613708496094,-126.32310485839844, -7.471574783325195
321,405402626,0.25609815,-0.6368258,-0.1328318,-0.71499836,10.087556838989258,0.35609978437423706,-1.2618179321289062,-40.317020416259766,-118.064208984375, 10.272852897644043
322,405419293,0.24905927,-0.6498988,-0.12947674,-0.70628405,10.411275863647461,-1.0986820459365845,-2.062079429626465,-62.082969665527344,-105.68994903564453, 7.612620830535889
323,405435960,0.24394287,-0.66092134,-0.1280763,-0.6980483,10.399075508117676,-3.607144355773926,-3.375840425491333,-40.90352249145508,-95.20771789550781, 5.562079429626465
324,405452627,0.2403845,-0.67049336,-0.12905249,-0.68992716,9.613500595092773,-3.527196168899536,-4.942185878753662,-20.07373809814453,-90.30777740478516, 0.7342934012413025
325,405469294,0.23767555,-0.6789831,-0.13134477,-0.6820858,10.750168800354004,-1.8121169805526733,-2.201694965362549,-8.364465713500977,-85.26530456542969, -2.759148359298706
326,405485961,0.23616464,-0.68607765,-0.13477676,-0.6748031,9.665752410888672,-1.894869089126587,-1.8477479219436646,4.351848602294922,-76.89057159423828, -4.644550323486328
327,405502628,0.2381046,-0.6916639,-0.13978392,-0.66735893,10.181676864624023,-0.294208824634552,-0.8466492891311646,30.537311553955078,-70.01720428466797, 2.7873401641845703
328,405519295,0.24094832,-0.69678766,-0.14387064,-0.6601001,10.769356727600098,0.0019758385606110096,-0.3859419822692871,31.19158935546875,-64.65221405029297, 10.567117691040039
329,405535962,0.24251135,-0.7019848,-0.14531752,-0.653673,10.605619430541992,0.04534779116511345,-0.6493713855743408,12.128189086914062,-57.913726806640625, 16.10370445251465
330,405552629,0.24137911,-0.707365,-0.14346014,-0.64868325,10.542424201965332,-0.9998496770858765,-0.9869741797447205,-17.47101593017578,-49.00146484375, 17.73369598388672
331,405569296,0.23855317,-0.71254927,-0.1402026,-0.6447552,9.989911079406738,-1.841215968132019,-1.211817741394043,-32.67613983154297,-42.32620620727539, 15.034134864807129
332,405585963,0.2354322,-0.7172944,-0.13718933,-0.64127964,9.615595817565918,-2.244149923324585,-1.0663478374481201,-32.75532150268555,-38.8620719909668, 11.356952667236328
333,405602630,0.23283626,-0.7215626,-0.13514838,-0.63786334,9.6183500289917,-2.2719247341156006,-1.0891053676605225,-25.164533615112305,-37.56034469604492, 8.32105827331543
334,405619297,0.23139429,-0.72534615,-0.13452397,-0.6342184,9.60164737701416,-2.034511089324951,-1.139572262763977,-12.241532325744629,-37.77859115600586, 6.260221481323242
335,405635964,0.23010243,-0.7289397,-0.13431434,-0.63060254,9.533464431762695,-1.6216984987258911,-1.0016796588897705,-9.411192893981934,-37.33877182006836, 4.6170268058776855
336,405652631,0.22807056,-0.732735,-0.13371328,-0.6270601,9.478423118591309,-1.520477533340454,-0.9046419858932495,-15.206144332885742,-37.923065185546875, 3.437366247177124
337,405669298,0.2251276,-0.7369214,-0.13265489,-0.62343174,9.4656400680542,-1.6015806198120117,-0.8413599133491516,-22.303356170654297,-40.177513122558594, 2.3052430152893066
338,405685965,0.22183654,-0.741403,-0.13155794,-0.6195182,9.467705726623535,-1.6464004516601562,-0.850074052810669,-24.43183135986328,-43.158836364746094, 1.7174934148788452
339,405702632,0.21872273,-0.74600023,-0.13079336,-0.6152539,9.481911659240723,-1.6691246032714844,-1.014449119567871,-21.974409103393555,-45.798316955566406, 1.4155819416046143
340,405719299,0.2162031,-0.75057375,-0.13065638,-0.6105934,9.485549926757812,-1.5922682285308838,-1.290654182434082,-15.881735801696777,-48.15099334716797, 1.2819080352783203
341,405735966,0.21401928,-0.75514424,-0.13098888,-0.60563606,9.58414363861084,-1.8436390161514282,-1.4902688264846802,-11.908042907714844,-50.07603073120117, 0.7056683897972107
342,405752633,0.21220718,-0.75965387,-0.13190284,-0.60041314,9.576825141906738,-1.6202791929244995,-1.5868988037109375,-7.230061054229736,-51.72940444946289, -0.4329484701156616
343,405769300,0.21014321,-0.7643036,-0.13290012,-0.59499395,9.57934284210205,-1.5014201402664185,-1.6104763746261597,-8.22917652130127,-53.69118881225586, -1.4955666065216064
344,405785967,0.2079539,-0.76909596,-0.1340142,-0.58931077,9.645463943481445,-1.5098798274993896,-1.7019896507263184,-8.376049041748047,-55.95159912109375, -2.111509084701538
345,405802634,0.20598581,-0.7739141,-0.13554972,-0.5833123,9.654136657714844,-1.6633367538452148,-1.7987794876098633,-5.2466206550598145,-58.12916564941406, -2.969841241836548
346,405819301,0.20448789,-0.7787331,-0.13777557,-0.5768685,9.57089614868164,-1.5710722208023071,-1.975372076034546,0.436606228351593,-61.04920196533203, -4.127477169036865
347,405835968,0.20306489,-0.7836726,-0.14040908,-0.57000643,9.570432662963867,-1.343432068824768,-2.0185062885284424,2.6802613735198975,-64.27439880371094, -5.311563491821289
348,405852635,0.20163889,-0.7887129,-0.14329864,-0.5627958,9.691662788391113,-1.5397717952728271,-2.2720143795013428,3.862117290496826,-66.91302490234375, -6.119112968444824
349,405869302,0.20059976,-0.793759,-0.14673619,-0.5551353,9.933380126953125,-1.8434244394302368,-2.097682476043701,8.515355110168457,-69.759521484375, -6.965649604797363
350,405885969,0.19956982,-0.7989199,-0.1505988,-0.5470091,10.054295539855957,-1.3858290910720825,-2.2653963565826416,10.4971284866333,-73.32379913330078, -8.493926048278809
351,405902636,0.19779997,-0.8043806,-0.15426807,-0.5385615,10.250186920166016,-1.306329607963562,-2.409508466720581,5.626824855804443,-76.72502899169922, -9.462234497070312
352,405919303,0.19551954,-0.8100621,-0.15794933,-0.5297392,10.485639572143555,-1.4421939849853516,-2.5672450065612793,2.9438185691833496,-80.18070983886719, -10.674927711486816
353,405935970,0.19255383,-0.8160412,-0.16166013,-0.52044785,10.821564674377441,-2.002410650253296,-2.5468080043792725,-0.6569955348968506,-84.6692123413086, -12.381024360656738
354,405952637,0.18895039,-0.8223704,-0.16547295,-0.5105131,10.811205863952637,-1.4802212715148926,-2.8718554973602295,-3.6213457584381104,-90.38594055175781, -13.99647331237793
355,405969304,0.18359941,-0.8292339,-0.16869162,-0.500206,11.315650939941406,-1.2496252059936523,-2.7783584594726562,-15.859115600585938,-95.59202575683594, -15.678936958312988
356,405985971,0.17718698,-0.8364054,-0.17182463,-0.48939484,12.752496719360352,-1.4977271556854248,-2.4592111110687256,-22.00994300842285,-100.66075897216797, -17.845848083496094
357,406002638,0.17031492,-0.84374046,-0.17587632,-0.47766352,13.943856239318848,-0.9701221585273743,-2.079690456390381,-20.675621032714844,-108.18360900878906, -23.36052894592285
358,406019305,0.16209553,-0.8513681,-0.18040459,-0.46513635,14.54387378692627,-0.3469961881637573,-1.196865200996399,-26.308603286743164,-115.9742660522461, -29.260417938232422
359,406035972,0.15224451,-0.8593641,-0.18450454,-0.45196584,15.363693237304688,-0.23708303272724152,0.03903716802597046,-36.8408203125,-122.49758911132812, -30.792463302612305
360,406052639,0.14047399,-0.86767215,-0.18804276,-0.43823785,15.642388343811035,0.8511901497840881,0.49839892983436584,-49.54899597167969,-128.6510467529297, -32.453155517578125
361,406069306,0.12514775,-0.87643373,-0.19019708,-0.4242962,15.668538093566895,0.6231128573417664,1.6372047662734985,-75.09026336669922,-134.5998077392578, -34.11278533935547
362,406085973,0.109301455,-0.88497573,-0.19211222,-0.40983424,15.474882125854492,0.20574234426021576,2.2576065063476562,-78.05010223388672,-137.62176513671875, -34.02589797973633
363,406102640,0.09250423,-0.8930038,-0.1941199,-0.3953538,15.202847480773926,-0.8656148910522461,0.7326983213424683,-83.1631088256836,-137.66659545898438, -37.93724822998047
364,406119307,0.07969259,-0.89945126,-0.19867888,-0.38100287,14.563377380371094,-0.584353506565094,1.3547724485397339,-50.921043395996094,-128.921875, -44.968910217285156
365,406135974,0.07018225,-0.90443045,-0.20443375,-0.367814,11.909844398498535,-2.2499730587005615,1.54518461227417,-28.1524600982666,-114.07889556884766, -46.36449432373047
366,406152641,0.06289487,-0.9091591,-0.20819025,-0.3551493,8.809456825256348,-5.107779026031494,-5.684024333953857,-20.003530502319336,-106.13363647460938, -28.933364868164062
367,406169308,0.05897955,-0.9123822,-0.21057117,-0.3460346,8.484010696411133,-2.4003489017486572,-4.8035993576049805,-6.733820915222168,-74.83973693847656, -15.811699867248535
368,406185975,0.04879712,-0.91336673,-0.20696759,-0.34719506,10.198726654052734,-3.5408108234405518,6.333329200744629,-74.26448059082031,-11.70414924621582, -0.6029989719390869
369,406202642,0.05464692,-0.9121492,-0.20791768,-0.34895262,5.269757270812988,-2.4602527618408203,0.3388199508190155,37.16039276123047,18.5362491607666, 5.722404956817627
370,406219309,0.0542357,-0.90931815,-0.20557152,-0.35768673,8.01162052154541,1.5087590217590332,0.8371387124061584,-19.38981819152832,58.442474365234375, 6.43778133392334
371,406235976,0.048258036,-0.9051748,-0.19782618,-0.37308815,7.559517860412598,-0.18161849677562714,0.07921881973743439,-76.40032958984375,97.48434448242188, 22.162744522094727
372,406252643,0.04481498,-0.898898,-0.18921295,-0.39264816,7.29583740234375,-0.804044246673584,-0.26407095789909363,-67.8047103881836,132.5651397705078, 29.77349090576172
373,406269310,0.045575727,-0.89017063,-0.1808324,-0.4157149,7.520022392272949,-0.34992048144340515,-0.31227314472198486,-45.00627517700195,166.24850463867188, 35.403751373291016
374,406285977,0.049127005,-0.8788588,-0.17225248,-0.44217998,8.165245056152344,0.25719133019447327,-1.098865270614624,-31.914697647094727,197.96902465820312, 40.31500244140625
375,406302644,0.05527384,-0.8650022,-0.16365726,-0.47109705,8.705571174621582,-0.3809076249599457,-2.08785080909729,-18.32065773010254,223.60581970214844, 44.45407485961914
376,406319311,0.06647533,-0.8485322,-0.15631483,-0.5011385,9.439114570617676,-0.971074640750885,-3.3322858810424805,15.532318115234375,243.98062133789062, 50.004783630371094
377,406335978,0.08238478,-0.8294506,-0.15069935,-0.5315207,10.128788948059082,-1.2521638870239258,-4.321516036987305,49.78188705444336,259.2544250488281, 53.189048767089844
378,406352645,0.102658615,-0.80787355,-0.14737158,-0.56132287,11.105110168457031,-1.2218801975250244,-4.883833408355713,85.05366516113281,268.31427001953125, 53.838218688964844
379,406369312,0.124484226,-0.78414875,-0.14519118,-0.59036773,12.18278694152832,0.024874843657016754,-4.831207275390625,100.39075469970703,273.1805114746094, 51.817386627197266
380,406385979,0.14447907,-0.7589672,-0.14201517,-0.61881065,12.973849296569824,0.6333826780319214,-5.105924606323242,88.32384490966797,274.8903503417969, 48.82678985595703
381,406402646,0.16170122,-0.73257047,-0.136964,-0.646865,13.319571495056152,0.9166077971458435,-5.142050266265869,67.45722198486328,277.2135925292969, 46.028446197509766
382,406419313,0.17617962,-0.7052875,-0.1297439,-0.67431223,13.921116828918457,0.8123732805252075,-4.9251604080200195,45.55070114135742,277.9554138183594, 44.604156494140625
383,406435980,0.18825766,-0.67759526,-0.12083985,-0.7005866,14.091182708740234,0.253386914730072,-5.056571960449219,27.64154052734375,274.0993957519531, 42.70935821533203
384,406452647,0.19905229,-0.64997345,-0.111863896,-0.7248443,14.152870178222656,-0.47242093086242676,-5.604122638702393,22.900484085083008,263.431396484375, 39.53816223144531
385,406469314,0.20978785,-0.62300056,-0.10521127,-0.74618363,13.555915832519531,-1.235754370689392,-6.123035907745361,35.58087158203125,243.974853515625, 33.35820007324219
386,406485981,0.22186549,-0.59741586,-0.102643274,-0.76376325,12.351912498474121,-1.4465495347976685,-7.070082187652588,63.020545959472656,215.87765502929688, 29.17764663696289
387,406502648,0.23360875,-0.57516897,-0.10257738,-0.7772294,10.915721893310547,0.08283821493387222,-7.650822639465332,72.59471130371094,177.45770263671875, 25.77281951904297
388,406519315,0.24133867,-0.5586707,-0.1012671,-0.7870119,9.293292999267578,0.16946808993816376,-8.531010627746582,43.447959899902344,131.39645385742188, 19.228500366210938
389,406535982,0.2457708,-0.5486537,-0.09953957,-0.7928857,8.025595664978027,-0.626556932926178,-9.231128692626953,20.495216369628906,79.77340698242188, 13.992438316345215
390,406552649,0.24708399,-0.54507214,-0.09733216,-0.79521847,7.813260555267334,-1.0531432628631592,-9.349974632263184,-2.3253719806671143,30.08127784729004, 9.190886497497559
391,406569316,0.24607646,-0.5475402,-0.09410626,-0.7942232,7.494962215423584,-1.1432174444198608,-9.28036880493164,-24.631494522094727,-15.222049713134766, 10.021892547607422
392,406585983,0.2431584,-0.5548803,-0.0900829,-0.79048526,7.688801288604736,-1.3850997686386108,-8.539124488830566,-42.63595199584961,-51.97642135620117, 10.386317253112793
393,406602650,0.23989414,-0.5653122,-0.08671066,-0.7844452,8.914301872253418,-2.259974718093872,-6.801748275756836,-44.151206970214844,-78.8113784790039, 11.785226821899414
394,406619317,0.23605344,-0.5779321,-0.07966149,-0.7771275,11.237534523010254,-8.708651542663574,0.43364259600639343,-69.0594253540039,-89.81600189208984, 26.380111694335938
395,406635984,0.2410119,-0.5864326,-0.0910806,-0.76792884,13.094987869262695,-2.9580790996551514,3.814824104309082,72.31645965576172,-100.4305648803711, 0.7647019624710083
396,406652651,0.2508446,-0.5943744,-0.115719154,-0.75525177,15.928101539611816,3.34000301361084,2.3969147205352783,164.88595581054688,-130.3885498046875, -21.406057357788086
397,406669318,0.2576028,-0.6049671,-0.13668822,-0.7409266,14.188750267028809,6.051723957061768,1.3260176181793213,129.98558044433594,-147.00807189941406, -17.4045467376709
398,406685985,0.2578152,-0.61891645,-0.14614832,-0.7274025,10.915492057800293,2.354584217071533,0.5004993677139282,37.4094352722168,-146.5370330810547, -1.1051875352859497
399,406702652,0.2541326,-0.6339702,-0.14839917,-0.7151756,9.540237426757812,0.21511346101760864,-0.44151583313941956,-18.488201141357422,-137.6773223876953, 8.921684265136719
400,406719319,0.24897696,-0.6482723,-0.14918911,-0.7039149,9.913348197937012,-3.201704740524292,-2.381349802017212,-31.764816284179688,-128.7217254638672, 5.597893714904785
401,406735986,0.24727675,-0.6612028,-0.15449479,-0.6912282,9.514878273010254,-5.925976753234863,-8.626127243041992,9.305986404418945,-132.6168212890625, 3.213665246963501
402,406752653,0.24634282,-0.6719775,-0.16188797,-0.6793775,11.917159080505371,0.9105332493782043,-1.704215407371521,25.498371124267578,-121.26116180419922, -6.377767562866211
403,406769320,0.24549215,-0.6815868,-0.16862777,-0.6683845,10.039430618286133,-0.7375301718711853,-2.12194561958313,23.848331451416016,-110.65507507324219, -5.710456371307373
404,406785987,0.2453741,-0.69013846,-0.17333367,-0.65837383,10.873614311218262,0.511367678642273,-1.238118290901184,18.5805721282959,-96.90930938720703, 4.302934169769287
405,406802654,0.24586426,-0.69743955,-0.17554761,-0.6498554,11.006072044372559,0.5516624450683594,-1.2804027795791626,10.515290260314941,-79.24634552001953, 14.880603790283203
406,406819321,0.24368803,-0.704402,-0.17334728,-0.64372736,10.811156272888184,0.49000540375709534,-1.7025314569473267,-24.302947998046875,-62.036190032958984, 19.69493293762207
407,406835988,0.23941223,-0.71123624,-0.16870998,-0.6390322,10.293705940246582,-0.7115001082420349,-2.1107637882232666,-46.74995803833008,-52.955204010009766, 19.663803100585938
408,406852655,0.23422089,-0.717532,-0.16339414,-0.6352882,10.012864112854004,-1.3331658840179443,-2.34179949760437,-54.42194366455078,-45.88922119140625, 16.774566650390625
409,406869322,0.23058558,-0.722764,-0.15995508,-0.6315513,9.959839820861816,-1.6341928243637085,-1.7121762037277222,-36.842533111572266,-42.4849739074707, 13.107535362243652
410,406885989,0.22792086,-0.72733295,-0.15763539,-0.62784547,9.814184188842773,-1.5315847396850586,-1.4202619791030884,-26.141708374023438,-40.16851043701172, 10.980277061462402
411,406902656,0.22554994,-0.73153734,-0.15570684,-0.62428826,9.52152156829834,-1.9861749410629272,-1.5223714113235474,-22.575246810913086,-38.15569305419922, 9.663248062133789
412,406919323,0.223519,-0.7353527,-0.15443105,-0.6208439,9.341200828552246,-2.124401092529297,-1.54318368434906,-17.583248138427734,-36.57658767700195, 7.244166374206543
413,406935990,0.22181611,-0.73893845,-0.15393604,-0.61730963,9.527543067932129,-1.7612351179122925,-1.409812331199646,-12.144673347473145,-36.91096878051758, 4.585972309112549
414,406952657,0.2199656,-0.7425259,-0.15378511,-0.61369425,9.816198348999023,-1.5850486755371094,-1.1400762796401978,-11.352803230285645,-38.02391815185547, 2.334040880203247
415,406969324,0.21838045,-0.7461271,-0.15404803,-0.60981447,9.482008934020996,-1.322139859199524,-1.1656875610351562,-7.996472358703613,-39.790096282958984, 1.7534620761871338
416,406985991,0.21704592,-0.7498518,-0.15459795,-0.6055683,9.447714805603027,-1.3425259590148926,-1.2704349756240845,-5.306639671325684,-42.36653137207031, 2.0122811794281006
417,407002658,0.2157361,-0.7537543,-0.15530795,-0.6009924,9.414468765258789,-1.2450300455093384,-1.458548665046692,-4.429671287536621,-45.03179168701172, 1.9701879024505615
418,407019325,0.21417522,-0.7578707,-0.15606251,-0.59615916,9.330974578857422,-1.3059358596801758,-1.532742977142334,-5.591169834136963,-47.59516906738281, 1.3113360404968262
419,407035992,0.21233714,-0.7622447,-0.15675372,-0.5910366,9.479836463928223,-1.002421498298645,-1.5514659881591797,-7.366675853729248,-50.37419509887695, 1.206990122795105
420,407052659,0.21030858,-0.7669457,-0.15747534,-0.5854624,9.55290699005127,-1.1554774045944214,-1.5420271158218384,-8.233481407165527,-54.33125686645508, 1.2871990203857422
421,407069326,0.20821418,-0.77195555,-0.15826365,-0.5793826,9.589924812316895,-1.1218153238296509,-1.600522756576538,-8.212146759033203,-58.42045974731445, 1.735826015472412
422,407085993,0.20601828,-0.7772022,-0.15910473,-0.5728865,9.63128662109375,-1.3333325386047363,-2.0631332397460938,-8.429652214050293,-61.77153396606445, 1.9057071208953857
423,407102660,0.20423217,-0.7823996,-0.16036908,-0.5660583,9.565509796142578,-1.4780263900756836,-2.494924545288086,-4.140749454498291,-63.513404846191406, 1.674332618713379
424,407119327,0.20259748,-0.7875521,-0.16188091,-0.55902666,9.581738471984863,-1.2250537872314453,-2.590909481048584,-2.07782244682312,-64.62080383300781, 1.1670022010803223
425,407135994,0.20073968,-0.7928209,-0.1634987,-0.55173093,9.711088180541992,-1.3302173614501953,-2.497511863708496,-2.7473256587982178,-66.90142059326172, 0.2330472320318222
426,407152661,0.19914499,-0.79820347,-0.1656845,-0.5438397,9.910417556762695,-1.6172033548355103,-2.3530383110046387,1.3528034687042236,-71.07706451416016, -0.9162209033966064
427,407169328,0.19800209,-0.8037124,-0.16870002,-0.5351467,10.118928909301758,-1.4602668285369873,-2.4380781650543213,7.672643661499023,-76.58322143554688, -2.54055118560791
428,407185995,0.19690916,-0.8093569,-0.17256546,-0.5257275,10.29955005645752,-1.382888674736023,-2.8183414936065674,11.730834007263184,-82.20530700683594, -5.9077653884887695
429,407202662,0.19602361,-0.8149474,-0.17728986,-0.51575565,10.505038261413574,-1.6626276969909668,-3.2175655364990234,16.71710205078125,-86.01334381103516, -9.254287719726562
430,407219329,0.19442353,-0.8206908,-0.1822046,-0.50543797,10.818726539611816,-2.1051318645477295,-2.8889806270599365,13.60171127319336,-89.6312255859375, -12.203581809997559
431,407235996,0.19189331,-0.82674074,-0.18695548,-0.49469614,11.211908340454102,-1.752237319946289,-2.7743752002716064,7.900521755218506,-94.0491714477539, -13.563793182373047
432,407252663,0.18757518,-0.83332616,-0.19114833,-0.4835756,11.424296379089355,-0.7655104994773865,-2.8549938201904297,-4.383155822753906,-99.60211181640625, -15.285873413085938
433,407269330,0.18186909,-0.8403637,-0.19486845,-0.4719522,11.429205894470215,-0.39399993419647217,-2.7503859996795654,-13.829779624938965,-105.21930694580078, -15.944424629211426
434,407285997,0.17516732,-0.8476005,-0.19813304,-0.46003607,12.306478500366211,-0.46201905608177185,-2.5619449615478516,-20.918272018432617,-108.34257507324219, -15.903888702392578
435,407302664,0.16761631,-0.8548008,-0.20172372,-0.44780344,13.405089378356934,-0.823184609413147,-2.4557321071624756,-24.3614501953125,-111.64713287353516, -20.153377532958984
436,407319331,0.15907115,-0.8618889,-0.20582019,-0.43529555,13.975151062011719,-0.344338983297348,-1.634040355682373,-28.137121200561523,-114.91144561767578, -26.02161979675293
437,407335998,0.14929457,-0.86887217,-0.20960657,-0.42289186,14.276835441589355,-0.48059654235839844,-0.5310255289077759,-36.396427154541016,-115.4235610961914, -28.126434326171875
438,407352665,0.13792571,-0.8758769,-0.21300012,-0.41042322,15.27863883972168,0.013051831163465977,0.46787089109420776,-46.98114776611328,-117.8137435913086, -30.30880355834961
439,407369332,0.12471129,-0.8828723,-0.21641153,-0.39768028,15.606661796569824,0.24958159029483795,1.6617575883865356,-57.63600540161133,-122.21742248535156, -35.373939514160156
440,407385999,0.11032974,-0.88987166,-0.21970023,-0.3843013,14.797858238220215,-0.2834431529045105,1.1863524913787842,-64.11212158203125,-127.78768920898438, -37.267765045166016
441,407402666,0.09662987,-0.8960582,-0.22319433,-0.37138474,14.097624778747559,-0.7566558122634888,1.1600096225738525,-59.479713439941406,-121.99656677246094, -38.30518341064453
442,407419333,0.08524,-0.90064865,-0.22747555,-0.36030668,13.954075813293457,-1.1083632707595825,1.4176779985427856,-44.99825668334961,-103.6274642944336, -40.93359375
443,407436000,0.07492281,-0.9045379,-0.23075499,-0.35064253,9.979179382324219,-2.7412853240966797,-1.3793586492538452,-42.640201568603516,-90.92796325683594, -34.0076904296875
444,407452667,0.06806316,-0.90800065,-0.23454574,-0.34042767,8.017664909362793,-4.99835729598999,-9.738826751708984,-18.820011138916016,-88.12826538085938, -29.261062622070312
445,407469334,0.05801586,-0.90988195,-0.23360926,-0.3378995,11.632014274597168,-2.826303720474243,1.9201278686523438,-61.46409606933594,-39.34749221801758, -13.383190155029297
446,407486001,0.05779535,-0.90978146,-0.23222563,-0.33915922,7.648852348327637,-4.394218921661377,3.3214826583862305,-6.335329532623291,4.862476825714111, 7.532703876495361
447,407502668,0.06701475,-0.9074784,-0.23442563,-0.34210634,6.39396333694458,-0.0035359454341232777,-0.9180054664611816,59.2294807434082,34.16343307495117, 2.9282138347625732
448,407519335,0.06670169,-0.9046197,-0.23031001,-0.35237992,7.97351598739624,1.089430332183838,-0.173720121383667,-26.654951095581055,68.71759796142578, 15.643006324768066
449,407536002,0.063972905,-0.90053415,-0.22184667,-0.36841565,7.292917728424072,0.49818190932273865,-0.2931138277053833,-60.77493667602539,105.6808853149414, 32.24510192871094
450,407552669,0.061346836,-0.8943254,-0.21167473,-0.3893746,7.704880714416504,0.9069265127182007,0.027156740427017212,-71.04546356201172,142.44082641601562, 37.67018127441406
451,407569336,0.058879916,-0.8857947,-0.19950858,-0.41484636,7.605767726898193,0.9554519057273865,-0.4698764681816101,-80.99852752685547,177.47323608398438, 45.06748580932617
452,407586003,0.05807763,-0.8748961,-0.18549474,-0.44359422,8.332221031188965,0.6156644225120544,-1.487248420715332,-79.66840362548828,207.21200561523438, 56.48500442504883
453,407602670,0.0606716,-0.8615495,-0.17094643,-0.4741613,9.264421463012695,0.25093191862106323,-2.648066997528076,-62.21326446533203,230.17010498046875, 66.20027160644531
454,407619337,0.06771015,-0.84585273,-0.15674184,-0.5053521,10.173235893249512,-0.08438083529472351,-3.941524028778076,-34.517845153808594,246.61474609375, 75.62399291992188
455,407636004,0.07966251,-0.82806003,-0.1441725,-0.5358966,10.959817886352539,-0.19142132997512817,-4.657452583312988,1.4160667657852173,254.68475341796875, 81.22322082519531
456,407652671,0.09604835,-0.8084927,-0.13365771,-0.5650223,11.86048698425293,0.6499132513999939,-5.19826602935791,36.60920715332031,256.43109130859375, 84.87937927246094
457,407669338,0.11346812,-0.78738177,-0.12350049,-0.59321386,12.557165145874023,1.5650242567062378,-5.342766761779785,45.62425231933594,257.9705505371094, 86.11607360839844
458,407686005,0.13094749,-0.7644905,-0.113756575,-0.6208596,12.887088775634766,1.973260521888733,-5.1852569580078125,49.489261627197266,262.033447265625, 83.05230712890625
459,407702672,0.14764138,-0.73989296,-0.10489816,-0.64788675,13.159594535827637,2.592886209487915,-5.127965927124023,51.16288757324219,264.6861572265625, 74.28788757324219
460,407719339,0.16166164,-0.7143875,-0.095898986,-0.67403215,13.365163803100586,2.6743509769439697,-5.017196178436279,38.49071502685547,262.4953918457031, 63.358768463134766
461,407736006,0.17365204,-0.6881858,-0.087287664,-0.69901794,13.67812442779541,1.6696326732635498,-5.009558200836182,31.860673904418945,258.2983093261719, 52.90217971801758
462,407752673,0.18570796,-0.66130203,-0.08206418,-0.72212034,13.745546340942383,1.082247257232666,-5.565715789794922,50.403202056884766,248.7058563232422, 39.04574966430664
463,407769340,0.19787772,-0.6343515,-0.08159065,-0.7428229,13.485820770263672,0.7383795976638794,-6.057187080383301,75.9536361694336,232.18016052246094, 21.058429718017578
464,407786007,0.21097605,-0.60822237,-0.08726103,-0.7602239,12.259737014770508,-0.44168710708618164,-6.587159156799316,112.13201141357422,205.81007385253906, 3.9748170375823975
465,407802674,0.22666773,-0.5837671,-0.09894638,-0.7733351,10.502043724060059,-1.493473768234253,-8.021114349365234,154.57077026367188,172.0238494873047, -0.387874960899353
466,407819341,0.2433888,-0.5626927,-0.1121865,-0.78201866,9.53508186340332,0.6251589059829712,-7.788938522338867,164.7323760986328,134.6294708251953, 8.050378799438477
467,407836008,0.25319916,-0.5483743,-0.11998822,-0.7878951,8.913488388061523,0.37720024585723877,-8.519050598144531,99.59976196289062,91.28280639648438, 1.8485424518585205
468,407852675,0.2586112,-0.540304,-0.12705344,-0.7906006,7.59605073928833,-0.2739044427871704,-9.610186576843262,70.76714324951172,43.21382522583008, -8.522603034973145
469,407869342,0.25925073,-0.5392797,-0.13076566,-0.7904852,7.218895435333252,-0.5122997760772705,-9.665618896484375,24.76051902770996,-3.6881868839263916, -10.83772087097168
470,407886009,0.25653043,-0.54500425,-0.13076894,-0.7874401,7.193622589111328,-1.924854040145874,-9.671372413635254,-17.240869522094727,-47.5604362487793, -4.057997226715088
471,407902676,0.2532454,-0.5547024,-0.13188149,-0.78152364,7.5535197257995605,-2.431960105895996,-9.117449760437012,-17.76531982421875,-82.22309875488281, -2.643937110900879
472,407919343,0.24624112,-0.5674702,-0.12582774,-0.77557105,13.312560081481934,-5.515391826629639,3.996079683303833,-75.75395202636719,-89.68326568603516, 7.54153299331665
473,407936010,0.24516991,-0.5761245,-0.124455586,-0.7697294,11.4796724319458,-8.349197387695312,7.491575717926025,-20.763450622558594,-70.1186294555664, 17.139251708984375
474,407952677,0.2463406,-0.58588374,-0.13426173,-0.76028305,13.181986808776855,-1.2933154106140137,-0.6800496578216553,48.507930755615234,-107.21530151367188, -8.305849075317383
475,407969344,0.24741329,-0.5975508,-0.145539,-0.748691,15.218700408935547,2.1474671363830566,1.0026086568832397,54.55208969116211,-128.39822387695312, -9.355079650878906
476,407986011,0.24639551,-0.61009264,-0.15498023,-0.73692435,11.87851619720459,1.9292925596237183,-0.0960150957107544,35.19373321533203,-132.5800018310547, -11.382121086120605
477,408002678,0.24564388,-0.62249076,-0.16074573,-0.72548294,9.35716438293457,0.05656975135207176,-1.2113200426101685,17.57818031311035,-123.97047424316406, 4.697380065917969
478,408019345,0.24420422,-0.63409114,-0.16428061,-0.7150559,9.964009284973145,0.6937487721443176,-1.738966703414917,3.7354660034179688,-112.63525390625, 8.220398902893066
479,408036012,0.24364412,-0.64452434,-0.16828273,-0.70491624,11.400046348571777,-2.406912088394165,-2.1340243816375732,11.500401496887207,-105.42381286621094, 8.713858604431152
480,408052679,0.24742822,-0.65242094,-0.17720632,-0.69406366,10.485689163208008,-0.31478726863861084,-1.540893793106079,59.68360900878906,-99.49840545654297, 6.203299522399902
481,408069346,0.2506686,-0.66068876,-0.18468508,-0.68304276,10.194169998168945,-1.864208459854126,-4.607544422149658,49.92530059814453,-100.22541809082031, 10.824569702148438
482,408086013,0.25251824,-0.66881794,-0.18993443,-0.6729355,10.953194618225098,0.3511931896209717,-1.6307438611984253,32.21936798095703,-93.32191467285156, 12.655977249145508
483,408102680,0.2547516,-0.67606163,-0.19494645,-0.6633539,9.879157066345215,-1.10792875289917,-1.5407848358154297,33.738407135009766,-85.89567565917969, 13.458162307739258
484,408119347,0.2571384,-0.68274003,-0.19959587,-0.6541465,10.394914627075195,0.05933491885662079,-0.8052693009376526,33.286773681640625,-80.74188995361328, 14.4241304397583
485,408136014,0.25766292,-0.6894938,-0.2017714,-0.64613986,10.751819610595703,-0.01689743995666504,-0.9420810341835022,11.637053489685059,-73.63484954833984, 15.645523071289062
486,408152681,0.2573859,-0.69590765,-0.20251179,-0.6391041,10.283405303955078,-1.256157636642456,-1.5456348657608032,0.7197220921516418,-66.10255432128906, 16.70316505432129
487,408169348,0.25886315,-0.70109934,-0.2044742,-0.6321709,9.872838020324707,-1.5032849311828613,-1.6655702590942383,16.50148582458496,-59.96636962890625, 16.67844581604004
488,408186015,0.26078254,-0.70549405,-0.20640032,-0.6258353,9.988004684448242,-0.7340385317802429,-1.3956562280654907,19.053918838500977,-52.94243240356445, 16.585477828979492
489,408202682,0.26159787,-0.70965517,-0.20704682,-0.62055427,10.059773445129395,-0.9502906203269958,-1.340558648109436,7.116734981536865,-46.104530334472656, 15.820183753967285
490,408219349,0.2622099,-0.7134003,-0.20734549,-0.6158848,9.844548225402832,-1.4253020286560059,-1.306167721748352,4.516375541687012,-41.01909255981445, 14.959371566772461
491,408236016,0.2629595,-0.71673775,-0.20768505,-0.61156076,9.652189254760742,-1.2821104526519775,-1.3236470222473145,5.6063127517700195,-37.487831115722656, 14.135210037231445
492,408252683,0.26295477,-0.7200106,-0.20744456,-0.60778797,9.652835845947266,-1.201431393623352,-1.2841547727584839,-1.2210785150527954,-34.5417594909668, 12.733011245727539
493,408269350,0.26203826,-0.72334,-0.20655698,-0.6045243,9.536882400512695,-1.2447749376296997,-1.2837368249893188,-9.26844596862793,-32.40024948120117, 11.287651062011719
494,408286017,0.26078662,-0.7267371,-0.20565712,-0.60128945,9.459310531616211,-1.4598692655563354,-1.1175177097320557,-11.149886131286621,-33.00526428222656, 10.0014009475708
495,408302684,0.25963536,-0.7302157,-0.20517743,-0.59772635,9.499602317810059,-1.159829020500183,-0.9782471656799316,-8.596420288085938,-35.60773468017578, 9.021305084228516
496,408319351,0.2580538,-0.7340345,-0.20461325,-0.5939151,9.494074821472168,-1.167851448059082,-1.0250660181045532,-11.362605094909668,-38.72333526611328, 8.601929664611816
497,408336018,0.25635898,-0.7381256,-0.2044255,-0.5896279,9.441502571105957,-1.3323086500167847,-1.1798789501190186,-10.213481903076172,-43.079368591308594, 7.469656944274902
498,408352685,0.25454396,-0.7424912,-0.20456247,-0.5848662,9.384174346923828,-1.1647059917449951,-1.167845606803894,-9.326059341430664,-47.35677719116211, 6.557437419891357
499,408369352,0.25206164,-0.74734616,-0.20453228,-0.57974595,9.437435150146484,-1.1230710744857788,-1.261088252067566,-13.758782386779785,-51.815956115722656, 6.045485496520996
500,408386019,0.24944325,-0.7524841,-0.20470588,-0.5741442,9.500285148620605,-1.3616549968719482,-1.4966650009155273,-13.461807250976562,-55.97610855102539, 5.691227436065674
501,408402686,0.24705923,-0.7577713,-0.20524453,-0.56799597,9.560348510742188,-1.0159164667129517,-1.7469022274017334,-10.29659366607666,-59.70176315307617, 5.875918388366699
502,408419353,0.24467759,-0.7632641,-0.2057237,-0.5614612,9.657110214233398,-0.8427504301071167,-2.0458133220672607,-10.321809768676758,-62.426536560058594, 7.144259929656982
503,408436020,0.24193825,-0.7689946,-0.20588914,-0.5547278,9.671645164489746,-1.032502293586731,-2.289247989654541,-13.530583381652832,-64.37548065185547, 8.084939002990723
504,408452687,0.23913388,-0.77477056,-0.20610091,-0.54778486,9.679893493652344,-1.583160638809204,-2.480463981628418,-13.475875854492188,-65.83594512939453, 8.007901191711426
505,408469354,0.23634547,-0.780494,-0.20656331,-0.54064953,9.642036437988281,-1.583006739616394,-2.527979850769043,-12.090112686157227,-67.0622329711914, 6.973808288574219
506,408486021,0.2335029,-0.78618217,-0.20717312,-0.53336054,9.787887573242188,-1.7676905393600464,-2.6728615760803223,-11.560652732849121,-68.08187103271484, 6.181402206420898
507,408502688,0.23067701,-0.791761,-0.20818575,-0.5258912,9.866170883178711,-1.655411720275879,-2.974930763244629,-9.562475204467773,-69.28845977783203, 4.19666862487793
508,408519355,0.22807454,-0.79719985,-0.2098673,-0.5180833,9.995481491088867,-1.9850010871887207,-2.8092830181121826,-5.223432540893555,-71.37657928466797, 1.6999516487121582
509,408536022,0.22537048,-0.8027057,-0.21200131,-0.5098307,10.411174774169922,-1.8546420335769653,-2.5663580894470215,-3.6350908279418945,-74.91963195800781, -0.35110586881637573
510,408552689,0.22172478,-0.80858594,-0.21390927,-0.50126845,10.727575302124023,-1.5255746841430664,-2.640566825866699,-9.757017135620117,-78.98023986816406, -1.3799021244049072
511,408569356,0.21670276,-0.81500036,-0.21541187,-0.49235395,11.072911262512207,-1.1358563899993896,-2.8993139266967773,-19.1058349609375,-84.20284271240234, -2.5448293685913086
512,408586023,0.21050018,-0.8218016,-0.21663445,-0.48311642,11.227102279663086,-0.9378786683082581,-2.940326452255249,-26.768272399902344,-88.67240905761719, -3.9138286113739014
513,408602690,0.20370725,-0.8288684,-0.21808171,-0.47320315,11.525506019592285,-1.2655094861984253,-2.6038572788238525,-28.736997604370117,-94.59760284423828, -5.7652587890625
514,408619357,0.19628906,-0.836196,-0.2198267,-0.4625188,12.1965913772583,-0.7307783961296082,-2.637075424194336,-30.54447364807129,-101.21992492675781, -8.021767616271973
515,408636024,0.18778247,-0.8437364,-0.22200562,-0.4511766,13.594452857971191,-1.4023343324661255,-2.294337749481201,-34.716583251953125,-107.93941497802734, -12.761857032775879
516,408652691,0.17930327,-0.8513436,-0.22507197,-0.4386427,13.939774513244629,-1.01986825466156,-1.7888906002044678,-30.076871871948242,-116.20289611816406, -16.1815185546875
517,408669358,0.16959366,-0.8592047,-0.22842441,-0.42523846,15.069889068603516,-0.30069515109062195,-1.1976027488708496,-35.386478424072266,-124.36786651611328, -20.09636116027832
518,408686025,0.1576927,-0.8672953,-0.2311313,-0.41171655,16.01270866394043,-0.05847228690981865,1.0210423469543457,-50.30492401123047,-128.48008728027344, -22.183073043823242
519,408702692,0.14324564,-0.87555104,-0.23247285,-0.3985568,15.890715599060059,0.2858620882034302,1.0286730527877808,-70.10929870605469,-129.43301391601562, -21.372669219970703
520,408719359,0.12522875,-0.88386524,-0.23210974,-0.38629678,14.380281448364258,-0.079445481300354,0.8289853930473328,-97.76956176757812,-128.28565979003906, -21.68144416809082
521,408736026,0.10701026,-0.8915054,-0.2318317,-0.37419382,12.533146858215332,0.044575080275535583,-0.5521299242973328,-98.43852996826172,-126.00765991210938, -23.950096130371094
522,408752693,0.08919536,-0.89786863,-0.23187192,-0.36347207,11.98452377319336,-1.1543424129486084,-0.8657589554786682,-96.40533447265625,-113.8993911743164, -27.922441482543945
523,408769360,0.077122904,-0.9019689,-0.23305461,-0.35523224,11.450252532958984,-1.427475929260254,0.9062576293945312,-60.669429779052734,-84.51524353027344, -25.7686710357666
524,408786027,0.06583213,-0.90523046,-0.23398006,-0.34853628,8.371448516845703,-1.0478121042251587,-1.7189643383026123,-58.485755920410156,-71.56109619140625, -24.4427433013916
525,408802694,0.052821796,-0.9078527,-0.23400716,-0.3438813,5.721510410308838,-4.53900146484375,-10.26343822479248,-74.340087890625,-59.711570739746094, -24.940593719482422
526,408819361,0.037008464,-0.90874493,-0.2271541,-0.3481585,9.636296272277832,-4.301472187042236,2.3589510917663574,-121.87748718261719,-1.8404713869094849, 5.311782360076904
527,408836028,0.036472704,-0.9072328,-0.22250272,-0.35509327,6.713346481323242,-4.990762233734131,4.775598049163818,-24.714563369750977,43.762840270996094, 23.659008026123047
528,408852695,0.052766956,-0.90331095,-0.2245924,-0.36166778,6.0211358070373535,-0.92441725730896,-0.3476678431034088,97.85352325439453,71.40540313720703, 19.084135055541992
529,408869362,0.06236363,-0.89804053,-0.22187638,-0.37470657,7.370558261871338,1.879534125328064,-0.5769976377487183,34.8060188293457,106.28945922851562, 27.854711532592773
530,408886029,0.065291025,-0.8916949,-0.21293075,-0.39405325,8.205475807189941,1.2314891815185547,-0.1656264215707779,-31.579195022583008,140.48779296875, 44.80111312866211
531,408902696,0.067722544,-0.8831329,-0.20227328,-0.4178227,9.321738243103027,0.17645536363124847,-0.0978107750415802,-44.73759460449219,173.63272094726562, 48.71992111206055
532,408919363,0.07421243,-0.87199616,-0.19213411,-0.44407183,9.1266450881958,-0.2891159653663635,-0.8500221967697144,-20.85757827758789,201.46746826171875, 52.48688888549805
533,408936030,0.08471351,-0.8582696,-0.18238252,-0.47215858,9.57776927947998,-0.2858572006225586,-2.3862457275390625,3.264648914337158,225.48269653320312, 58.04558563232422
534,408952697,0.0978972,-0.842146,-0.17258698,-0.501418,10.94398307800293,0.015341595746576786,-3.1560020446777344,18.87665557861328,243.57518005371094, 63.32173538208008
535,408969364,0.11270239,-0.82399046,-0.16316438,-0.53076863,11.531270980834961,-0.170554518699646,-3.8246262073516846,30.809545516967773,252.7838897705078, 64.28114318847656
536,408986031,0.12838875,-0.8040329,-0.15373766,-0.5598322,12.015694618225098,0.3891081213951111,-4.672924041748047,37.5024299621582,258.7342529296875, 65.72412872314453
537,409002698,0.14310789,-0.7826745,-0.1426528,-0.58872,13.152189254760742,0.6221303939819336,-4.911955833435059,27.19461441040039,263.6174011230469, 69.85023498535156
538,409019365,0.15738025,-0.7599383,-0.13064507,-0.6169743,13.397346496582031,0.6536850333213806,-4.721375465393066,23.030149459838867,266.2812805175781, 72.29031372070312
539,409036032,0.17121197,-0.7359301,-0.118632846,-0.6442203,13.6749906539917,1.2258026599884033,-4.714810848236084,22.989622116088867,266.04974365234375, 70.40373229980469
540,409052699,0.18330906,-0.7111014,-0.10627747,-0.67040145,14.354708671569824,1.5229085683822632,-4.707548141479492,14.528839111328125,263.32275390625, 65.05680084228516
541,409069366,0.19325086,-0.68584776,-0.09381578,-0.69531703,14.334309577941895,1.3511455059051514,-4.727112293243408,4.962789058685303,257.69866943359375, 56.945194244384766
542,409086033,0.20204099,-0.6605811,-0.08266166,-0.718317,14.205409049987793,0.33987993001937866,-4.949245452880859,7.051173686981201,246.29806518554688, 47.8311653137207
543,409102700,0.211657,-0.6355696,-0.07598707,-0.7385654,13.533918380737305,0.11675803363323212,-5.272546291351318,34.1410026550293,226.84744262695312, 35.54628372192383
544,409119367,0.22188526,-0.611822,-0.07455308,-0.7555678,12.434378623962402,0.208087757229805,-5.822520732879639,63.29682540893555,199.00538635253906, 21.15569305419922
545,409136034,0.23283336,-0.5903982,-0.0776046,-0.768893,10.75969409942627,-0.009787186980247498,-6.639650821685791,87.98351287841797,165.06727600097656, 12.849722862243652
546,409152701,0.2441551,-0.5719667,-0.08239807,-0.7787512,9.482190132141113,0.4607844352722168,-7.115711212158203,95.78929138183594,132.66903686523438, 14.922781944274902
547,409169368,0.25153613,-0.5585849,-0.08464402,-0.7858424,8.995223999023438,1.2454794645309448,-7.119364261627197,59.738712310791016,96.8836898803711, 11.35971736907959
548,409186035,0.25459632,-0.55037975,-0.08498847,-0.7905947,8.211177825927734,-0.1098918616771698,-7.683033466339111,25.295072555541992,60.79296112060547, 2.3985188007354736
549,409202702,0.25507182,-0.54678404,-0.085078195,-0.7929235,7.641547203063965,-0.4457969069480896,-7.728532314300537,7.492445468902588,25.593793869018555, -3.7425496578216553
550,409219369,0.25290543,-0.54809606,-0.081945896,-0.79304147,7.353849411010742,-0.7759395241737366,-7.546029567718506,-27.304269790649414,-5.280852794647217, 0.7204934358596802
551,409236036,0.24905786,-0.55377245,-0.077145964,-0.7907938,7.520511150360107,-1.4458707571029663,-7.303836822509766,-48.971031188964844,-35.96028137207031, 4.416013717651367
552,409252703,0.24528383,-0.5622295,-0.07458227,-0.78623885,7.545999050140381,-2.1159842014312744,-7.185788631439209,-40.05137634277344,-63.57867431640625, 1.7281423807144165
553,409269370,0.24308269,-0.57251745,-0.07652305,-0.7792812,7.898770332336426,-3.1367392539978027,-7.039948463439941,-11.456504821777344,-89.48233032226562, -2.1973636150360107
554,409286037,0.23936915,-0.584151,-0.07440349,-0.7719679,12.052159309387207,-7.744648456573486,5.203010082244873,-41.20939636230469,-92.03480529785156, 6.969857215881348
555,409302704,0.24894036,-0.5884691,-0.08166256,-0.764895,10.158769607543945,-14.776440620422363,8.548837661743164,73.86314392089844,-60.90802764892578, 35.62593078613281
556,409319371,0.26443887,-0.5901938,-0.11059987,-0.75465953,13.213768005371094,6.935089111328125,3.3959128856658936,218.10989379882812,-93.9210205078125, -17.0861759185791
557,409336038,0.26992548,-0.59757626,-0.12833606,-0.74402475,15.023306846618652,6.788842678070068,2.0654008388519287,109.32524871826172,-112.14581298828125, -18.49477195739746
558,409352705,0.26887643,-0.6084988,-0.1373108,-0.7338805,12.833950996398926,5.4307169914245605,1.682268500328064,30.63141441345215,-117.73735809326172, -13.650879859924316
559,409369372,0.26436746,-0.62232596,-0.13799717,-0.72372454,10.541288375854492,1.33578360080719,0.4381263852119446,-31.038843154907227,-120.38648223876953, 6.386663436889648
560,409386039,0.2586898,-0.6365203,-0.13611938,-0.7137179,10.157292366027832,-1.3301165103912354,-1.2295663356781006,-49.59958267211914,-118.022705078125, 11.64332103729248
561,409402706,0.25513545,-0.6489623,-0.13705714,-0.70354074,9.918821334838867,-5.026966094970703,-3.1145882606506348,-23.212814331054688,-113.17678833007812, 8.40233039855957
562,409419373,0.25558034,-0.65861654,-0.14326441,-0.69309336,9.554499626159668,-3.474618673324585,-3.8126134872436523,25.282262802124023,-106.34525299072266, 2.046931266784668
563,409436040,0.25606203,-0.6677202,-0.15000826,-0.6827004,10.897795677185059,-1.640400767326355,-4.244584083557129,28.9233455657959,-104.35253143310547, -0.8712263107299805
564,409452707,0.2532075,-0.6764114,-0.15396252,-0.67427695,10.369054794311523,-0.6471218466758728,-1.6803393363952637,-0.7840024828910828,-91.87281799316406, -7.6234893798828125
565,409469374,0.25307402,-0.683526,-0.159527,-0.66580576,10.244524002075195,-1.079200267791748,-1.437844157218933,22.13261604309082,-84.70328521728516, -4.0811357498168945
566,409486041,0.25553837,-0.68950033,-0.1657729,-0.6571218,10.736345291137695,0.0018906472250819206,-0.8303827047348022,39.67913818359375,-78.82063293457031, 3.7236952781677246
567,409502708,0.25939783,-0.69479203,-0.1713916,-0.6485385,10.671506881713867,-0.02614627033472061,-1.1900705099105835,44.54475784301758,-72.57351684570312, 12.048391342163086
568,409519375,0.26284537,-0.6997206,-0.17533542,-0.64075047,10.479582786560059,-0.656634509563446,-1.2996958494186401,34.820899963378906,-64.65889739990234, 16.37065315246582
569,409536042,0.26463103,-0.7045647,-0.17743698,-0.63409424,10.25714111328125,-1.2967370748519897,-1.6264808177947998,17.500106811523438,-57.52113723754883, 15.765695571899414
570,409552709,0.26459685,-0.7092044,-0.17798197,-0.6287609,9.947617530822754,-1.5813767910003662,-1.4495608806610107,0.6593602895736694,-49.61447525024414, 12.713781356811523
571,409569376,0.26353353,-0.7135993,-0.17766358,-0.6243091,9.814281463623047,-1.6409026384353638,-1.2729171514511108,-8.728577613830566,-43.954097747802734, 10.56893539428711
572,409586043,0.26346567,-0.7173218,-0.1781044,-0.61993086,9.903764724731445,-1.962188482284546,-1.2191731929779053,0.5453169941902161,-40.87754440307617, 10.15992259979248
573,409602710,0.26484066,-0.7203258,-0.17963696,-0.6154032,9.72791576385498,-1.712984561920166,-1.1326122283935547,13.796555519104004,-38.774658203125, 10.31038761138916
574,409619377,0.2661027,-0.72316027,-0.18102555,-0.61111265,9.616703987121582,-1.5679306983947754,-0.9302290678024292,12.642661094665527,-36.77294921875, 9.899577140808105
575,409636044,0.26612994,-0.72620875,-0.18164541,-0.6072899,9.61616039276123,-1.5639041662216187,-0.7677668929100037,2.2965033054351807,-35.49233627319336, 7.941952705383301
576,409652711,0.26461554,-0.7297407,-0.18154699,-0.60373676,9.517374038696289,-1.6419367790222168,-0.5367751121520996,-9.624737739562988,-36.79380416870117, 5.2020111083984375
577,409669378,0.26203015,-0.7337812,-0.18117245,-0.60006875,9.42053508758545,-1.7455335855484009,-0.5710045695304871,-16.929685592651367,-40.33523941040039, 2.9848666191101074
578,409686045,0.25935015,-0.738121,-0.1811827,-0.59589267,9.33223819732666,-1.5932022333145142,-0.7634550333023071,-15.73054027557373,-44.96348571777344, 1.9398002624511719
579,409702712,0.25638506,-0.7428046,-0.18119198,-0.5913354,9.400967597961426,-1.1170953512191772,-1.0349178314208984,-17.32232666015625,-48.67748260498047, 1.8854261636734009
580,409719379,0.25291187,-0.7479521,-0.18093115,-0.58640236,9.469712257385254,-1.286962866783142,-1.1596463918685913,-21.369661331176758,-52.65562057495117, 2.4432168006896973
581,409736046,0.24941704,-0.75336826,-0.18083236,-0.5809711,9.36584186553955,-1.5908490419387817,-1.498661756515503,-20.676589965820312,-56.62492752075195, 2.7272818088531494
582,409752713,0.24636425,-0.75877297,-0.18132626,-0.57505614,9.39208698272705,-1.7231248617172241,-1.8708354234695435,-15.400467872619629,-59.56528091430664, 2.236818790435791
583,409769380,0.243805,-0.7640411,-0.1821943,-0.5688636,9.52656364440918,-1.354947566986084,-2.1056947708129883,-10.77146053314209,-60.502498626708984, 2.53560733795166
584,409786047,0.24130727,-0.7693046,-0.18296455,-0.56255245,9.766265869140625,-1.2683560848236084,-2.385932207107544,-10.67650318145752,-60.876163482666016, 3.4831628799438477
585,409802714,0.23872675,-0.77461696,-0.18346044,-0.55616605,9.825952529907227,-1.0367783308029175,-2.488030195236206,-12.162474632263184,-61.122127532958984, 4.803069114685059
586,409819381,0.23600796,-0.78000194,-0.18371493,-0.5496783,9.566611289978027,-1.443199872970581,-2.579735517501831,-13.813343048095703,-61.72793197631836, 5.8221116065979
587,409836048,0.23357774,-0.7852625,-0.18426001,-0.5430035,9.479802131652832,-1.7912250757217407,-2.6898608207702637,-10.730527877807617,-62.37763977050781, 5.501500129699707
588,409852715,0.2311599,-0.790417,-0.18511124,-0.5362278,9.690281867980957,-1.9910656213760376,-2.6660447120666504,-9.225724220275879,-63.01052474975586, 3.9200479984283447
589,409869382,0.2287114,-0.7955523,-0.186328,-0.5292159,9.7499361038208,-1.5686511993408203,-2.738563060760498,-7.715865135192871,-64.85612487792969, 2.167987585067749
590,409886049,0.22594142,-0.8007599,-0.18784027,-0.52196765,9.874456405639648,-1.7483820915222168,-2.695859670639038,-8.2124605178833,-67.2998046875, -0.15356342494487762
591,409902716,0.22352979,-0.8058934,-0.190006,-0.51426476,10.183511734008789,-1.8600714206695557,-2.5627918243408203,-3.1949069499969482,-70.1039047241211, -1.8562871217727661
592,409919383,0.22045596,-0.81129336,-0.1922906,-0.50618863,10.416847229003906,-1.9515619277954102,-2.444681406021118,-6.369721412658691,-74.17909240722656, -3.935762882232666
593,409936050,0.21643335,-0.81708455,-0.1944584,-0.49771053,10.747795104980469,-1.5983474254608154,-2.690922737121582,-12.135916709899902,-78.88034057617188, -5.460597038269043
594,409952717,0.21076189,-0.8234481,-0.19602689,-0.48896477,10.90662670135498,-1.2153403759002686,-3.0290133953094482,-23.946779251098633,-83.67727661132812, -6.571076393127441
595,409969384,0.203817,-0.8301942,-0.19725184,-0.47992522,11.488384246826172,-1.2686131000518799,-2.7510714530944824,-32.47237777709961,-87.8653564453125, -7.961135387420654
596,409986051,0.19632387,-0.8370949,-0.19907787,-0.4702101,12.650042533874512,-1.275642991065979,-2.7744297981262207,-32.921810150146484,-93.8449935913086, -12.039766311645508
597,410002718,0.18887332,-0.8441042,-0.20199743,-0.4593609,13.597700119018555,-1.1265708208084106,-2.3054897785186768,-27.73906135559082,-102.17588806152344, -16.511831283569336
598,410019385,0.1805807,-0.85147965,-0.20517841,-0.44752136,14.439505577087402,-0.6354579925537109,-1.2468284368515015,-30.90521240234375,-110.63392639160156, -18.887113571166992
599,410036052,0.17064191,-0.8594938,-0.20813246,-0.43454912,15.833733558654785,0.04502669349312782,-0.32103103399276733,-40.43974304199219,-121.33122253417969, -20.306808471679688
600,410052719,0.15695733,-0.86848855,-0.20950787,-0.42094997,17.282054901123047,0.38421857357025146,1.9919772148132324,-67.54747772216797,-131.55332946777344, -20.018251419067383
601,410069386,0.14044295,-0.87812144,-0.20923829,-0.406692,17.170183181762695,0.6177557706832886,2.7735671997070312,-88.9513168334961,-139.74253845214844, -16.7430419921875
602,410086053,0.11937277,-0.88811886,-0.2068531,-0.39269227,15.956567764282227,0.36349913477897644,1.752305269241333,-123.10192108154297,-143.83111572265625, -16.428770065307617
603,410102720,0.09810515,-0.8972472,-0.20429632,-0.37892777,13.935718536376953,-0.13626815378665924,-0.17314031720161438,-124.3913803100586,-140.2884063720703, -17.349571228027344
604,410119387,0.07908796,-0.9044374,-0.20303577,-0.36676285,12.327106475830078,-1.8274680376052856,-0.10231928527355194,-108.06727600097656,-123.15664672851562, -23.298931121826172
605,410136054,0.06882085,-0.90975946,-0.20421748,-0.3548197,9.50097370147705,-2.183635950088501,-0.6925087571144104,-46.79261016845703,-106.24186706542969, -19.173717498779297
606,410152721,0.05634324,-0.91431963,-0.20210165,-0.3464108,8.433476448059082,-3.844062566757202,-5.073637962341309,-73.28221893310547,-83.86395263671875, -6.705469131469727
607,410169388,0.046715524,-0.91747487,-0.19928546,-0.3410911,6.418776512145996,-4.081634044647217,-6.750564098358154,-60.81124496459961,-56.875728607177734, 1.3010609149932861
608,410186055,0.03288857,-0.9173853,-0.19323812,-0.3463841,9.617369651794434,-1.4116929769515991,5.371310234069824,-108.40991973876953,12.97813606262207, 3.940096616744995
609,410202722,0.03558999,-0.9154681,-0.19107807,-0.35233623,5.004576683044434,-4.93831205368042,0.9162396192550659,4.627506732940674,42.48112106323242, 16.186758041381836
610,410219389,0.049110755,-0.9115455,-0.19155622,-0.36052617,5.7338080406188965,-1.2317993640899658,-0.4532446265220642,76.63436126708984,74.96988677978516, 22.590030670166016
611,410236056,0.059170134,-0.90564376,-0.18901204,-0.37494376,6.574644565582275,1.4787280559539795,0.8612363338470459,39.9041862487793,115.34991455078125, 28.244871139526367
612,410252723,0.06398811,-0.8977635,-0.18251376,-0.3957466,7.7217230796813965,1.377040982246399,1.1024677753448486,-10.414040565490723,154.98095703125, 34.19598388671875
613,410269390,0.06705079,-0.88747025,-0.17330794,-0.42174092,8.60843276977539,0.42047119140625,0.18040576577186584,-34.068851470947266,192.5530548095703, 40.822505950927734
614,410286057,0.07086826,-0.87423295,-0.1625972,-0.4519479,9.055206298828125,1.0183897018432617,-0.6477500200271606,-37.49425506591797,228.36972045898438, 46.73402786254883
615,410302724,0.07433679,-0.85823226,-0.15000336,-0.48519143,9.691055297851562,0.7466796636581421,-1.8355249166488647,-47.495094299316406,255.7280731201172, 52.39201354980469
616,410319391,0.07991623,-0.8396993,-0.13637589,-0.5195385,10.640678405761719,-0.13375821709632874,-3.1029052734375,-38.33487319946289,273.3922424316406, 62.350311279296875
617,410336058,0.08883348,-0.81891084,-0.122994795,-0.5535036,12.295062065124512,-0.6922791600227356,-4.17401123046875,-16.592458724975586,282.24560546875, 70.93428039550781
618,410352725,0.10288723,-0.7961345,-0.11214768,-0.5856684,13.214927673339844,-0.6106887459754944,-4.814575672149658,24.707717895507812,282.48040771484375, 75.6238021850586
619,410369392,0.11976346,-0.77143544,-0.10312553,-0.6163683,14.06911849975586,0.04229673370718956,-4.846804141998291,50.00968551635742,283.1146545410156, 76.55075073242188
620,410386059,0.13797003,-0.74491686,-0.095412195,-0.64572453,14.841290473937988,0.34786906838417053,-5.03814697265625,65.06498718261719,283.5982360839844, 75.07703399658203
621,410402726,0.1569648,-0.71661484,-0.0900086,-0.6735904,15.200209617614746,1.0874695777893066,-5.1568989753723145,82.02180480957031,282.2535095214844, 67.01177215576172
622,410419393,0.17325622,-0.6875297,-0.085213244,-0.7000172,14.999119758605957,2.4015026092529297,-5.459117889404297,73.2657699584961,276.5104064941406, 52.59212112426758
623,410436060,0.18465586,-0.6590005,-0.079226196,-0.7248062,14.70961856842041,1.879497766494751,-6.081732749938965,44.70280838012695,264.7080383300781, 36.99831771850586
624,410452727,0.1936405,-0.63178,-0.0744851,-0.74686646,14.000397682189941,-0.14886850118637085,-6.548949241638184,39.805564880371094,243.0037078857422, 23.530332565307617
625,410469394,0.20361628,-0.6064166,-0.07390571,-0.7650735,12.292016983032227,-2.0874555110931396,-7.6186747550964355,65.00019836425781,211.78846740722656, 16.642488479614258
626,410486061,0.21748583,-0.5830713,-0.07772161,-0.7789016,10.12765121459961,-0.30641835927963257,-8.022615432739258,103.77814483642578,178.85427856445312, 25.958290100097656
627,410502728,0.22585899,-0.5659927,-0.0769765,-0.78912294,9.90822696685791,1.7436156272888184,-8.021347045898438,49.885162353515625,134.82452392578125, 23.566131591796875
628,410519395,0.22867452,-0.55568117,-0.07250266,-0.796034,7.968109607696533,0.893316924571991,-9.126325607299805,-0.7236433029174805,88.1927490234375, 16.67487144470215
629,410536062,0.22765031,-0.5517853,-0.067743085,-0.7994495,7.607065200805664,-0.16747494041919708,-9.1920804977417,-25.282638549804688,38.3848876953125, 5.466783046722412
630,410552729,0.22560406,-0.5533868,-0.06409638,-0.79922324,7.574073314666748,-1.7471939325332642,-9.484087944030762,-29.929670333862305,-7.74565315246582, 3.8998477458953857
631,410569396,0.22496623,-0.5589332,-0.06418992,-0.79552734,7.5067620277404785,-1.5414087772369385,-8.973140716552734,-8.580095291137695,-47.68472671508789, 4.5258588790893555
632,410586063,0.22483598,-0.5675154,-0.0670065,-0.789231,7.949721336364746,-1.360545039176941,-8.026382446289062,4.742952823638916,-78.15921783447266, 2.19650936126709
633,410602730,0.22507897,-0.578535,-0.072096,-0.7806659,8.30069351196289,-1.8907774686813354,-7.1316633224487305,15.838318824768066,-103.48248291015625, -0.01927429810166359
634,410619397,0.22336966,-0.59111583,-0.07388064,-0.7715114,11.244241714477539,-4.269184589385986,1.8608880043029785,-11.770695686340332,-109.9716567993164, 4.323642253875732
635,410636064,0.22757538,-0.5979337,-0.07393277,-0.764996,12.219554901123047,-15.244613647460938,12.368696212768555,10.596550941467285,-63.009376525878906, 35.73035430908203
636,410652731,0.24552712,-0.5988569,-0.10340233,-0.75524515,10.790994644165039,5.7563252449035645,-0.05132141709327698,232.7613983154297,-84.47852325439453, -10.994647026062012
637,410669398,0.24972095,-0.6066649,-0.11903584,-0.7452703,15.893770217895508,6.473262310028076,2.5758657455444336,92.74524688720703,-107.54781341552734, -20.139280319213867
638,410686065,0.24870013,-0.6171194,-0.12674679,-0.7356951,13.045528411865234,5.325055122375488,2.130366325378418,25.50493621826172,-110.10098266601562, -12.256709098815918
639,410702732,0.24460004,-0.62989813,-0.12714647,-0.72610825,10.901360511779785,1.6214797496795654,-0.15206287801265717,-28.515047073364258,-112.09600067138672, 5.303520679473877
640,410719399,0.23794441,-0.6432705,-0.123209246,-0.71722066,10.838592529296875,0.777357280254364,-0.751862645149231,-62.845314025878906,-106.96459197998047, 10.701972961425781
641,410736066,0.23189004,-0.6553576,-0.11970813,-0.7088043,10.101027488708496,-4.303258419036865,-2.911004066467285,-56.3276252746582,-98.73578643798828, 9.900972366333008
642,410752733,0.23116001,-0.6641644,-0.12253014,-0.70031244,9.341721534729004,-2.967617988586426,-3.0164506435394287,3.795414924621582,-88.75867462158203, 4.745980262756348
643,410769400,0.23126161,-0.67225844,-0.12632754,-0.69182986,10.43809986114502,-2.464109182357788,-3.040726661682129,13.418585777282715,-86.1068115234375, 3.6565418243408203
644,410786067,0.2310606,-0.67979723,-0.12993266,-0.68381613,10.542949676513672,-0.8723856806755066,-2.0410828590393066,11.586648941040039,-81.2302017211914, 1.8596991300582886
645,410802734,0.23030174,-0.6868417,-0.1323177,-0.6765368,10.1558256149292,-0.12439059466123581,-0.9625338315963745,3.3732900619506836,-74.02136993408203, 3.3311688899993896
646,410819401,0.22991593,-0.69345677,-0.13380633,-0.6695913,10.15815258026123,-0.5104724764823914,-0.5764805674552917,1.3503562211990356,-68.69322967529297, 8.388628005981445
647,410836068,0.23114553,-0.6993055,-0.13571335,-0.6626659,10.41857624053955,-1.2486439943313599,-0.8650006055831909,12.173310279846191,-64.25430297851562, 13.097212791442871
648,410852735,0.23254985,-0.70449233,-0.1375246,-0.65627617,10.566119194030762,-1.1008365154266357,-0.8278996348381042,13.126357078552246,-58.35633850097656, 12.880958557128906
649,410869402,0.23256001,-0.7094193,-0.13818757,-0.65080315,10.248212814331055,-1.2468515634536743,-1.0731219053268433,0.744446873664856,-52.234825134277344, 10.439692497253418
650,410886069,0.2313194,-0.7141291,-0.13792633,-0.6461328,9.932994842529297,-1.4871793985366821,-0.9260892271995544,-9.906908988952637,-47.06734848022461, 7.860468864440918
651,410902736,0.22913978,-0.7186923,-0.13695157,-0.64204437,9.94991683959961,-1.1659433841705322,-0.9110085368156433,-18.004011154174805,-43.327667236328125, 6.125971794128418
652,410919403,0.22664963,-0.7231114,-0.13570996,-0.63821864,10.020025253295898,-1.5411980152130127,-0.8496891260147095,-20.74213981628418,-41.27790832519531, 5.5277557373046875
653,410936070,0.22507282,-0.72711605,-0.13514471,-0.63433486,9.784019470214844,-1.6552550792694092,-0.9011035561561584,-12.532666206359863,-39.96541976928711, 5.874584197998047
654,410952737,0.22404997,-0.73083764,-0.13509475,-0.63041866,9.557401657104492,-1.6542426347732544,-0.9000242352485657,-7.049333095550537,-39.190216064453125, 5.498175144195557
655,410969404,0.22257547,-0.73459667,-0.13490008,-0.62660223,9.525603294372559,-1.3789219856262207,-0.7680900692939758,-10.1003999710083,-39.06439208984375, 4.144510269165039
656,410986071,0.21951139,-0.73881257,-0.13363403,-0.6229873,9.542328834533691,-1.2832441329956055,-0.7636060118675232,-23.63395118713379,-39.868492126464844, 2.8229570388793945
657,411002738,0.21559563,-0.7433551,-0.13193417,-0.6193024,9.471659660339355,-1.5509220361709595,-0.8854551315307617,-30.248306274414062,-41.77051544189453, 1.7863037586212158
658,411019405,0.21203355,-0.7479592,-0.13087358,-0.6152004,9.485654830932617,-1.76395583152771,-1.042870283126831,-25.438819885253906,-44.810035705566406, 0.6983687877655029
659,411036072,0.20958099,-0.7524224,-0.13108343,-0.6105356,9.55465030670166,-1.8766329288482666,-1.203437328338623,-13.649138450622559,-47.97931671142578, -0.4530413746833801
660,411052739,0.20759782,-0.75692433,-0.13208598,-0.60541064,9.516403198242188,-1.5946599245071411,-1.2565240859985352,-7.539462566375732,-51.25938034057617, -1.891438603401184
661,411069406,0.20584115,-0.7615665,-0.13364458,-0.59982103,9.489675521850586,-1.5479942560195923,-1.3190134763717651,-3.8283963203430176,-54.86640167236328, -3.0561394691467285
662,411086073,0.20409824,-0.76642555,-0.13552785,-0.59377456,9.56123161315918,-1.4774295091629028,-1.4026527404785156,-2.308155059814453,-58.616676330566406, -3.8575632572174072
663,411102740,0.20306365,-0.7713155,-0.13821064,-0.5871419,9.637527465820312,-1.553532361984253,-1.6951273679733276,5.18730354309082,-62.31156539916992, -4.3303351402282715
664,411119407,0.20293546,-0.77609885,-0.14163683,-0.5800232,9.643741607666016,-1.2915101051330566,-2.0176470279693604,13.60171127319336,-64.65090942382812, -4.0413360595703125
665,411136074,0.20301345,-0.78088343,-0.14514661,-0.57265997,9.682012557983398,-1.0125874280929565,-2.3592424392700195,15.269941329956055,-65.88933563232422, -3.3244028091430664
666,411152741,0.2030742,-0.7857324,-0.14864494,-0.5650578,9.606155395507812,-1.0895024538040161,-2.5966970920562744,15.280736923217773,-67.4383773803711, -2.932511329650879
667,411169408,0.20344235,-0.7905914,-0.1524114,-0.55708826,9.661941528320312,-1.2114472389221191,-2.8395063877105713,18.34320831298828,-69.53243255615234, -2.6628341674804688
668,411186075,0.20392479,-0.7954057,-0.15631233,-0.54891837,9.89433479309082,-1.3793253898620605,-2.9184131622314453,19.75054931640625,-70.52725982666016, -2.7233853340148926
669,411202742,0.20459595,-0.8000936,-0.16046473,-0.54059434,9.973400115966797,-1.238115668296814,-3.0636041164398193,22.075231552124023,-71.05352020263672, -3.3089182376861572
670,411219409,0.20460436,-0.80482864,-0.16446337,-0.532297,10.054112434387207,-1.3022799491882324,-2.9246695041656494,17.759401321411133,-71.60726928710938, -4.911726474761963
671,411236076,0.20395528,-0.809768,-0.168391,-0.5237586,10.354455947875977,-1.5203644037246704,-2.6030125617980957,13.844643592834473,-74.34844207763672, -6.354857444763184
672,411252743,0.20266818,-0.8149869,-0.17231739,-0.5148095,10.53676986694336,-1.5744075775146484,-2.5017216205596924,10.36628532409668,-78.39927673339844, -7.7469635009765625
673,411269410,0.20017977,-0.8206572,-0.17575744,-0.5055292,10.700357437133789,-1.6969207525253296,-2.501807451248169,1.6738239526748657,-82.62461853027344, -8.2784423828125
674,411286077,0.1965337,-0.8268142,-0.17877714,-0.49577403,10.752181053161621,-1.1360501050949097,-2.8454487323760986,-6.4236626625061035,-87.84423828125, -8.689592361450195
675,411302744,0.19088206,-0.83361334,-0.18065667,-0.48581514,10.91698169708252,-1.269545555114746,-2.6564807891845703,-22.329864501953125,-92.14192199707031, -7.975408554077148
676,411319411,0.18426342,-0.8407897,-0.1820185,-0.47538355,11.232892990112305,-0.5742765069007874,-2.515143871307373,-29.513750076293945,-96.66581726074219, -7.145496845245361
677,411336078,0.17589171,-0.84832156,-0.18326648,-0.4645713,12.566390037536621,-0.5682973861694336,-2.477376937866211,-39.99553298950195,-102.11630249023438, -11.280879020690918
678,411352745,0.1674792,-0.85580325,-0.18535301,-0.4529859,13.344313621520996,-1.098670482635498,-2.184046983718872,-36.522274017333984,-107.58016204833984, -15.419905662536621
679,411369412,0.15799403,-0.86330223,-0.18756972,-0.4410956,14.059223175048828,-0.5085318088531494,-1.3097410202026367,-42.065711975097656,-111.0042724609375, -19.14834976196289
680,411386079,0.14660539,-0.87089336,-0.18962166,-0.42906386,15.17220401763916,-0.7459664344787598,-0.3088451027870178,-53.78340530395508,-114.47613525390625, -23.662933349609375
681,411402746,0.13340409,-0.87867224,-0.19099681,-0.41672426,15.273268699645996,-0.6815804839134216,0.24915096163749695,-66.43404388427734,-118.65042877197266, -24.394662857055664
682,411419413,0.117972866,-0.8866686,-0.19137931,-0.4040738,15.071269035339355,-0.2329384833574295,0.7572805881500244,-82.54576110839844,-123.27645874023438, -24.21882438659668
683,411436080,0.101179026,-0.89449066,-0.19136924,-0.3911874,13.68171501159668,-0.6787636280059814,-0.4737728238105774,-91.49842071533203,-125.81842803955078, -25.649919509887695
684,411452747,0.08650318,-0.9014492,-0.192449,-0.37798175,12.873528480529785,-0.7146398425102234,-1.4361449480056763,-74.52033233642578,-123.52020263671875, -27.583768844604492
685,411469414,0.0739446,-0.90686876,-0.19541326,-0.36597162,12.275146484375,0.7855913639068604,-1.195448637008667,-57.168087005615234,-110.50676727294922, -36.523040771484375
