PacketCounter,SampleTimeFine,Quat_W,Quat_X,Quat_Y,Quat_Z,Acc_X,Acc_Y,Acc_Z,Gyr_X,Gyr_Y,Gyr_Z 
1,381112772,0.069933265,0.7293444,0.060878184,0.6778348,1.9387178421020508,-2.1775295734405518,1.1005444526672363,3.576040506362915,1.9278274774551392, 0.4900190234184265
2,381129439,0.07028196,0.72956854,0.060850445,0.67756003,9.659390449523926,1.7985115051269531,-0.7410304546356201,-3.2983522415161133,-0.7969135642051697, 0.06754709780216217
3,381146106,0.07039293,0.729804,0.060626585,0.67731494,9.612342834472656,1.734287977218628,-0.7666339874267578,-2.2630228996276855,-0.16419021785259247, 0.07824039459228516
4,381162773,0.07025716,0.7301187,0.06019449,0.6770283,9.63487720489502,1.6993757486343384,-0.7648069858551025,-1.2492849826812744,-0.0998511016368866, -0.07322670519351959
5,381179440,0.07000549,0.73040193,0.059688475,0.6767935,9.64768123626709,1.6876550912857056,-0.7761049270629883,-0.6563253998756409,-0.0874161347746849, -0.2584449350833893
6,381196107,0.06976091,0.73064697,0.059191354,0.676598,9.64415168762207,1.7185965776443481,-0.7555846571922302,-0.011256780475378036,0.06220684200525284, -0.4227631986141205
7,381212774,0.06962108,0.7308144,0.0587578,0.6764693,9.649430274963379,1.7787202596664429,-0.6989378333091736,-0.27495232224464417,0.10139427334070206, -0.4023755192756653
8,381229441,0.06974391,0.73086596,0.058322135,0.67643875,9.654342651367188,1.8016505241394043,-0.7208261489868164,-1.2919045686721802,0.10749009996652603, -0.4297938644886017
9,381246108,0.0696674,0.7308558,0.058232572,0.67646533,9.65036392211914,1.767282247543335,-0.7203571796417236,-0.9544828534126282,0.1774383783340454, -0.19629573822021484
10,381262775,0.06952743,0.7308522,0.05822689,0.6764841,9.6432466506958,1.768173336982727,-0.7104564309120178,0.35169434547424316,0.10719554126262665, -0.0718052014708519
11,381279442,0.06939071,0.73085994,0.05821125,0.6764911,9.621016502380371,1.8174893856048584,-0.6863886117935181,0.6059516072273254,-0.09840398281812668, 0.1504041701555252
12,381296109,0.0692819,0.73085755,0.058221936,0.676504,9.653749465942383,1.8394043445587158,-0.709222674369812,-0.582240641117096,-0.40926527976989746, 0.3462004065513611
13,381312776,0.06948399,0.7308761,0.05792863,0.6764883,9.631020545959473,1.7913645505905151,-0.7094486355781555,-1.5360065698623657,-0.5772590637207031, 0.5571722984313965
14,381329443,0.0694816,0.73089415,0.057832163,0.6764774,9.631230354309082,1.7722276449203491,-0.7380375862121582,-1.1880964040756226,-0.669400691986084, 0.694328248500824
15,381346110,0.06947128,0.73093486,0.057730604,0.6764431,9.62890338897705,1.766359806060791,-0.7315550446510315,-0.9472600817680359,-0.7715185284614563, 0.7224125862121582
16,381362777,0.0694707,0.73098624,0.057609167,0.676398,9.637149810791016,1.7511521577835083,-0.7301209568977356,-0.9260656833648682,-0.8174037337303162, 0.7415196895599365
17,381379444,0.069356576,0.7310246,0.05762589,0.67636687,9.643199920654297,1.7843703031539917,-0.7104512453079224,-1.5098813772201538,-0.8747761249542236, 0.6669738292694092
18,381396111,0.06939261,0.73106647,0.057472575,0.6763308,9.64684772491455,1.7579898834228516,-0.7232263088226318,-2.349837064743042,-0.9452367424964905, 0.7946276068687439
19,381412778,0.06943159,0.7311023,0.05733007,0.6763002,9.634023666381836,1.7601523399353027,-0.7431638836860657,-2.5407795906066895,-0.9172803163528442, 0.7219259738922119
20,381429445,0.06961972,0.731155,0.057027243,0.67624956,9.632969856262207,1.7464250326156616,-0.7111848592758179,-2.610945701599121,-0.9386797547340393, 0.7142037153244019
21,381446112,0.06987168,0.73119366,0.056669917,0.6762118,9.638429641723633,1.7009632587432861,-0.756081759929657,-2.642718553543091,-0.7721076607704163, 0.6277096271514893
22,381462779,0.069738984,0.73119205,0.056735415,0.6762218,9.634676933288574,1.656212329864502,-0.7472549676895142,-2.390791893005371,-0.6057659387588501, 0.5077269673347473
23,381479446,0.069748,0.7311979,0.056649312,0.6762217,9.652743339538574,1.6925897598266602,-0.7586331963539124,-1.7402547597885132,-0.41773030161857605, 0.3539867103099823
24,381496113,0.06980432,0.73120326,0.056521017,0.67622083,9.642455101013184,1.7352319955825806,-0.7278602123260498,-1.5436519384384155,-0.3136531114578247, 0.25542905926704407
25,381512780,0.0696916,0.73118895,0.056546,0.67624587,9.643868446350098,1.7186625003814697,-0.7602172493934631,-1.1216697692871094,-0.15977202355861664, 0.3701227307319641
26,381529447,0.06968897,0.7311924,0.056443036,0.67625093,9.648868560791016,1.8022973537445068,-0.7297559380531311,-1.1250121593475342,-0.216952383518219, 0.40595492720603943
27,381546114,0.06972379,0.73118937,0.05628244,0.67626417,9.644892692565918,1.7641055583953857,-0.723920464515686,-1.5819300413131714,-0.19014869630336761, 0.5805695056915283
28,381562781,0.06971921,0.7311762,0.056145415,0.6762903,9.643709182739258,1.760467767715454,-0.753696084022522,-1.6724454164505005,-0.1283068209886551, 0.7010388374328613
29,381579448,0.06977488,0.7311835,0.055936936,0.6762939,9.650747299194336,1.7560009956359863,-0.7720441818237305,-1.874823808670044,-0.304675817489624, 0.7631622552871704
30,381596115,0.069821335,0.7311912,0.055714265,0.67629915,9.653200149536133,1.7539223432540894,-0.7379621863365173,-1.7785972356796265,-0.2563959062099457, 0.8822101950645447
31,381612782,0.06987772,0.7312043,0.055485632,0.67629784,9.654519081115723,1.756027340888977,-0.710957944393158,-2.1874783039093018,-0.3806687295436859, 0.9018424153327942
32,381629449,0.07007344,0.7312226,0.055078983,0.67629105,9.648176193237305,1.7472096681594849,-0.7620368003845215,-2.3531410694122314,-0.3408537805080414, 1.0551215410232544
33,381646116,0.07010847,0.7312472,0.05484413,0.67627996,9.650158882141113,1.6982858180999756,-0.7585360407829285,-1.6658626794815063,-0.39949408173561096, 1.017137885093689
34,381662783,0.07003152,0.7312598,0.054729223,0.67628366,9.680743217468262,1.7089787721633911,-0.7382431626319885,-1.337661862373352,-0.2998991310596466, 0.9826248288154602
35,381679450,0.070080526,0.73126704,0.054485314,0.6762904,9.66662883758545,1.7404042482376099,-0.7399359941482544,-1.741753101348877,-0.21984659135341644, 0.9719698429107666
36,381696117,0.06997576,0.7312559,0.054415084,0.676319,9.654317855834961,1.6889854669570923,-0.7644110918045044,-1.8130332231521606,-0.17540855705738068, 0.9496611952781677
37,381712784,0.069986835,0.73126113,0.054219015,0.6763279,9.660811424255371,1.6738814115524292,-0.7649054527282715,-0.9615392088890076,-0.08479084819555283, 0.8752052187919617
38,381729451,0.06973985,0.73124856,0.054308567,0.67635983,9.622991561889648,1.6750868558883667,-0.746899425983429,-0.7375432848930359,-0.07003793120384216, 0.8119801878929138
39,381746118,0.06980588,0.7312595,0.054075163,0.67635983,9.653532981872559,1.7111790180206299,-0.720585823059082,-1.1055208444595337,-0.1282171607017517, 0.7581806778907776
40,381762785,0.06979123,0.7312669,0.053944528,0.6763639,9.626808166503906,1.7001819610595703,-0.7471843957901001,-1.4345160722732544,-0.234676331281662, 0.7130767107009888
41,381779452,0.069672376,0.7312838,0.05391622,0.67635995,9.64061450958252,1.6922918558120728,-0.7641793489456177,-1.0280938148498535,-0.33551353216171265, 0.7303268909454346
42,381796119,0.069698095,0.73132306,0.053754445,0.6763277,9.654753684997559,1.7169709205627441,-0.746131956577301,-1.1662615537643433,-0.4799307584762573, 0.6315515637397766
43,381812786,0.06969607,0.7313721,0.053609665,0.67628634,9.661371231079102,1.7239879369735718,-0.7398138046264648,-1.3254444599151611,-0.621620237827301, 0.7098367810249329
44,381829453,0.06992136,0.73145616,0.053202868,0.67620456,9.632596015930176,1.7056446075439453,-0.7241758704185486,-1.4703991413116455,-0.8103600740432739, 0.8030284643173218
45,381846120,0.06956324,0.73149985,0.053390518,0.67617935,9.641223907470703,1.7089554071426392,-0.751179575920105,-1.4801063537597656,-0.8495858907699585, 0.9793334603309631
46,381862787,0.06927899,0.73156506,0.053500995,0.67612934,9.652262687683105,1.6938519477844238,-0.7834630012512207,-1.3328849077224731,-0.9830923080444336, 0.9586641192436218
47,381879454,0.069365405,0.7316496,0.05320433,0.67605233,9.65692138671875,1.6939603090286255,-0.7813906669616699,-1.861825704574585,-0.962653398513794, 1.0301235914230347
48,381896121,0.069303565,0.73172015,0.05308573,0.67599165,9.660124778747559,1.6912970542907715,-0.7832219004631042,-2.458550214767456,-1.050889015197754, 0.99479079246521
49,381912788,0.069777,0.7318054,0.052425597,0.6759023,9.662067413330078,1.6599870920181274,-0.800636351108551,-3.085395097732544,-0.9050631523132324, 0.8685072660446167
50,381929455,0.06950786,0.73181474,0.05258166,0.6759078,9.642793655395508,1.6482332944869995,-0.8398334980010986,-2.861104965209961,-0.681348979473114, 0.7896331548690796
51,381946122,0.06956551,0.7318275,0.052412093,0.67590106,9.680163383483887,1.6263209581375122,-0.8394290804862976,-2.151146650314331,-0.33637160062789917, 0.5970128774642944
52,381962789,0.06929663,0.73176914,0.052603573,0.6759769,9.677553176879883,1.6583062410354614,-0.8734887838363647,-2.226524829864502,0.12851813435554504, 0.5604763031005859
53,381979456,0.06915505,0.7316762,0.052676376,0.6760865,9.682724952697754,1.650571584701538,-0.8377116918563843,-1.9703723192214966,0.6352526545524597, 0.45013684034347534
54,381996123,0.06899209,0.7315644,0.052758824,0.6762177,9.650893211364746,1.6418663263320923,-0.8389856815338135,-1.607401728630066,0.8948116302490234, 0.48149946331977844
55,382012790,0.06876058,0.7314259,0.052920647,0.67637825,9.639091491699219,1.672826886177063,-0.8076362609863281,-1.1680928468704224,1.1970545053482056, 0.41922229528427124
56,382029457,0.06870382,0.731295,0.05289694,0.6765275,9.65614128112793,1.6499786376953125,-0.7507273554801941,-1.2356975078582764,1.2526596784591675, 0.4097840189933777
57,382046124,0.06852665,0.7311536,0.05299367,0.67669064,9.656370162963867,1.6934378147125244,-0.7229189872741699,-1.241959571838379,1.2639801502227783, 0.45277485251426697
58,382062791,0.06840151,0.73103833,0.053001706,0.6768273,9.640066146850586,1.6776740550994873,-0.7452283501625061,-1.598526954650879,0.9925881028175354, 0.6353036761283875
59,382079458,0.068062514,0.73092365,0.053237487,0.67696685,9.643311500549316,1.6840845346450806,-0.7509605884552002,-1.9420446157455444,0.7555170059204102, 0.6769500970840454
60,382096125,0.06803106,0.73081744,0.05313104,0.677093,9.672690391540527,1.656022548675537,-0.7670400142669678,-1.8490833044052124,0.9379434585571289, 0.7218363881111145
61,382112792,0.067753226,0.73066336,0.053301346,0.6772735,9.667978286743164,1.646508812904358,-0.7878536581993103,-1.8499926328659058,1.2217450141906738, 0.6706109642982483
62,382129459,0.067726575,0.7304722,0.053211614,0.6774895,9.682948112487793,1.6210448741912842,-0.7762618660926819,-1.3760038614273071,1.8839486837387085, 0.5847058892250061
63,382146126,0.06771941,0.73023933,0.053116262,0.6777487,9.6548433303833,1.6194229125976562,-0.7429212331771851,-1.0482126474380493,2.3732919692993164, 0.48512375354766846
64,382162793,0.06758898,0.7300183,0.053164467,0.6779959,9.658893585205078,1.6211559772491455,-0.7510796189308167,-1.0274022817611694,2.148630380630493, 0.4260864853858948
65,382179460,0.06743416,0.7298335,0.0532415,0.6782044,9.662676811218262,1.6336427927017212,-0.7496698498725891,-0.8716897964477539,1.7866970300674438, 0.3948773741722107
66,382196127,0.06737268,0.72968274,0.053228345,0.6783737,9.670141220092773,1.6360392570495605,-0.7284114956855774,-0.9945026636123657,1.4844160079956055, 0.3510412275791168
67,382212794,0.06741826,0.7295722,0.053093497,0.6784987,9.6633882522583,1.6476274728775024,-0.70561683177948,-1.0465476512908936,1.1570345163345337, 0.3813410699367523
68,382229461,0.06714273,0.7294577,0.053320564,0.67863125,9.657217025756836,1.6479164361953735,-0.7178506851196289,-1.181795597076416,0.9015734791755676, 0.3108293116092682
69,382246128,0.0671298,0.72938657,0.053245507,0.67871493,9.66022777557373,1.634666085243225,-0.6815123558044434,-1.2439318895339966,0.6728904247283936, 0.4071074426174164
70,382262795,0.066932485,0.7293053,0.053394575,0.67880994,9.667468070983887,1.6331926584243774,-0.7329157590866089,-1.4753555059432983,0.5645614862442017, 0.2990218698978424
71,382279462,0.066579156,0.72923386,0.053718455,0.67889583,9.655745506286621,1.6233912706375122,-0.6839548349380493,-1.375043511390686,0.3538714349269867, 0.2543661296367645
72,382296129,0.06628296,0.729175,0.054000147,0.67896575,9.654365539550781,1.6444194316864014,-0.7110008001327515,-1.3649777173995972,0.2541484236717224, 0.16007298231124878
73,382312796,0.065848075,0.72912437,0.054416213,0.67902917,9.662308692932129,1.642139196395874,-0.7033661007881165,-1.452239990234375,0.051872119307518005, 0.23356862366199493
74,382329463,0.06565765,0.72910255,0.0545641,0.67905927,9.674163818359375,1.6564576625823975,-0.6886964440345764,-1.5766792297363281,-0.06047157943248749, 0.26854273676872253
75,382346130,0.065964416,0.7291292,0.054189384,0.67903084,9.66385269165039,1.6474252939224243,-0.7046002745628357,-2.2774300575256348,-0.2809073030948639, 0.2656485140323639
76,382362797,0.06590899,0.7291323,0.054226667,0.67903,9.674391746520996,1.627571940422058,-0.7109323740005493,-2.3198959827423096,-0.3604859411716461, 0.16007298231124878
77,382379464,0.06591095,0.7291517,0.054169856,0.6790134,9.664610862731934,1.603969931602478,-0.7290356159210205,-1.9890053272247314,-0.3989177942276001, 0.2877650856971741
78,382396131,0.065825865,0.7291852,0.054207988,0.6789827,9.650662422180176,1.6369479894638062,-0.7066715955734253,-1.6141380071640015,-0.5464469194412231, 0.24976865947246552
79,382412798,0.065876186,0.7292253,0.0541273,0.67894125,9.660518646240234,1.647542953491211,-0.6920962333679199,-1.9710893630981445,-0.5843536853790283, 0.14986629784107208
80,382429465,0.065953836,0.7292809,0.054007266,0.67888355,9.673943519592285,1.6013740301132202,-0.7265675067901611,-2.2656354904174805,-0.7653074860572815, 0.21797049045562744
81,382446132,0.065913714,0.729308,0.054031447,0.6788562,9.67197036743164,1.629037618637085,-0.7267226576805115,-2.3944928646087646,-0.6060605049133301, 0.14109396934509277
82,382462799,0.065956816,0.72932804,0.05401097,0.6788322,9.640146255493164,1.6178123950958252,-0.7483034729957581,-2.6541671752929688,-0.5410298705101013, -0.05216025933623314
83,382479466,0.06599223,0.7293313,0.05400676,0.6788257,9.670631408691406,1.6045488119125366,-0.7788925766944885,-2.2253849506378174,-0.30407392978668213, -0.1204693466424942
84,382496133,0.06584127,0.72930354,0.054220162,0.6788532,9.676748275756836,1.6100356578826904,-0.7797060012817383,-2.156576633453369,-0.13462035357952118, -0.21044676005840302
85,382512800,0.065892465,0.7292245,0.054261185,0.6789298,9.685537338256836,1.6427298784255981,-0.7573391199111938,-2.1459600925445557,0.526078462600708, -0.4217899739742279
86,382529467,0.065918796,0.72911406,0.054323893,0.67904073,9.643096923828125,1.6213669776916504,-0.7269312143325806,-2.4913599491119385,0.7733690142631531, -0.3728952705860138
87,382546134,0.0658986,0.7290036,0.054440454,0.6791519,9.646194458007812,1.6075836420059204,-0.7438540458679199,-1.914703130722046,0.8339303135871887, -0.43396881222724915
88,382562801,0.06603927,0.7289318,0.054411292,0.67921776,9.667379379272461,1.6241919994354248,-0.7289782166481018,-1.6664005517959595,0.5978195667266846, -0.583316445350647
89,382579468,0.06595034,0.7288577,0.05463633,0.67928797,9.657785415649414,1.6230740547180176,-0.7018902897834778,-2.1424129009246826,0.3471609652042389, -0.5902318954467773
90,382596135,0.06608293,0.72880155,0.054640014,0.679335,9.65289306640625,1.6547329425811768,-0.7339471578598022,-2.3211896419525146,0.3006739020347595, -0.6571578979492188
91,382612802,0.06620574,0.72877187,0.054655716,0.6793535,9.661124229431152,1.6244851350784302,-0.7309003472328186,-1.679885745048523,0.1355103999376297, -0.7097022533416748
92,382629469,0.066312194,0.7287589,0.054686695,0.67935467,9.672779083251953,1.6504616737365723,-0.7035899758338928,-1.1119370460510254,0.05585489794611931, -0.7415261268615723
93,382646136,0.06636827,0.7287415,0.05476535,0.6793615,9.670692443847656,1.6662535667419434,-0.7058746218681335,-1.4057914018630981,0.013184135779738426, -0.6914659738540649
94,382662803,0.06637027,0.7287196,0.054903597,0.67937344,9.67357063293457,1.6543508768081665,-0.7094902396202087,-1.8014434576034546,-0.05581006407737732, -0.6714240312576294
95,382679470,0.06644665,0.72870046,0.054962985,0.67938185,9.681230545043945,1.6343166828155518,-0.7401935458183289,-1.7852816581726074,-0.019478455185890198, -0.6767643094062805
96,382696137,0.066554435,0.7286857,0.054999188,0.6793842,9.662256240844727,1.6707313060760498,-0.726895272731781,-2.1180167198181152,-0.10164400935173035, -0.705950140953064
97,382712804,0.066636,0.7286769,0.055052325,0.6793813,9.66572380065918,1.648065209388733,-0.7368000149726868,-2.1974799633026123,-0.1870751678943634, -0.6471304893493652
98,382729471,0.06663278,0.7286804,0.055203564,0.6793657,9.654817581176758,1.6382931470870972,-0.7259981632232666,-2.0079333782196045,-0.35123977065086365, -0.6964605450630188
99,382746138,0.06682055,0.7287127,0.055164088,0.6793158,9.657757759094238,1.668267846107483,-0.7142127156257629,-1.7929654121398926,-0.45859527587890625, -0.7807902097702026
100,382762805,0.067018844,0.72873545,0.055103473,0.6792768,9.669325828552246,1.667641282081604,-0.7306659817695618,-2.1386218070983887,-0.4043348729610443, -0.7101377248764038
101,382779472,0.0672695,0.72876805,0.05498475,0.67922664,9.674408912658691,1.682281494140625,-0.7620314955711365,-2.45483660697937,-0.5135731101036072, -0.6797226667404175
102,382796139,0.06738422,0.72878546,0.054997638,0.6791955,9.66100788116455,1.6665990352630615,-0.7411538362503052,-2.286048650741577,-0.42490190267562866, -0.6233747005462646
103,382812806,0.06752975,0.7288179,0.05495865,0.67914945,9.656789779663086,1.6683852672576904,-0.7238905429840088,-2.0827224254608154,-0.49976783990859985, -0.5498278141021729
104,382829473,0.067573264,0.7288528,0.0550445,0.67910075,9.671338081359863,1.657049536705017,-0.7220369577407837,-1.96664559841156,-0.5988762378692627, -0.6320317983627319
105,382846140,0.06766993,0.72890365,0.055052064,0.6790358,9.652446746826172,1.6883898973464966,-0.7161325216293335,-2.127634286880493,-0.7291039228439331, -0.5230241417884827
106,382862807,0.06781641,0.7289632,0.055018544,0.67896,9.633827209472656,1.6888704299926758,-0.7330480217933655,-2.171624183654785,-0.7923417091369629, -0.5775280594825745
107,382879474,0.06802679,0.72902244,0.054937888,0.67888176,9.652192115783691,1.684262990951538,-0.7531782388687134,-2.605605363845825,-0.8281993865966797, -0.647335410118103
108,382896141,0.06818268,0.7290739,0.054905355,0.6788135,9.653407096862793,1.6512147188186646,-0.7458457946777344,-2.5354909896850586,-0.7693798542022705, -0.6033455729484558
109,382912808,0.06832835,0.7291187,0.0548945,0.67875177,9.643960952758789,1.6474472284317017,-0.7870847582817078,-2.440429210662842,-0.6988040804862976, -0.6623955965042114
110,382929475,0.068504415,0.7291652,0.054863185,0.6786866,9.637960433959961,1.6545209884643555,-0.7758439183235168,-2.284243106842041,-0.6669931411743164, -0.7337014079093933
111,382946142,0.06867679,0.72919375,0.054857273,0.67863894,9.650014877319336,1.6482102870941162,-0.7753217816352844,-2.2468485832214355,-0.49191755056381226, -0.8391616940498352
112,382962809,0.068834536,0.72920984,0.054897863,0.6786024,9.655646324157715,1.6607111692428589,-0.7597312927246094,-2.253302812576294,-0.3969968557357788, -0.9861273765563965
113,382979476,0.069048256,0.72923744,0.054869816,0.6785532,9.648327827453613,1.6794211864471436,-0.75409996509552,-2.159867763519287,-0.44313809275627136, -0.9555713534355164
114,382996143,0.069191076,0.72925776,0.054917406,0.678513,9.645299911499023,1.6750271320343018,-0.7314229011535645,-1.9991481304168701,-0.3946661353111267, -0.9661495089530945
115,383012810,0.06932611,0.7292852,0.05496847,0.67846566,9.63972282409668,1.6629501581192017,-0.7578224539756775,-2.1941120624542236,-0.5037633776664734, -0.9311754107475281
116,383029477,0.06958291,0.7293076,0.05492167,0.6784191,9.63486385345459,1.7030751705169678,-0.7584661245346069,-2.3391823768615723,-0.400134414434433, -1.0782562494277954
117,383046144,0.069840945,0.7293243,0.054876786,0.6783783,9.6551513671875,1.6816456317901611,-0.7630975246429443,-2.8955414295196533,-0.4408457577228546, -1.0537705421447754
118,383062811,0.07009014,0.72934407,0.054846015,0.6783337,9.644822120666504,1.693161964416504,-0.7834712266921997,-2.3040928840637207,-0.3748418390750885, -1.1201329231262207
119,383079478,0.070198804,0.7293528,0.05494346,0.6783053,9.649611473083496,1.7035887241363525,-0.7612411975860596,-1.907928466796875,-0.2835710048675537, -1.0414252281188965
120,383096145,0.070424914,0.7293773,0.054918926,0.67825735,9.64897632598877,1.7282027006149292,-0.7467814087867737,-1.9977648258209229,-0.36553165316581726, -1.0568439960479736
121,383112812,0.07067176,0.72939986,0.05485853,0.6782124,9.655835151672363,1.7227811813354492,-0.7570925354957581,-2.3988726139068604,-0.3872896134853363, -0.963114321231842
122,383129479,0.07068487,0.7294183,0.055036012,0.678177,9.650456428527832,1.729475975036621,-0.79215407371521,-2.4841885566711426,-0.5414140224456787, -0.8950485587120056
123,383146146,0.070835814,0.72942466,0.05506551,0.6781518,9.649431228637695,1.722843050956726,-0.7673770189285278,-2.504563570022583,-0.3057131767272949, -0.8926025629043579
124,383162813,0.071030095,0.7294386,0.055037115,0.6781189,9.654115676879883,1.6965585947036743,-0.804924488067627,-2.393186330795288,-0.3133329451084137, -0.847754716873169
125,383179480,0.07102199,0.72944576,0.055216525,0.6780972,9.645764350891113,1.721573829650879,-0.7720181941986084,-2.039424180984497,-0.3372040092945099, -0.8299539089202881
126,383196147,0.07115823,0.7294581,0.055222973,0.6780693,9.646501541137695,1.7290011644363403,-0.7481950521469116,-2.2255003452301025,-0.28441622853279114, -0.7330739498138428
127,383212814,0.07136225,0.72948176,0.05517274,0.6780265,9.640254974365234,1.6847686767578125,-0.7758206725120544,-2.4905149936676025,-0.40355366468429565, -0.7915348410606384
128,383229481,0.071535155,0.7294972,0.055144835,0.6779939,9.646016120910645,1.7023447751998901,-0.7610641717910767,-2.2062911987304688,-0.28211110830307007, -0.7628230452537537
129,383246148,0.07171683,0.7295039,0.055153236,0.6779668,9.638383865356445,1.7304768562316895,-0.7679229974746704,-2.3697123527526855,-0.24841752648353577, -0.968275249004364
130,383262815,0.07202729,0.7295164,0.05502536,0.6779307,9.62755012512207,1.7207518815994263,-0.7499226927757263,-3.0247573852539062,-0.31942880153656006, -0.9324432611465454
131,383279482,0.07226599,0.7295294,0.05498263,0.6778947,9.654386520385742,1.7321103811264038,-0.7410495281219482,-2.736191987991333,-0.33683261275291443, -0.9921590685844421
132,383296149,0.07248638,0.72954285,0.054936446,0.67786056,9.637195587158203,1.725841999053955,-0.7676053643226624,-2.636263608932495,-0.31860917806625366, -0.8913859724998474
133,383312816,0.07267642,0.7295622,0.054937407,0.6778194,9.612071990966797,1.750901699066162,-0.7857884168624878,-2.4398019313812256,-0.37722381949424744, -0.9761895537376404
134,383329483,0.07275647,0.7295527,0.055039532,0.67781293,9.655813217163086,1.7412474155426025,-0.7702717781066895,-2.3577897548675537,-0.140652135014534, -0.8986856937408447
135,383346150,0.07291553,0.7295305,0.055068795,0.67781717,9.646025657653809,1.722102403640747,-0.7918747067451477,-2.1292479038238525,0.08794761449098587, -0.9725398421287537
136,383362817,0.073055565,0.7294837,0.055135965,0.67784697,9.632635116577148,1.727230429649353,-0.800919234752655,-2.1171586513519287,0.3182826340198517, -1.0556658506393433
137,383379484,0.07321508,0.72942543,0.055186357,0.67788833,9.647475242614746,1.7615734338760376,-0.7711473107337952,-2.0003645420074463,0.4738798141479492, -1.0848515033721924
138,383396151,0.07328145,0.7293565,0.055351526,0.67794186,9.64111614227295,1.7419551610946655,-0.7360442280769348,-1.9939230680465698,0.49735385179519653, -1.1540570259094238
139,383412818,0.0734672,0.7292769,0.0553692,0.67800605,9.658811569213867,1.742078423500061,-0.7662361264228821,-1.7235426902770996,0.7740862369537354, -1.0831738710403442
140,383429485,0.07359292,0.7287847,0.05551687,0.67850935,9.769156455993652,1.7700196504592896,-0.6860591769218445,-1.9127312898635864,4.854523181915283, -1.3419392108917236
141,383446152,0.07392369,0.7278407,0.055559352,0.67948246,9.711441993713379,1.8442546129226685,-0.6376221179962158,-3.705249547958374,9.206623077392578, -1.7189970016479492
142,383462819,0.07468018,0.7266569,0.055260785,0.6806902,9.625702857971191,1.7995330095291138,-0.6429442763328552,-6.078677654266357,11.452154159545898, -2.0743606090545654
143,383479486,0.07528833,0.72566235,0.05518818,0.68168914,9.515864372253418,1.615702509880066,-0.7508703470230103,-6.268454074859619,9.289261817932129, -2.4061732292175293
144,383496153,0.075602464,0.7250297,0.055467717,0.6823048,9.545631408691406,1.4494682550430298,-0.8223811388015747,-2.377960205078125,6.065901279449463, -2.88523268699646
145,383512820,0.07558133,0.7246716,0.056116905,0.6826342,9.607756614685059,1.636304497718811,-0.7582770586013794,1.6539980173110962,3.755084753036499, -3.2437846660614014
146,383529487,0.07556184,0.7244375,0.056830935,0.68282586,9.622478485107422,1.8162791728973389,-0.6782211661338806,0.836581289768219,2.295903205871582, -3.5386123657226562
147,383546154,0.07596925,0.7242992,0.057112236,0.6829039,9.620147705078125,1.8194669485092163,-0.6455160975456238,-1.789175033569336,1.166869878768921, -3.491663932800293
148,383562821,0.0760883,0.72414786,0.05772029,0.6829999,9.640109062194824,1.7775596380233765,-0.6162964701652527,-1.90274178981781,1.014704704284668, -3.586289882659912
149,383579488,0.07654126,0.72382796,0.05805731,0.6832599,9.618027687072754,1.8510055541992188,-0.5216611623764038,-3.0617423057556152,2.719498872756958, -3.899751663208008
150,383596155,0.07720375,0.7235549,0.0582446,0.68345845,9.589042663574219,1.8595457077026367,-0.5489460825920105,-4.294238567352295,2.117626428604126, -4.178033828735352
151,383612822,0.077797525,0.72342867,0.058481608,0.6835047,9.61819076538086,1.7873972654342651,-0.5645462870597839,-4.511869430541992,0.5386542677879333, -4.072662353515625
152,383629489,0.07839266,0.7234005,0.058727276,0.6834455,9.62092399597168,1.7595393657684326,-0.6052746176719666,-3.7378411293029785,-0.31656020879745483, -4.1784820556640625
153,383646156,0.079024404,0.723441,0.05897995,0.683308,9.609823226928711,1.8115830421447754,-0.6173421144485474,-3.1361217498779297,-0.9024634957313538, -4.442945957183838
154,383662823,0.07960001,0.72352314,0.05933432,0.6831234,9.596288681030273,1.8119996786117554,-0.6438280940055847,-3.8639581203460693,-1.557969570159912, -4.614627838134766
155,383679490,0.080315985,0.7236519,0.059621666,0.68287826,9.646605491638184,1.7844496965408325,-0.6239964962005615,-3.450838088989258,-1.8908066749572754, -5.033370018005371
156,383696157,0.080921344,0.7238154,0.06006301,0.6825947,9.668630599975586,1.7827507257461548,-0.5941559076309204,-2.2910046577453613,-2.1429123878479004, -5.287075996398926
157,383712824,0.08156587,0.72401434,0.060652643,0.68225485,9.681349754333496,1.7393264770507812,-0.5721296668052673,-1.725476622581482,-2.5198287963867188, -6.234875202178955
158,383729491,0.081938334,0.7242366,0.061634243,0.68188614,9.602179527282715,1.7203580141067505,-0.5797343850135803,0.8486706614494324,-2.5748069286346436, -6.891816139221191
159,383746158,0.08201931,0.7245404,0.062906764,0.68143725,9.559623718261719,1.8678407669067383,-0.5030418038368225,4.0005059242248535,-3.0201220512390137, -7.012617588043213
160,383762825,0.08226978,0.7248858,0.06406788,0.68093145,9.539554595947266,1.986031174659729,-0.5408315658569336,2.5151612758636475,-3.6786892414093018, -7.25988245010376
161,383779492,0.082825005,0.72525007,0.065032944,0.68038476,9.535072326660156,1.9021146297454834,-0.6577808260917664,-0.06727176904678345,-4.260763168334961, -7.711012363433838
162,383796159,0.083605185,0.7255865,0.06585702,0.6798511,9.629313468933105,2.030562162399292,-0.6747562885284424,-0.8677070736885071,-4.0287628173828125, -8.130074501037598
163,383812826,0.08459814,0.7257791,0.066488616,0.67946094,9.641016960144043,2.1748509407043457,-0.7120210528373718,-2.8680596351623535,-2.8247997760772705, -8.153779029846191
164,383829493,0.085620254,0.725624,0.06712664,0.6794361,9.64185619354248,2.170929431915283,-0.728015124797821,-3.7526588439941406,0.5279995799064636, -8.235509872436523
165,383846160,0.08672394,0.72502583,0.06778914,0.6798687,9.55200481414795,2.169578790664673,-0.7614319920539856,-3.37506365776062,5.1147236824035645, -8.741246223449707
166,383862827,0.08772995,0.7244479,0.068582,0.6802758,9.50495719909668,2.1463308334350586,-0.7247721552848816,-2.9043402671813965,4.8735671043396, -8.89667797088623
167,383879494,0.08886593,0.7240656,0.069231294,0.6804699,9.539946556091309,2.0510518550872803,-0.736609160900116,-3.8027188777923584,2.8064165115356445, -8.833964347839355
168,383896161,0.08981919,0.7238379,0.070094846,0.68049824,9.568609237670898,2.0757172107696533,-0.6892653107643127,-2.0724778175354004,1.3994207382202148, -9.058074951171875
169,383912828,0.090764284,0.7236369,0.07101744,0.68049115,9.540579795837402,2.121835231781006,-0.6798155307769775,-2.3119311332702637,1.0017192363739014, -9.294236183166504
170,383929495,0.091660336,0.7233112,0.07203835,0.68061,9.527356147766113,2.2345657348632812,-0.7009875774383545,-2.068495035171509,2.226839303970337, -9.520820617675781
171,383946162,0.09276523,0.7230379,0.07286604,0.6806625,9.516118049621582,2.281327962875366,-0.663230299949646,-2.827937364578247,1.6971172094345093, -9.61672592163086
172,383962829,0.09405651,0.7228099,0.073494814,0.68065983,9.50866985321045,2.31191086769104,-0.6247395873069763,-5.460232257843018,0.7909525036811829, -9.462845802307129
173,383979496,0.095420666,0.72267145,0.074000336,0.6805621,9.519087791442871,2.2360613346099854,-0.6189455986022949,-5.340698719024658,0.017256565392017365, -9.258931159973145
174,383996163,0.09637643,0.7226653,0.074850425,0.680341,9.509252548217773,2.1927359104156494,-0.587576687335968,-2.1308491230010986,-0.9245034456253052, -9.043783187866211
175,384012830,0.097164854,0.7227975,0.07584971,0.6799777,9.465542793273926,2.2296433448791504,-0.6286016702651978,-0.20273737609386444,-2.0369656085968018, -9.045804977416992
176,384029497,0.0978243,0.72300756,0.07695638,0.6795355,9.518519401550293,2.4848737716674805,-0.4951496720314026,-0.05560518801212311,-2.927839994430542, -8.929922103881836
177,384046164,0.09869557,0.7233032,0.07768039,0.6790122,9.520855903625488,2.6724746227264404,-0.3504243493080139,-1.7226465940475464,-3.8358612060546875, -8.082320213317871
178,384062831,0.09983023,0.7236694,0.077913366,0.67842907,9.40888786315918,2.756920576095581,-0.4840966463088989,-5.793056964874268,-5.094610691070557, -6.822943687438965
179,384079498,0.10111362,0.7241025,0.07782455,0.67778695,9.395600318908691,2.6240100860595703,-0.7147722244262695,-7.759037017822266,-5.960500240325928, -5.910171031951904
180,384096165,0.10243546,0.7245408,0.07772292,0.67713124,9.451178550720215,2.3509092330932617,-0.8559740781784058,-7.887151718139648,-6.046840667724609, -6.025825023651123
181,384112832,0.10360305,0.7249451,0.07778982,0.676513,9.531795501708984,2.4786601066589355,-0.8221065998077393,-6.387220859527588,-5.49182653427124, -6.142670631408691
182,384129499,0.104991205,0.7253144,0.07772972,0.67591006,9.4901704788208,2.3710083961486816,-0.7900956273078918,-7.9322829246521,-5.40498685836792, -6.554472923278809
183,384146166,0.106338024,0.7256663,0.0777351,0.6753207,9.516108512878418,2.449408531188965,-0.688235342502594,-7.588906288146973,-5.2197041511535645, -6.684443950653076
184,384162833,0.107561626,0.72608155,0.077883475,0.6746633,9.495877265930176,2.407918691635132,-0.7637385129928589,-6.12764835357666,-5.657873153686523, -6.851078987121582
185,384179500,0.10863614,0.72652745,0.07818785,0.67397535,9.485754013061523,2.4836573600769043,-0.8088959455490112,-4.673588752746582,-5.769134044647217, -6.946805953979492
186,384196167,0.10922452,0.72705007,0.07884014,0.6732403,9.502347946166992,2.5657033920288086,-0.7462326288223267,-0.5062095522880554,-5.821857929229736, -6.431811809539795
187,384212834,0.10989304,0.72764087,0.079290934,0.6724399,9.445157051086426,2.9922566413879395,-0.5799329280853271,-1.7076247930526733,-6.645460605621338, -5.81063985824585
188,384229501,0.110786565,0.72815925,0.07924341,0.67173743,9.46309757232666,2.9040918350219727,-0.6075001358985901,-5.186482906341553,-6.3151960372924805, -4.303677558898926
189,384246168,0.11104262,0.7280191,0.07983742,0.6717768,9.37173080444336,2.808828353881836,-0.654568076133728,-0.09401141852140427,1.2220779657363892, -4.336409568786621
190,384262835,0.11074685,0.72758335,0.08096734,0.6721622,9.45469856262207,2.9854438304901123,-0.5603035092353821,4.738535404205322,5.028382301330566, -4.357847690582275
191,384279502,0.11022489,0.7273812,0.082104355,0.6723289,9.236387252807617,2.8590917587280273,-0.7094967365264893,6.273223400115967,2.993542432785034, -3.37136173248291
192,384296169,0.10976473,0.727653,0.082882196,0.67201453,9.359663963317871,2.5709550380706787,-0.9205787181854248,4.844956398010254,-1.9377163648605347, -1.9363844394683838
193,384312836,0.10923639,0.72818756,0.08353453,0.67144054,9.419612884521484,2.6933844089508057,-0.9764103889465332,5.180227279663086,-4.4319586753845215, -1.0597256422042847
194,384329503,0.10902158,0.72874,0.08379526,0.67084336,9.426531791687012,2.7699553966522217,-1.0246909856796265,1.396167516708374,-5.215706825256348, -0.5167746543884277
195,384346170,0.10920074,0.729298,0.08363157,0.67022806,9.408014297485352,2.6331894397735596,-1.0360920429229736,-2.1994903087615967,-5.772731304168701, -0.23623871803283691
196,384362837,0.10939907,0.7298702,0.08348452,0.66959083,9.404767990112305,2.4865167140960693,-1.075863242149353,-2.32417368888855,-5.969822406768799, -0.4057948589324951
197,384379504,0.10948718,0.7305038,0.08354248,0.66887784,9.440009117126465,2.3706319332122803,-1.0029503107070923,-0.67507404088974,-6.382813453674316, -0.9616161584854126
198,384396171,0.10940598,0.7312104,0.08387003,0.66807747,9.418951034545898,2.39155912399292,-0.964938759803772,1.2279689311981201,-6.932090759277344, -1.5497220754623413
199,384412838,0.109322645,0.7320418,0.08428184,0.66712815,9.377408981323242,2.545663833618164,-0.8208487629890442,1.9473403692245483,-8.143316268920898, -2.0279242992401123
200,384429505,0.10933416,0.73301315,0.08458735,0.66602015,9.307445526123047,2.625300884246826,-0.8519240617752075,1.3044489622116089,-9.687251091003418, -1.9805028438568115
201,384446172,0.10942035,0.7341241,0.084843405,0.66474867,9.317404747009277,2.574249744415283,-0.8879534006118774,0.7286496162414551,-11.283462524414062, -2.096618175506592
202,384462839,0.109465465,0.73536843,0.08511052,0.66333026,9.402644157409668,2.6494035720825195,-0.8294950723648071,1.4056063890457153,-12.538894653320312, -2.020625352859497
203,384479506,0.10950992,0.7367271,0.08532689,0.6617855,9.42647647857666,2.5569305419921875,-0.8746216297149658,1.2258437871932983,-13.776708602905273, -1.7760241031646729
204,384496173,0.10924328,0.73827285,0.08584865,0.6600372,9.428045272827148,2.5725104808807373,-0.7290751934051514,5.035890102386475,-15.088082313537598, -2.0165536403656006
205,384512840,0.10851455,0.7400969,0.08677079,0.6579912,9.402905464172363,2.675001621246338,-0.5871874094009399,9.647029876708984,-17.28937530517578, -2.0234572887420654
206,384529507,0.10825137,0.74213374,0.08723136,0.65567535,9.319231986999512,3.0875000953674316,-0.5856381058692932,5.515965938568115,-20.272611618041992, -1.855668544769287
207,384546174,0.108615555,0.7443757,0.08697496,0.6531026,9.320866584777832,2.7890255451202393,-1.0267974138259888,-0.6597587466239929,-23.464685440063477, -1.0643634796142578
208,384562841,0.109056406,0.74682045,0.08654583,0.6502891,9.35694408416748,2.69059157371521,-1.256391167640686,-1.4702621698379517,-25.774187088012695, -0.5840606093406677
209,384579508,0.109638855,0.7493793,0.0859238,0.64732337,9.389679908752441,2.822800874710083,-1.4064092636108398,-2.893064022064209,-27.29894256591797, -0.2709830403327942
210,384596175,0.11033481,0.7519623,0.085117914,0.6443089,9.437621116638184,2.8482134342193604,-1.3268827199935913,-4.329044342041016,-27.88254737854004, 0.1670144647359848
211,384612842,0.11086874,0.7546033,0.08437578,0.6412199,9.36546802520752,2.747588634490967,-1.345203161239624,-3.0958411693573,-28.381473541259766, 0.536414623260498
212,384629509,0.11099715,0.75733316,0.08394207,0.6380283,9.375528335571289,2.7868518829345703,-1.1930439472198486,0.42686888575553894,-28.862855911254883, 0.7123488783836365
213,384646176,0.111073636,0.7601536,0.08350047,0.6347102,9.347872734069824,2.744943857192993,-1.3082094192504883,0.9467700719833374,-29.874963760375977, 0.918339729309082
214,384662843,0.11123501,0.7630655,0.0829364,0.6312521,9.323844909667969,2.7949466705322266,-1.4229216575622559,0.04636554419994354,-31.187152862548828, 1.1501356363296509
215,384679510,0.111310355,0.7660247,0.082367666,0.6277195,9.377029418945312,2.6931424140930176,-1.6334043741226196,0.6904374957084656,-31.715471267700195, 1.498533844947815
216,384696177,0.11120841,0.76901174,0.08191662,0.6241345,9.369109153747559,2.7073957920074463,-1.8496224880218506,2.074681043624878,-31.96278953552246, 1.6409153938293457
217,384712844,0.11079951,0.7720721,0.0816355,0.6204547,9.310669898986816,2.7608675956726074,-1.9026381969451904,4.511124134063721,-32.48649978637695, 2.0346481800079346
218,384729511,0.11016499,0.7752257,0.08147628,0.61664444,9.310952186584473,2.763566017150879,-1.8711930513381958,6.383331775665283,-33.360076904296875, 2.305363655090332
219,384746178,0.10934374,0.7785257,0.08136633,0.61263466,9.266475677490234,2.7157418727874756,-1.92218816280365,7.91572380065918,-34.883758544921875, 2.7461097240448
220,384762845,0.108515166,0.78199524,0.08113665,0.608379,9.32198429107666,2.8394360542297363,-1.9726922512054443,7.68426513671875,-37.02244567871094, 3.3384463787078857
221,384779512,0.10761484,0.78563803,0.08079127,0.6038748,9.443208694458008,2.765700578689575,-2.0436789989471436,7.864455699920654,-39.14386749267578, 4.178703308105469
222,384796179,0.106485836,0.7895126,0.08045216,0.59904766,9.584829330444336,2.8188042640686035,-1.8931759595870972,9.468724250793457,-41.74188995361328, 4.990353107452393
223,384812846,0.105271086,0.7936968,0.080037884,0.5937655,9.648026466369629,2.839336633682251,-1.885674238204956,10.074468612670898,-45.538719177246094, 5.605056285858154
224,384829513,0.1037531,0.79830706,0.079592235,0.5878828,9.816197395324707,2.607074499130249,-1.9844210147857666,12.286550521850586,-50.4400634765625, 6.809297561645508
225,384846180,0.10230205,0.8034115,0.078556806,0.5812859,10.246415138244629,3.1723439693450928,-1.6925908327102661,10.276073455810547,-56.86295700073242, 9.534027099609375
226,384862847,0.10096694,0.80895925,0.07705701,0.57397985,10.2955322265625,2.804450750350952,-1.8039106130599976,8.45928955078125,-63.021392822265625, 11.403435707092285
227,384879514,0.09962388,0.814992,0.07525552,0.5658622,10.49692153930664,2.6852521896362305,-1.6519347429275513,8.174535751342773,-69.7075424194336, 12.77778434753418
228,384896181,0.09838493,0.82144034,0.07329302,0.5569422,10.573366165161133,2.2015316486358643,-2.067500352859497,7.6319708824157715,-76.08911895751953, 12.95139217376709
229,384912848,0.0969361,0.82826763,0.07128257,0.54726136,10.691494941711426,2.0468649864196777,-2.5327014923095703,9.353160858154297,-81.8299560546875, 13.644790649414062
230,384929515,0.09529761,0.83533067,0.06926693,0.53697616,10.813546180725098,2.1987555027008057,-2.3469929695129395,10.781786918640137,-86.1679458618164, 14.102897644042969
231,384946182,0.09340276,0.84261507,0.06737384,0.5260577,10.913434028625488,2.4965269565582275,-2.1455135345458984,13.22095012664795,-90.50121307373047, 13.982645034790039
232,384962849,0.09092614,0.8502651,0.06574838,0.51425576,11.110302925109863,2.2134745121002197,-1.8879727125167847,18.205402374267578,-96.62532806396484, 14.133228302001953
233,384979516,0.08767959,0.85835195,0.06481082,0.5013422,11.608312606811523,2.003477096557617,-1.1723604202270508,25.92687225341797,-104.03732299804688, 12.316083908081055
234,384996183,0.08402532,0.8668107,0.064641386,0.48723793,12.160341262817383,1.7653905153274536,-0.8404475450515747,31.754167556762695,-111.90159606933594, 8.607246398925781
235,385012850,0.07974333,0.875712,0.0654576,0.47168314,13.082261085510254,1.219054937362671,-0.6928519010543823,39.719749450683594,-121.41873168945312, 4.155240058898926
236,385029517,0.074028715,0.8850072,0.067679115,0.45464474,13.656734466552734,0.15546639263629913,-0.19260406494140625,53.79663848876953,-130.49649047851562, -0.3527372479438782
237,385046184,0.066485316,0.8940646,0.07112584,0.43722925,13.852879524230957,0.2158377766609192,-0.7202209234237671,68.79955291748047,-130.9051055908203, -2.4796671867370605
238,385062851,0.056360822,0.901815,0.07508346,0.42180088,14.21216106414795,0.13430701196193695,-1.3613649606704712,84.61817932128906,-113.59984588623047, 2.3478198051452637
239,385079518,0.045036327,0.90851516,0.07938586,0.4077619,12.789468765258789,1.9051806926727295,-1.9299075603485107,91.91287994384766,-101.52640533447266, 3.6459081172943115
240,385096185,0.032335844,0.9151977,0.084758155,0.39266253,10.440967559814453,3.69346022605896,-4.396252155303955,104.11245727539062,-107.3128433227539, 0.5376848578453064
241,385112852,0.018843273,0.9210047,0.09115143,0.3782682,9.245933532714844,3.3256025314331055,-5.873040676116943,111.32398986816406,-99.9715576171875, -3.9533891677856445
242,385129519,0.0013558762,0.92474085,0.099076495,0.36747336,11.38299560546875,2.1619691848754883,-1.8484113216400146,138.15542602539062,-69.1612777709961, -3.9341092109680176
243,385146186,-0.014958175,0.9257283,0.107521154,0.3622741,8.402928352355957,2.545363664627075,0.8537285327911377,128.23472595214844,-27.70244598388672, -11.880216598510742
244,385162853,-0.025637599,0.92507505,0.11218967,0.36192888,6.38342809677124,1.1044448614120483,-1.1704277992248535,80.58682250976562,3.3067076206207275, -4.454164028167725
245,385179520,-0.033961024,0.9228268,0.11523193,0.3660039,7.006589889526367,0.7396471500396729,-0.9601597785949707,58.41355514526367,33.71514892578125, -1.8319649696350098
246,385196187,-0.038494326,0.9189087,0.11711665,0.37471166,6.937971115112305,0.702164351940155,-0.6996619701385498,28.100688934326172,64.41873168945312, -6.249095439910889
247,385212854,-0.039565615,0.913251,0.117141135,0.38818198,6.660342693328857,0.23982006311416626,-0.9139685034751892,-2.487036943435669,96.53264617919922, -5.4601545333862305
248,385229521,-0.037964515,0.9056113,0.11537065,0.40634537,6.484841346740723,0.047146234661340714,-1.2738655805587769,-27.021488189697266,129.51153564453125, -4.443475723266602
249,385246188,-0.03368267,0.8958106,0.111390404,0.4289298,6.57865047454834,0.10325347632169724,-1.6264041662216187,-52.19977569580078,161.4590606689453, -1.5774797201156616
250,385262855,-0.026365973,0.88385886,0.10489168,0.4550781,7.086177349090576,0.2876178026199341,-2.4491398334503174,-81.745849609375,187.8956298828125, 3.403451681137085
251,385279522,-0.016089503,0.86967164,0.09568282,0.48400113,7.955231189727783,0.5622566938400269,-2.987898349761963,-109.83526611328125,210.06640625, 8.393838882446289
252,385296189,-0.0028713166,0.85313,0.08385334,0.51490766,8.569339752197266,0.8301072716712952,-3.5628910064697266,-137.21714782714844,228.09573364257812, 12.376460075378418
253,385312856,0.012284655,0.8341256,0.06975692,0.54700786,9.299773216247559,0.9987035393714905,-4.482933521270752,-157.27134704589844,242.75926208496094, 17.22015380859375
254,385329523,0.027764771,0.8126112,0.05433965,0.5796026,10.277315139770508,1.1906559467315674,-5.154507160186768,-164.5643310546875,254.83761596679688, 22.254159927368164
255,385346190,0.042642575,0.78884536,0.03824087,0.61191666,11.17067813873291,1.4714174270629883,-5.338069915771484,-164.2515411376953,262.4520568847656, 27.4119815826416
256,385362857,0.056045014,0.7630793,0.022326145,0.64348304,12.077363014221191,1.412117838859558,-5.474822998046875,-155.86639404296875,267.40380859375, 31.74003028869629
257,385379524,0.06610033,0.73574555,0.008422104,0.6739722,12.71246337890625,1.2251839637756348,-5.470554351806641,-129.83993530273438,270.1595764160156, 35.230308532714844
258,385396191,0.07181456,0.7075433,-0.0017061541,0.70300955,13.122929573059082,1.238547921180725,-5.403721332550049,-90.67928314208984,269.02264404296875, 35.45645523071289
259,385412858,0.07321541,0.679367,-0.007590999,0.7300975,13.128022193908691,0.7797113656997681,-5.390202522277832,-49.17812728881836,261.7004089355469, 34.66857147216797
260,385429525,0.07110785,0.6519306,-0.009469345,0.75487787,12.708592414855957,0.8916062712669373,-4.960750102996826,-12.410959243774414,249.31546020507812, 32.358760833740234
261,385446192,0.06765203,0.6256988,-0.009151327,0.77707183,11.929885864257812,1.4665254354476929,-4.338886737823486,5.461487770080566,232.73968505859375, 28.19382095336914
262,385462859,0.06454569,0.6008343,-0.008606999,0.7967171,12.131735801696777,1.3354800939559937,-4.0306291580200195,5.641530990600586,214.87806701660156, 24.139307022094727
263,385479526,0.060955875,0.5776943,-0.0064715385,0.8139485,11.484451293945312,1.1793614625930786,-3.892448902130127,16.972854614257812,196.43431091308594, 19.094829559326172
264,385496193,0.058285236,0.55662847,-0.0022230512,0.82871157,10.713665962219238,1.3265348672866821,-3.96085524559021,25.901582717895508,176.2523956298828, 4.481296062469482
265,385512860,0.05578241,0.5388672,0.004480267,0.8405299,9.084903717041016,0.759575605392456,-4.2720112800598145,40.513790130615234,147.45132446289062, -7.0446248054504395
266,385529527,0.05172688,0.52659774,0.012683439,0.84844464,7.596887111663818,1.0073487758636475,-4.49893856048584,57.148250579833984,102.178466796875, -4.9222307205200195
267,385546194,0.048237655,0.5209623,0.017810138,0.8520296,6.953303813934326,1.6572479009628296,-4.232736587524414,39.85630416870117,46.95425796508789, 1.984146237373352
268,385562861,0.046232484,0.5207944,0.019069443,0.8522163,7.408965587615967,2.170908212661743,-3.393056869506836,14.065154075622559,1.5680042505264282, 6.728851795196533
269,385579528,0.046370503,0.52358264,0.017615518,0.85052985,8.01123046875,2.808342218399048,-1.902479648590088,-8.380109786987305,-23.34770393371582, 3.7322070598602295
270,385596195,0.049830727,0.5274058,0.012694448,0.84805596,8.528656005859375,3.7752158641815186,-0.3028525114059448,-40.253971099853516,-33.52886962890625, -3.2659194469451904
271,385612862,0.056887448,0.53148687,0.0040355665,0.8451445,8.5803861618042,4.219661712646484,0.3959907591342926,-75.03783416748047,-38.053611755371094, -10.699362754821777
272,385629529,0.06571355,0.5360455,-0.005756129,0.8416079,8.412680625915527,3.9979047775268555,-0.4865381717681885,-87.95845794677734,-43.47506332397461, -16.940265655517578
273,385646196,0.07397785,0.5416119,-0.013344602,0.837261,11.235021591186523,2.657256841659546,0.5159814357757568,-72.78619384765625,-51.17083740234375, -22.085269927978516
274,385662863,0.0811688,0.5484544,-0.016470773,0.8320686,11.757065773010254,1.35548734664917,5.9711127281188965,-42.57418441772461,-59.340553283691406, -32.9921760559082
275,385679530,0.089438766,0.556999,-0.02350927,0.8253486,13.111976623535156,-4.410036563873291,3.850003242492676,-68.25543975830078,-76.94131469726562, -25.426374435424805
276,385696197,0.09292894,0.56782943,-0.023908794,0.81753427,12.88227653503418,-3.6974399089813232,0.9067957401275635,-10.9793062210083,-90.74403381347656, -24.945058822631836
277,385712864,0.09486133,0.58005804,-0.018874729,0.8088128,11.924772262573242,0.475824236869812,0.636593759059906,26.427507400512695,-98.7931900024414, -38.37344741821289
278,385729531,0.10166132,0.5919486,-0.017958531,0.7993369,11.127866744995117,3.7218422889709473,1.0667285919189453,-16.228918075561523,-101.85888671875, -49.48390197753906
279,385746198,0.112690955,0.6023533,-0.023444813,0.7898872,9.950177192687988,2.690221071243286,0.11224932968616486,-69.72402954101562,-97.4588394165039, -46.358673095703125
280,385762865,0.121984586,0.6116733,-0.02763574,0.78116065,9.614948272705078,1.345520257949829,-0.7131340503692627,-56.264060974121094,-87.76105499267578, -41.476356506347656
281,385779532,0.1250636,0.6209539,-0.02503583,0.7734008,9.736515045166016,0.8687623143196106,-1.0794568061828613,6.468575477600098,-78.86558532714844, -35.816749572753906
282,385796199,0.12461411,0.6307278,-0.018014109,0.76572156,10.273635864257812,3.1480658054351807,-1.10553777217865,45.45895004272461,-77.84160614013672, -35.9658317565918
283,385812866,0.12672567,0.6395312,-0.014039161,0.7581184,10.069544792175293,2.927018404006958,0.4828783869743347,17.448047637939453,-74.59060668945312, -35.997222900390625
284,385829533,0.1326443,0.6467242,-0.01468796,0.750958,9.344740867614746,2.6889548301696777,0.1918933391571045,-24.78034782409668,-67.87750244140625, -34.911895751953125
285,385846200,0.14051832,0.65256065,-0.01742829,0.7443896,10.293272972106934,1.4268238544464111,-0.19246838986873627,-45.475311279296875,-59.92195510864258, -34.9697265625
286,385862867,0.14635278,0.6578576,-0.018014034,0.73856616,10.165522575378418,1.0012969970703125,-0.667322039604187,-25.74481964111328,-51.95024871826172, -33.40655517578125
287,385879534,0.14905408,0.6626524,-0.015217908,0.73378694,10.06070327758789,1.3703340291976929,-0.8916962742805481,5.211395740509033,-41.64425277709961, -31.705284118652344
288,385896201,0.14963387,0.66682476,-0.0102392305,0.7299656,10.376815795898438,2.259854555130005,-0.05259482190012932,25.341312408447266,-32.12364959716797, -29.928287506103516
289,385912868,0.14909376,0.67026395,-0.004523915,0.72697806,10.01925277709961,2.4342539310455322,-0.5466273427009583,33.47608184814453,-23.988767623901367, -26.788307189941406
290,385929535,0.14812113,0.6732606,0.0010905928,0.7244165,9.681035995483398,2.0334880352020264,-0.49582183361053467,34.526004791259766,-19.979106903076172, -23.723278045654297
291,385946202,0.14635657,0.6759704,0.0070804013,0.72221464,9.990914344787598,1.6607786417007446,-0.7729278802871704,39.77370071411133,-16.56051254272461, -21.17791748046875
292,385962869,0.14336032,0.6783984,0.014211125,0.7204315,10.283461570739746,1.853517770767212,-0.6915736794471741,50.86912536621094,-12.071908950805664, -19.999420166015625
293,385979536,0.13977729,0.6804361,0.021623202,0.7190283,9.865297317504883,2.3920111656188965,-0.40792790055274963,54.59027862548828,-8.104567527770996, -18.10814666748047
294,385996203,0.13562186,0.68224794,0.029125456,0.7178415,9.540579795837402,2.6004257202148438,-0.08997438848018646,57.4801139831543,-5.886282920837402, -15.546684265136719
295,386012870,0.13128303,0.6839784,0.03634785,0.71667105,9.3358793258667,2.867107391357422,0.20133265852928162,56.898616790771484,-5.722908020019531, -13.342344284057617
296,386029537,0.1274029,0.6857211,0.04270116,0.7153543,9.307657241821289,2.8195462226867676,0.5252791047096252,50.52767562866211,-7.464547157287598, -11.647615432739258
297,386046204,0.12437773,0.6875946,0.04796547,0.7137531,9.302450180053711,2.6843912601470947,0.670616090297699,41.36113357543945,-10.749876976013184, -10.931012153625488
298,386062871,0.122447334,0.6896959,0.05206765,0.71176934,9.229907035827637,2.578176975250244,0.7496539950370789,30.82579803466797,-15.121871948242188, -11.063481330871582
299,386079538,0.120851904,0.69224757,0.055721927,0.70928377,9.089492797851562,2.7190253734588623,0.9330710768699646,27.625274658203125,-20.28681182861328, -10.842545509338379
300,386096205,0.120216034,0.69510907,0.05822084,0.7063868,9.050869941711426,3.081000328063965,0.8677506446838379,17.859539031982422,-25.163049697875977, -10.24386215209961
301,386112872,0.120245345,0.69827664,0.05994337,0.7031059,9.124340057373047,3.114619731903076,0.6296467781066895,11.335333824157715,-29.464080810546875, -9.949649810791016
302,386129539,0.121650554,0.70156956,0.060274392,0.6995488,9.225152969360352,3.07708477973938,0.29529812932014465,-1.7633137702941895,-33.17265701293945, -10.088168144226074
303,386146206,0.12394686,0.70498264,0.059545387,0.69576675,9.489665985107422,2.7563328742980957,-0.07187716662883759,-10.952932357788086,-36.139888763427734, -9.392163276672363
304,386162873,0.12646031,0.7085311,0.058588136,0.6917797,9.540644645690918,2.4049482345581055,-0.444764107465744,-12.88741397857666,-38.103755950927734, -9.444086074829102
305,386179540,0.12910335,0.71222407,0.057660796,0.68756425,9.45852279663086,2.353914260864258,-0.5067959427833557,-13.150785446166992,-39.95986557006836, -10.352426528930664
306,386196207,0.13181049,0.71621567,0.05685823,0.68295574,9.300835609436035,2.520491361618042,-0.2790686786174774,-12.446802139282227,-43.237300872802734, -11.503159523010254
307,386212874,0.13473164,0.7206227,0.055681426,0.6778275,9.267672538757324,2.7571234703063965,-0.08794163912534714,-14.67026138305664,-48.19894027709961, -10.976655960083008
308,386229541,0.13782817,0.7255716,0.054064274,0.6720318,9.435022354125977,2.5245747566223145,-0.12124192714691162,-16.825489044189453,-54.53507614135742, -10.023212432861328
309,386246208,0.14095753,0.73098874,0.05215892,0.66563225,9.459025382995605,2.7865378856658936,-0.14834856986999512,-17.645923614501953,-60.02253341674805, -9.139097213745117
310,386262875,0.14392567,0.73686326,0.05024033,0.65863043,9.420337677001953,2.7594239711761475,-0.5213311314582825,-16.229032516479492,-65.12255859375, -8.755215644836426
311,386279542,0.14664102,0.74313825,0.04830194,0.651083,9.57697868347168,3.1373491287231445,-0.7505738139152527,-14.447988510131836,-69.65225219726562, -7.913328170776367
312,386296209,0.14860913,0.7498423,0.046864044,0.6430053,9.604169845581055,2.7366368770599365,-1.2196017503738403,-7.775193691253662,-73.54556274414062, -7.51614236831665
313,386312876,0.14892967,0.7570619,0.04653596,0.63443816,9.783072471618652,2.6587073802948,-1.0818220376968384,6.3136420249938965,-76.69444274902344, -6.291442394256592
314,386329543,0.14842679,0.76477987,0.0466479,0.6252241,9.812085151672363,2.858334541320801,-0.9278886318206787,13.240245819091797,-81.53618621826172, -5.497986793518066
315,386346210,0.14812331,0.7728626,0.046427622,0.6152948,9.987597465515137,3.0559511184692383,-0.836213231086731,11.37012767791748,-87.28353118896484, -5.224390983581543
316,386362877,0.14786816,0.7812817,0.0461917,0.60464907,10.483992576599121,3.0729901790618896,-0.6082557439804077,11.624329566955566,-92.56371307373047, -5.969313621520996
317,386379544,0.14763856,0.79003793,0.04623619,0.5932161,10.50185775756836,2.962088108062744,-1.0286102294921875,13.252514839172363,-97.93899536132812, -8.278054237365723
318,386396211,0.14712898,0.7992893,0.046309777,0.5808144,11.015175819396973,2.883147954940796,-1.0663870573043823,15.707802772521973,-105.12049865722656, -8.123905181884766
319,386412878,0.14668489,0.8092395,0.04569194,0.5670339,12.206393241882324,3.3005707263946533,-0.9585877060890198,13.738066673278809,-116.23033142089844, -5.763955116271973
320,386429545,0.14647815,0.81967074,0.044417266,0.5520066,12.683581352233887,2.715649127960205,-0.259695827960968,10.740283966064453,-125.80570983886719, -4.146353244781494
321,386446212,0.14571369,0.8308763,0.04306946,0.53531075,13.238744735717773,2.3130099773406982,-0.4804723262786865,14.902373313903809,-138.08692932128906, -3.0727086067199707
322,386462879,0.14281198,0.8429925,0.04309957,0.5168282,14.4244966506958,2.4907419681549072,0.7639251947402954,33.63130187988281,-149.66944885253906, -4.612820625305176
323,386479546,0.13834639,0.8555154,0.04494768,0.49692407,15.16232681274414,2.111335039138794,1.5111868381500244,49.98701858520508,-157.15737915039062, -10.883052825927734
324,386496213,0.1308536,0.8684884,0.049112637,0.4755979,15.129766464233398,1.1574900150299072,0.9740676283836365,76.58924865722656,-163.98318481445312, -15.39836597442627
325,386512880,0.12094923,0.88149136,0.054944925,0.45312858,15.052334785461426,0.22814638912677765,0.867847740650177,96.86231994628906,-168.65293884277344, -18.505937576293945
326,386529547,0.10825842,0.8940815,0.060857423,0.43034297,14.750292778015137,-0.7453131079673767,-1.7805960178375244,113.7780532836914,-168.22312927246094, -10.747745513916016
327,386546214,0.09240506,0.90572286,0.06588247,0.40839598,15.53946590423584,1.036787986755371,-0.6672104597091675,129.52610778808594,-159.64071655273438, 4.277157783508301
328,386562881,0.07880696,0.91335,0.069057286,0.39346194,14.26909065246582,1.8313751220703125,0.5825808048248291,104.54851531982422,-106.93570709228516, 12.099894523620605
329,386579548,0.059381947,0.9208848,0.07595156,0.3777256,10.2798433303833,5.287156581878662,-5.5312652587890625,151.5480499267578,-107.00492858886719, 4.036622047424316
330,386596215,0.043044146,0.92652726,0.08390596,0.36421794,11.082757949829102,4.053107261657715,-4.168543815612793,132.82986450195312,-89.15596008300781, -10.737265586853027
331,386612882,0.020241851,0.92816365,0.094187394,0.35948777,11.680432319641113,-1.9913102388381958,4.836042881011963,173.61021423339844,-18.802452087402344, -9.055282592773438
332,386629549,-0.001957566,0.92623234,0.104630314,0.36213595,5.277181148529053,1.0092005729675293,1.6561464071273804,164.88035583496094,36.67180252075195, -12.852792739868164
333,386646216,-0.018921265,0.9222677,0.11078043,0.3698542,5.898169040679932,0.47044116258621216,-0.3112897276878357,117.22844696044922,70.30361938476562, -0.05731218308210373
334,386662883,-0.03241129,0.9161547,0.11610917,0.38226834,7.2372541427612305,0.7865370512008667,0.04245184361934662,89.81391906738281,103.00232696533203, -5.911582946777344
335,386679550,-0.03942982,0.90791965,0.11946421,0.39981976,6.514932632446289,1.4555734395980835,-0.2761582136154175,40.23500061035156,136.20372009277344, -13.314309120178223
336,386696217,-0.03994107,0.8976149,0.11973136,0.4223232,6.320832252502441,1.8140323162078857,-0.6880596876144409,-12.377884864807129,168.2989501953125, -14.960955619812012
337,386712884,-0.034223102,0.8850866,0.116459444,0.44931945,6.487856388092041,2.1729719638824463,-1.281690001487732,-64.18740844726562,198.3380889892578, -14.268404960632324
338,386729551,-0.023095584,0.8701186,0.10910358,0.48005965,7.321684837341309,1.831802487373352,-2.21150803565979,-112.15569305419922,225.30859375, -8.963542938232422
339,386746218,-0.009163744,0.8524472,0.098713085,0.513328,8.476339340209961,1.3893985748291016,-3.434321165084839,-140.4285125732422,247.7595672607422, -2.5023205280303955
340,386762885,0.005237419,0.83211386,0.08643923,0.5478024,9.623292922973633,1.3344483375549316,-4.351822853088379,-150.48757934570312,264.04913330078125, 4.984490394592285
341,386779552,0.019932875,0.80934936,0.07217345,0.5825354,10.464238166809082,1.517879605293274,-5.135266304016113,-159.92703247070312,274.4686279296875, 13.823535919189453
342,386796219,0.03470611,0.78436565,0.055537183,0.616832,11.180390357971191,1.760378122329712,-5.491979598999023,-169.95486450195312,280.6015625, 25.530399322509766
343,386812886,0.04882514,0.75740564,0.037520476,0.6500348,11.86014461517334,2.3638534545898438,-5.416261672973633,-172.3447265625,283.04266357421875, 34.723209381103516
344,386829553,0.061158013,0.72869575,0.019308837,0.6818282,12.552120208740234,2.501380205154419,-5.320682525634766,-164.14027404785156,283.95794677734375, 42.7910041809082
345,386846220,0.06967072,0.6986621,0.0035392137,0.71204287,13.246955871582031,2.823317050933838,-5.228601932525635,-133.89305114746094,283.8236083984375, 47.62213134765625
346,386862887,0.074116856,0.6680246,-0.007962614,0.7403963,13.441509246826172,3.164851188659668,-5.154698848724365,-93.69949340820312,280.0201416015625, 46.12544250488281
347,386879554,0.075661466,0.63783,-0.0149413785,0.76630634,13.142834663391113,3.629533052444458,-5.3062744140625,-57.25165939331055,268.7304382324219, 38.85997009277344
348,386896221,0.075839594,0.60876423,-0.01819969,0.78950834,12.759681701660156,3.5397679805755615,-5.466633319854736,-31.351490020751953,252.75051879882812, 28.233829498291016
349,386912888,0.07423427,0.5810966,-0.01611989,0.81028175,12.785517692565918,3.241556406021118,-6.176982879638672,5.510769844055176,237.6138153076172, 14.146319389343262
350,386929555,0.070178844,0.5565942,-0.005643438,0.8277961,11.508881568908691,3.151543378829956,-6.804965496063232,63.32631301879883,211.04122924804688, -7.753101348876953
351,386946222,0.06619074,0.53750306,0.009621956,0.84060514,9.437265396118164,4.077237606048584,-7.425781726837158,92.73778533935547,164.61912536621094, -28.932180404663086
352,386962889,0.064928375,0.52538097,0.021078564,0.8481245,7.236634731292725,4.7246832847595215,-7.771883487701416,64.14469146728516,102.947021484375, -32.537837982177734
353,386979556,0.067877226,0.5212673,0.02277051,0.8503852,6.562188625335693,4.384097099304199,-7.7587151527404785,-3.6970090866088867,32.355403900146484, -22.986003875732422
354,386996223,0.07402962,0.5242083,0.017606325,0.84818363,7.536310195922852,3.166574001312256,-7.930559158325195,-51.296424865722656,-28.51253890991211, -18.09946632385254
355,387012890,0.08179586,0.53168195,0.010564404,0.842919,8.47653865814209,2.9954850673675537,-7.162579536437988,-65.40394592285156,-67.0636215209961, -21.73491668701172
356,387029557,0.090641566,0.54111284,0.0031727063,0.8360451,11.449014663696289,3.368137836456299,-3.2467308044433594,-70.17558288574219,-84.49658203125, -27.455045700073242
357,387046224,0.10480972,0.5511993,-0.010441622,0.82769895,12.064144134521484,0.7305309176445007,2.1331698894500732,-125.3250503540039,-97.69244384765625, -35.776973724365234
358,387062891,0.12052329,0.5621072,-0.029384345,0.817708,14.431209564208984,-4.0664143562316895,2.1544082164764404,-161.037109375,-112.3301773071289, -25.607810974121094
359,387079558,0.13138786,0.57561475,-0.043301683,0.80593425,15.456002235412598,-6.738966464996338,-1.1783801317214966,-112.22679138183594,-130.6382293701172, -19.792516708374023
360,387096225,0.13361494,0.5920194,-0.040890396,0.79371804,12.671405792236328,-0.590816080570221,-1.686380386352539,14.948040008544922,-136.21868896484375, -37.869483947753906
361,387112892,0.1391005,0.607694,-0.03741417,0.78099906,10.64595890045166,3.9853620529174805,-1.5965909957885742,6.676711082458496,-132.3527069091797, -60.259544372558594
362,387129559,0.1463835,0.62056243,-0.038463853,0.76941216,9.934428215026855,0.8565868735313416,-2.2777743339538574,-27.54198455810547,-116.39199829101562, -49.1687126159668
363,387146226,0.15171596,0.6317461,-0.037043046,0.75928056,8.45144271850586,5.316004753112793,-3.8125364780426025,-7.469558238983154,-99.2706527709961, -47.47889709472656
364,387162893,0.15937404,0.64127445,-0.039240047,0.74955165,11.398981094360352,2.6324870586395264,-1.5714436769485474,-38.098331451416016,-92.02665710449219, -43.024986267089844
365,387179560,0.16173415,0.6504627,-0.036404166,0.74122554,10.004861831665039,0.8392333388328552,-1.1148508787155151,11.197214126586914,-79.98387145996094, -36.27198028564453
366,387196227,0.16234401,0.65932745,-0.031439792,0.7334463,9.904510498046875,2.33752703666687,-0.22032758593559265,29.644046783447266,-73.94812774658203, -36.19221878051758
367,387212894,0.16612457,0.6665531,-0.029763145,0.7261019,10.136604309082031,2.837676525115967,-0.00001973658800125122,-3.0484983921051025,-66.69265747070312, -36.43452453613281
368,387229561,0.17002282,0.672833,-0.028422577,0.7194306,10.135201454162598,1.4830989837646484,-0.9733770489692688,-6.211848735809326,-59.24641418457031, -34.51016616821289
369,387246228,0.17163762,0.6788201,-0.024873104,0.71353024,9.984332084655762,2.270759105682373,-1.0444505214691162,15.080436706542969,-52.08881759643555, -32.48040771484375
370,387262895,0.17257848,0.6840974,-0.021300562,0.7083599,9.979775428771973,3.0915157794952393,-0.8252245783805847,17.621353149414062,-45.28049087524414, -28.299928665161133
371,387279562,0.17307618,0.68873096,-0.018036382,0.7038247,9.516891479492188,3.078592300415039,-0.9488977193832397,17.528949737548828,-39.58443069458008, -23.839170455932617
372,387296229,0.17291903,0.69287443,-0.014777535,0.6998613,9.713948249816895,2.86961030960083,-0.719340980052948,20.08837890625,-34.58763122558594, -19.89938735961914
373,387312896,0.17244427,0.6966006,-0.011591103,0.6963308,9.629093170166016,2.4809436798095703,-0.8289826512336731,20.798603057861328,-30.633228302001953, -17.468093872070312
374,387329563,0.17197166,0.6999114,-0.008635476,0.6931633,9.712305068969727,2.7437660694122314,-0.8010028004646301,19.217164993286133,-27.176315307617188, -15.912131309509277
375,387346230,0.17205364,0.70280164,-0.0064197923,0.69023657,9.92251205444336,2.621532440185547,-0.8401580452919006,12.537246704101562,-24.853200912475586, -14.684846878051758
376,387362897,0.1719406,0.70550793,-0.004237129,0.68751526,9.789536476135254,2.5846853256225586,-0.6753759384155273,13.112751007080078,-23.033891677856445, -13.350251197814941
377,387379564,0.17187023,0.7081121,-0.002349479,0.68485945,9.503929138183594,2.9449057579040527,-0.5051009654998779,11.391940116882324,-22.58307647705078, -12.042895317077637
378,387396231,0.17194179,0.71071386,-0.00091109925,0.6821445,9.305462837219238,2.8585140705108643,-0.4693554937839508,8.583575248718262,-23.39794158935547, -10.593223571777344
379,387412898,0.1721762,0.71341604,0.0002353842,0.6792592,9.2982759475708,2.674415349960327,-0.42621320486068726,6.540188312530518,-25.059316635131836, -10.133282661437988
380,387429565,0.17263494,0.71631444,0.0011813918,0.6760841,9.440099716186523,2.4207913875579834,-0.3148224353790283,4.741073131561279,-27.652877807617188, -10.543207168579102
381,387446232,0.17327882,0.7194998,0.0019860142,0.67252564,9.418659210205078,2.447587013244629,-0.2817901074886322,3.5216000080108643,-31.066675186157227, -11.16606616973877
382,387462899,0.17430572,0.7229525,0.0025481707,0.6685438,9.331863403320312,2.339914321899414,-0.3399927318096161,0.8366876244544983,-34.71662902832031, -12.244491577148438
383,387479566,0.17519197,0.7267673,0.00336353,0.6641581,9.360188484191895,2.2718565464019775,-0.515062689781189,3.1476588249206543,-38.10906982421875, -13.3413724899292
384,387496233,0.17581712,0.7309613,0.0045353575,0.65936613,9.448983192443848,2.439462900161743,-0.5749443173408508,6.552906513214111,-41.46097946166992, -14.419343948364258
385,387512900,0.1765106,0.7354564,0.0056629614,0.65415287,9.398061752319336,2.71222186088562,-0.567038893699646,6.393154621124268,-45.02476119995117, -15.014413833618164
386,387529567,0.1772636,0.74029946,0.006836076,0.64845026,9.390608787536621,2.525120973587036,-0.5665485262870789,6.745635986328125,-49.03816604614258, -16.097848892211914
387,387546234,0.17815365,0.7455444,0.00794777,0.64215416,9.452339172363281,2.5581130981445312,-0.5699999332427979,6.299137592315674,-53.96009826660156, -17.107749938964844
388,387562901,0.17925909,0.7512612,0.008858354,0.6351334,9.414125442504883,2.551743507385254,-0.7827102541923523,4.9330034255981445,-60.044151306152344, -17.896493911743164
389,387579568,0.18050362,0.7574087,0.00955285,0.627423,9.726175308227539,2.7298026084899902,-0.8047571182250977,3.8508236408233643,-65.787109375, -18.218101501464844
390,387596235,0.18157423,0.76402277,0.01016411,0.6190293,9.882286071777344,2.777078151702881,-1.046161413192749,5.029079437255859,-71.4769058227539, -17.857860565185547
391,387612902,0.18221143,0.77112275,0.010865884,0.6099596,9.928196907043457,3.068535804748535,-0.9570258855819702,8.351967811584473,-76.97718048095703, -17.30508041381836
392,387629569,0.18247402,0.7788344,0.011372322,0.59999245,10.093114852905273,3.4253809452056885,-1.0895017385482788,10.36093807220459,-84.54254913330078, -15.781539916992188
393,387646236,0.1822034,0.7872086,0.011767986,0.5890384,10.484892845153809,3.291947603225708,-1.026080846786499,13.67719841003418,-92.68347930908203, -14.177781105041504
394,387662903,0.18099989,0.7963282,0.01254925,0.57701224,10.737112998962402,3.2314352989196777,-0.9196286201477051,21.317848205566406,-100.97396850585938, -13.774690628051758
395,387679570,0.1788323,0.8061561,0.013700408,0.5638652,10.963007926940918,2.9760873317718506,-0.8711632490158081,29.052438735961914,-109.40696716308594, -13.315704345703125
396,387696237,0.17551275,0.81694204,0.014652655,0.54916906,12.01285171508789,2.820406675338745,-0.6559272408485413,36.000675201416016,-121.87406158447266, -9.571128845214844
397,387712904,0.17236058,0.8284203,0.014553935,0.53272885,13.589217185974121,3.0610148906707764,0.25619298219680786,32.11412811279297,-135.6087646484375, -6.347799777984619
398,387729571,0.16967592,0.84037375,0.013495779,0.5145873,14.41126537322998,2.8361141681671143,0.7851932644844055,26.684219360351562,-148.27401733398438, -4.577970027923584
399,387746238,0.16623464,0.8528553,0.012956175,0.49480927,15.337636947631836,2.3071117401123047,1.1909127235412598,33.67350769042969,-158.9814910888672, -6.774576187133789
400,387762905,0.16048741,0.86572814,0.01484608,0.47385475,15.745462417602539,1.4526076316833496,1.0193870067596436,56.02770233154297,-164.29489135742188, -14.508392333984375
401,387779572,0.15135448,0.87880605,0.019305864,0.45212746,15.993526458740234,-0.20375169813632965,0.7550084590911865,84.87083435058594,-166.45071411132812, -19.63277244567871
402,387796239,0.13891423,0.8918521,0.025172835,0.4297317,15.195873260498047,-0.5292577147483826,-0.026478290557861328,109.28952026367188,-168.55882263183594, -18.585859298706055
403,387812906,0.12388968,0.90413386,0.030773556,0.40773377,16.08831787109375,-0.4964304268360138,-0.34273064136505127,123.54857635498047,-163.7318572998047, -9.094218254089355
404,387829573,0.10499066,0.9139076,0.036199864,0.39043552,16.259540557861328,-0.035920873284339905,0.6537820100784302,144.00877380371094,-126.87715911865234, 6.306326866149902
405,387846240,0.081423365,0.92156816,0.0446518,0.37694678,10.292448997497559,4.8742451667785645,-2.585709810256958,178.99549865722656,-93.99732971191406, 2.043182373046875
406,387862907,0.058817845,0.9287769,0.055301294,0.36174002,9.770285606384277,7.9484028816223145,-7.760603427886963,178.8942108154297,-102.80574035644531, -15.443293571472168
407,387879574,0.03365382,0.9323822,0.06735243,0.353546,14.959407806396484,-1.6704726219177246,3.2968549728393555,194.62765502929688,-47.511112213134766, -16.513078689575195
408,387896241,0.0044310377,0.93201846,0.082661845,0.3528305,6.951350212097168,-0.003161907196044922,3.2047579288482666,224.19635009765625,12.633649826049805, -27.639347076416016
409,387912908,-0.021599324,0.92907125,0.094487324,0.35697693,5.808027267456055,0.10782035440206528,-1.9804059267044067,192.43630981445312,48.104007720947266, -14.34734058380127
410,387929575,-0.043124914,0.92380464,0.10560396,0.36547676,8.26978874206543,1.8806099891662598,-0.6062545776367188,159.4308624267578,78.78629302978516, -23.005653381347656
411,387946242,-0.050892156,0.9167485,0.114192896,0.3793977,6.6828293800354,3.068185806274414,-0.02923673391342163,62.28513717651367,108.45411682128906, -44.402679443359375
412,387962909,-0.04875233,0.9077788,0.119025365,0.39924172,5.636359691619873,1.945619821548462,-0.4666346311569214,-13.92396068572998,144.3069610595703, -50.12518310546875
413,387979576,-0.041285142,0.89652115,0.12069871,0.42423752,5.840837478637695,1.202294945716858,-1.428888201713562,-59.2892951965332,179.44793701171875, -48.628257751464844
414,387996243,-0.030098116,0.88265836,0.11914247,0.45366666,6.712896823883057,1.0244317054748535,-2.087890625,-94.58299255371094,212.22100830078125, -42.997920989990234
415,388012910,-0.015259633,0.86605346,0.11349028,0.48666087,7.693296909332275,0.6675807237625122,-3.0615646839141846,-131.88621520996094,240.2904510498047, -32.52527618408203
416,388029577,0.0016639864,0.84663564,0.1039724,0.5219148,8.890164375305176,0.36528074741363525,-3.9531912803649902,-158.72418212890625,261.9638977050781, -18.931367874145508
417,388046244,0.019745365,0.8245286,0.09106051,0.5580957,9.840509414672852,0.5594043135643005,-5.161357879638672,-178.35784912109375,276.173583984375, -5.260663032531738
418,388062911,0.038157023,0.7999408,0.07495705,0.5941552,10.41568660736084,0.4359414577484131,-6.452566146850586,-192.75790405273438,284.4006042480469, 9.975851058959961
419,388079578,0.05370376,0.7731458,0.05785246,0.62929696,11.314964294433594,0.7088494300842285,-6.7187371253967285,-181.2027587890625,289.62371826171875, 25.787513732910156
420,388096245,0.06490526,0.74441,0.04202918,0.6632305,11.951482772827148,1.2863625288009644,-6.6246843338012695,-152.79202270507812,293.84136962890625, 36.541343688964844
421,388112912,0.07022386,0.7141612,0.029911723,0.69580734,12.365935325622559,1.798818588256836,-6.756975173950195,-106.05815887451172,297.1939697265625, 43.348289489746094
422,388129579,0.07027748,0.6829777,0.022627965,0.7266985,13.06244945526123,2.4185678958892822,-6.6518330574035645,-57.17620086669922,296.8557434082031, 43.79316711425781
423,388146246,0.067885675,0.65153825,0.018962057,0.75533456,13.374761581420898,2.717405080795288,-6.223116874694824,-27.389150619506836,289.7294006347656, 37.89777755737305
424,388162913,0.066047624,0.6206489,0.016126087,0.7811357,13.30881118774414,3.1276252269744873,-5.789141654968262,-24.942413330078125,274.5426940917969, 30.059890747070312
425,388179580,0.06477694,0.59100807,0.013426307,0.80394864,13.190075874328613,2.5692906379699707,-5.585840225219727,-25.744802474975586,255.14266967773438, 25.224376678466797
426,388196247,0.0628533,0.562993,0.013532215,0.8239574,13.17794132232666,2.267578601837158,-5.981625080108643,-6.605963706970215,236.13351440429688, 16.34110450744629
427,388212914,0.061187543,0.5379618,0.018674161,0.84053826,11.64900016784668,3.148955821990967,-6.101825714111328,22.52454376220703,208.18191528320312, -5.815366268157959
428,388229581,0.06259495,0.5182781,0.023720024,0.8525884,9.418461799621582,3.513824462890625,-6.930189609527588,13.413946151733398,160.15013122558594, -24.429603576660156
429,388246248,0.06549783,0.5066939,0.0246667,0.8592806,7.368032455444336,2.465970993041992,-7.684010982513428,-11.607489585876465,91.6410140991211, -19.55788230895996
430,388262915,0.06868887,0.5041278,0.021222202,0.8606316,6.696036338806152,2.4467666149139404,-7.507452011108398,-33.60466384887695,17.806636810302734, -6.827216148376465
431,388279582,0.072279654,0.50808,0.016104762,0.85812074,7.65364933013916,2.241995096206665,-6.466958999633789,-41.264766693115234,-34.924442291259766, -4.253199100494385
432,388296249,0.07657362,0.5150058,0.011485485,0.8536825,8.599498748779297,2.7015931606292725,-4.5780534744262695,-39.105804443359375,-58.96429443359375, -10.756978034973145
433,388312916,0.08273232,0.52289134,0.0057062916,0.84835595,8.45508098602295,3.6044986248016357,-3.0592591762542725,-51.95673370361328,-68.4444580078125, -17.968488693237305
434,388329583,0.090652555,0.53095406,-0.0023725214,0.84253454,9.734756469726562,3.1155846118927,-1.3365936279296875,-71.59839630126953,-72.59312438964844, -20.22085189819336
435,388346250,0.09839782,0.5389562,-0.006677632,0.8365404,11.330194473266602,1.60306978225708,2.930979013442993,-49.1516227722168,-70.49141693115234, -33.06526565551758
436,388362917,0.10628415,0.5485195,-0.01445308,0.8292294,14.274828910827637,-3.80153489112854,3.5922493934631348,-68.64146423339844,-86.69038391113281, -21.9665584564209
437,388379584,0.11285626,0.5616433,-0.020896785,0.8193801,15.831486701965332,-3.24981951713562,2.6246049404144287,-53.730655670166016,-115.717529296875, -21.736053466796875
438,388396251,0.118514396,0.57756215,-0.023057451,0.80736905,12.763442039489746,-1.0644755363464355,-0.0980755090713501,-24.2039852142334,-136.60531616210938, -35.23600769042969
439,388412918,0.12644374,0.5935431,-0.024466647,0.7944307,10.943987846374512,1.56288743019104,-0.33048680424690247,-29.150554656982422,-139.63665771484375, -51.605831146240234
440,388429585,0.13576695,0.60768837,-0.027631385,0.7819968,9.603955268859863,1.7943953275680542,-1.0522894859313965,-45.95088195800781,-128.82403564453125, -51.29518127441406
441,388446252,0.14453542,0.6200314,-0.030411167,0.77054924,8.443329811096191,4.854113578796387,-2.1105995178222656,-43.06776809692383,-114.74060821533203, -48.64097595214844
442,388462919,0.15367894,0.63159174,-0.034138024,0.75915045,10.262402534484863,5.356411457061768,-3.190864324569702,-50.466739654541016,-111.22657012939453, -46.33534240722656
443,388479586,0.15877478,0.6421534,-0.03492164,0.7491397,10.89657211303711,0.1427876055240631,-2.242536783218384,-18.268980026245117,-97.79119873046875, -36.24538803100586
444,388496253,0.15945916,0.6525275,-0.030436544,0.74017185,10.076705932617188,2.1770687103271484,-1.5414400100708008,28.385099411010742,-87.5057144165039, -35.61528396606445
445,388512920,0.16209978,0.661113,-0.027865015,0.73203623,9.996432304382324,2.41751766204834,-0.6168591976165771,8.076573371887207,-76.34228515625, -35.696868896484375
446,388529587,0.16556768,0.668489,-0.026244376,0.72458357,10.25761604309082,2.0526232719421387,-0.8736353516578674,-1.6920225620269775,-68.04814910888672, -34.53998565673828
447,388546254,0.16881536,0.6749094,-0.024773678,0.7179033,10.253734588623047,2.738067865371704,-0.7600113153457642,-2.38043212890625,-59.943115234375, -31.70015525817871
448,388562921,0.17182705,0.6804878,-0.02369359,0.7119345,9.996853828430176,2.8540310859680176,-0.906031608581543,-4.074007034301758,-52.97633743286133, -27.74629020690918
449,388579588,0.17352782,0.6855935,-0.022025451,0.70665747,9.77248764038086,2.6669137477874756,-0.8205064535140991,4.4892258644104,-46.943050384521484, -23.180063247680664
450,388596255,0.17393379,0.6903866,-0.019774511,0.701942,9.709898948669434,2.8165502548217773,-0.7770373821258545,13.133369445800781,-42.27617645263672, -18.9163875579834
451,388612922,0.17427029,0.69469047,-0.018041085,0.697646,9.534722328186035,2.9695820808410645,-0.9043567776679993,10.436352729797363,-38.551753997802734, -15.553770065307617
452,388629589,0.17494486,0.69839233,-0.016981179,0.6937972,9.646612167358398,2.6707029342651367,-0.9390402436256409,4.923969268798828,-34.2921257019043, -13.343205451965332
453,388646256,0.17560671,0.70165086,-0.016047262,0.69035596,9.642139434814453,2.4295990467071533,-1.0402679443359375,3.898120403289795,-30.375, -12.134038925170898
454,388662923,0.17630343,0.7045405,-0.015154861,0.6872484,9.682884216308594,2.449566125869751,-1.04130220413208,3.12481689453125,-27.064987182617188, -11.657835960388184
455,388679590,0.17718714,0.7069774,-0.014420459,0.684529,9.643159866333008,2.526613235473633,-1.1518456935882568,0.9652873873710632,-23.2261905670166, -11.261073112487793
456,388696257,0.17820445,0.7089553,-0.013785588,0.68222857,9.525252342224121,2.448960065841675,-1.3977646827697754,-0.6687743663787842,-19.146089553833008, -10.852670669555664
457,388712924,0.17861266,0.7106061,-0.0124767,0.68042725,9.517972946166992,2.0859005451202393,-1.5351059436798096,5.109989643096924,-14.420646667480469, -10.643115043640137
458,388729591,0.17803743,0.71231824,-0.010122245,0.67882484,9.579277992248535,2.036975145339966,-1.2006908655166626,14.899874687194824,-12.546608924865723, -10.921735763549805
459,388746258,0.17629683,0.71435416,-0.006731276,0.67717975,9.428461074829102,2.1975860595703125,-0.273426353931427,25.840105056762695,-13.094011306762695, -10.646965980529785
460,388762925,0.17418349,0.71686715,-0.0030811836,0.6750943,9.396204948425293,2.576122522354126,0.23905949294567108,29.44080924987793,-17.20456314086914, -10.752426147460938
461,388779592,0.17346692,0.7196419,-0.00071589753,0.6723276,9.418339729309082,2.651244878768921,0.28232744336128235,16.89935874938965,-23.31627655029297, -11.732307434082031
462,388796259,0.17383611,0.7227556,0.00065406045,0.6688837,9.39360237121582,2.4681496620178223,0.05917312949895859,7.335921287536621,-29.445274353027344, -12.64073371887207
463,388812926,0.17424594,0.7263941,0.0018594359,0.66482073,9.384223937988281,2.498821496963501,-0.17922955751419067,7.014821529388428,-35.16122817993164, -12.753113746643066
464,388829593,0.17408186,0.7307469,0.0034065517,0.6600705,9.240533828735352,2.6161274909973145,-0.0947156473994255,12.314910888671875,-41.46910095214844, -12.656529426574707
465,388846260,0.17385569,0.7357024,0.004872007,0.6545934,9.404205322265625,2.6031949520111084,-0.18122053146362305,13.002923965454102,-47.98046875, -12.824869155883789
466,388862927,0.17400648,0.7411577,0.006006453,0.6483602,9.57663345336914,2.620048761367798,-0.28553494811058044,10.23766040802002,-54.48993682861328, -13.739052772521973
467,388879594,0.17433713,0.74715364,0.006987955,0.6413419,9.392013549804688,2.5293359756469727,-0.6402313709259033,9.325824737548828,-61.11748123168945, -14.683317184448242
468,388896261,0.17441589,0.7537564,0.007933576,0.6335358,9.44218921661377,2.810936689376831,-0.9783644676208496,11.233674049377441,-67.89482116699219, -14.30834674835205
469,388912928,0.17434755,0.760858,0.008694499,0.6249982,9.612939834594727,3.2693979740142822,-0.9032611846923828,11.837196350097656,-74.0936279296875, -13.56367301940918
470,388929595,0.1739783,0.7684881,0.009268515,0.615688,9.87171459197998,3.446683406829834,-0.8403310179710388,13.295084953308105,-80.63441467285156, -12.187378883361816
471,388946262,0.17334387,0.7767041,0.009707665,0.60546553,10.13704776763916,3.135570526123047,-1.387490153312683,14.894806861877441,-88.1037826538086, -11.405649185180664
472,388962929,0.17248107,0.78547055,0.009883399,0.59429693,10.338749885559082,3.2338297367095947,-1.1407997608184814,15.744545936584473,-95.76850128173828, -10.142494201660156
473,388979596,0.17169131,0.7948072,0.009559716,0.58199024,10.410820007324219,3.2424933910369873,-1.2010279893875122,14.072785377502441,-104.86719512939453, -9.057534217834473
474,388996263,0.170375,0.80478233,0.008983808,0.5685221,11.424948692321777,3.2300357818603516,-0.7716313600540161,16.781160354614258,-114.0599136352539, -6.904868125915527
475,389012930,0.1692948,0.81544536,0.0071764803,0.553477,12.955902099609375,3.8203468322753906,-0.02121913433074951,11.57737922668457,-126.96662139892578, -2.8250248432159424
476,389029597,0.16820288,0.8269616,0.0047499677,0.53648853,13.564522743225098,2.640420436859131,0.33284077048301697,10.392485618591309,-141.87841796875, -1.5343230962753296
477,389046264,0.16653742,0.83936304,0.0023598447,0.517426,14.47713851928711,2.9838473796844482,1.191233515739441,14.894648551940918,-156.93260192871094, -2.0125279426574707
478,389062931,0.16335146,0.85244495,0.0016002029,0.49664038,15.556275367736816,2.024458169937134,1.5934951305389404,30.297794342041016,-167.47439575195312, -7.993107318878174
479,389079598,0.15736285,0.8655909,0.0035456605,0.47537068,15.717951774597168,1.6445889472961426,0.8463363647460938,56.05685043334961,-167.53887939453125, -14.848431587219238
480,389096265,0.14787392,0.8787637,0.008476123,0.45369157,15.9752836227417,0.5245867967605591,0.12497520446777344,86.69840240478516,-166.825439453125, -21.643335342407227
481,389112932,0.13363554,0.89180374,0.0154170105,0.43196106,15.5575590133667,-0.13578255474567413,0.6838078498840332,121.54338073730469,-164.47886657714844, -19.066532135009766
482,389129599,0.11712436,0.9040783,0.021950968,0.41041794,14.810025215148926,-0.35855162143707275,-2.28818941116333,133.54893493652344,-161.27235412597656, -9.756248474121094
483,389146266,0.09531474,0.91451824,0.029499387,0.39204758,14.972707748413086,2.0380687713623047,0.7496901750564575,167.38861083984375,-134.8160858154297, 1.1487820148468018
484,389162933,0.07433658,0.921636,0.03779623,0.37898907,10.910454750061035,3.375673532485962,-0.8547457456588745,160.92645263671875,-92.21688079833984, -2.9857914447784424
485,389179600,0.05032963,0.9282586,0.048271608,0.3653393,9.106468200683594,4.838463306427002,-8.3563814163208,185.72509765625,-92.82622528076172, -9.306255340576172
486,389196267,0.019218674,0.9310116,0.0621996,0.3591371,14.17190933227539,-1.0986497402191162,3.0825653076171875,235.96424865722656,-32.00675964355469, -12.163335800170898
487,389212934,-0.007317378,0.9299246,0.07583094,0.35977283,6.892916679382324,0.5737748146057129,2.609332799911499,202.49484252929688,19.159379959106445, -22.282726287841797
488,389229601,-0.025732288,0.92644584,0.08456276,0.36590353,6.037332534790039,2.5071287155151367,-0.5285861492156982,135.69483947753906,56.179595947265625, -12.537942886352539
489,389246268,-0.029768672,0.9208496,0.09108962,0.37795907,7.527013301849365,4.241710662841797,0.13151060044765472,35.5067024230957,91.25984954833984, -36.92434310913086
490,389262935,-0.021837488,0.91315913,0.09361746,0.39610523,6.117217540740967,0.9807320833206177,-1.242457628250122,-54.02104187011719,128.56275939941406, -45.2360954284668
491,389279602,-0.013719728,0.9028707,0.09510563,0.41903615,6.31341028213501,-0.6122782826423645,-2.1229355335235596,-60.70558166503906,165.71453857421875, -41.61585998535156
492,389296269,-0.007009167,0.88971955,0.09621937,0.44619745,6.942518711090088,-0.7022261619567871,-2.492124319076538,-55.552066802978516,201.1876678466797, -37.52130126953125
493,389312936,-0.00011173563,0.87385243,0.09556365,0.47670713,7.540903091430664,-0.6988047957420349,-2.6351051330566406,-64.21760559082031,229.97744750976562, -29.242963790893555
494,389329603,0.009203647,0.8553692,0.09196227,0.50970775,8.587557792663574,-0.6221063137054443,-3.4495670795440674,-90.05030822753906,251.94805908203125, -21.2080135345459
495,389346270,0.020166231,0.83434725,0.08576906,0.5441526,9.489418029785156,-0.5097070932388306,-4.3124003410339355,-109.91107177734375,268.1557312011719, -13.273365020751953
496,389362937,0.032460555,0.81081545,0.07689065,0.5793209,9.711162567138672,-0.08775810897350311,-5.0170674324035645,-128.38905334472656,280.5679931640625, -4.256171703338623
497,389379604,0.045081325,0.78489447,0.06543838,0.61451304,10.63760757446289,0.027268648147583008,-5.760509490966797,-141.0226287841797,289.5107421875, 7.512397766113281
498,389396271,0.056265336,0.75680184,0.052515376,0.6490973,11.526057243347168,0.7119364738464355,-5.8130083084106445,-139.8917694091797,295.6453857421875, 20.33240509033203
499,389412938,0.066427074,0.7266399,0.038770128,0.6826997,12.32457447052002,2.0863170623779297,-5.811817169189453,-138.6959991455078,299.8746643066406, 28.02916717529297
500,389429605,0.0759584,0.69478756,0.024600482,0.7147696,13.395058631896973,3.0753331184387207,-5.908102035522461,-137.9066925048828,300.18731689453125, 31.95288848876953
501,389446272,0.084562205,0.66217273,0.010936165,0.74448454,13.928633689880371,3.212648391723633,-5.990200519561768,-130.9954833984375,293.16375732421875, 32.74179458618164
502,389462939,0.09116639,0.62999225,-0.0008692638,0.77123135,13.686726570129395,2.438769578933716,-6.120851039886475,-111.8985366821289,278.7195129394531, 32.82853698730469
503,389479606,0.09262465,0.59956944,-0.007076488,0.7949133,12.696343421936035,0.9956049919128418,-6.4228057861328125,-58.830326080322266,259.6663513183594, 33.940673828125
504,389496273,0.08834062,0.571695,-0.0056539853,0.8156769,12.130438804626465,1.384724736213684,-6.082090854644775,8.026693344116211,238.3649139404297, 31.887117385864258
505,389512940,0.081487335,0.5465994,0.002205662,0.83341724,11.748540878295898,2.211590051651001,-6.022030830383301,55.794410705566406,214.7900390625, 19.050352096557617
506,389529607,0.07549828,0.5251669,0.0145381065,0.8475189,10.522709846496582,3.0462918281555176,-6.153078556060791,80.270263671875,182.701416015625, -4.690255165100098
507,389546274,0.07332488,0.50892645,0.024320647,0.8573365,8.629759788513184,2.965111017227173,-6.246854782104492,54.73300552368164,135.35386657714844, -19.41000747680664
508,389562941,0.074619256,0.49925548,0.025576578,0.8628568,7.066462516784668,1.5493338108062744,-6.52675199508667,-3.657686233520508,76.79444122314453, -11.070863723754883
509,389579608,0.07821992,0.49668187,0.01968004,0.864177,7.185654163360596,1.4056726694107056,-6.28708553314209,-49.64323043823242,16.280120849609375, -1.101484775543213
510,389596275,0.08373309,0.4994528,0.009806821,0.86222935,7.634659290313721,1.4722193479537964,-5.755356788635254,-76.50337982177734,-28.949859619140625, 0.09179168194532394
511,389612942,0.09054108,0.505454,-0.0021497349,0.85808736,8.205408096313477,1.7586395740509033,-4.646749973297119,-91.3073501586914,-56.84437942504883, -1.4571658372879028
512,389629609,0.09797394,0.5134236,-0.015210878,0.85238844,8.584775924682617,1.8242086172103882,-3.9682180881500244,-98.81078338623047,-74.47863006591797, -2.2802035808563232
513,389646276,0.10485138,0.5230218,-0.027113518,0.8454107,8.551850318908691,1.9830412864685059,-3.823613166809082,-89.10932159423828,-87.75196075439453, -4.118736267089844
514,389662943,0.11086444,0.5344945,-0.036405366,0.837078,8.7677001953125,2.8999295234680176,-3.838815450668335,-69.73564910888672,-101.74037170410156, -9.779341697692871
515,389679610,0.11406016,0.54293036,-0.038261797,0.8311156,17.478883743286133,1.4276748895645142,18.044221878051758,-18.32560920715332,-70.52566528320312, -18.291967391967773
516,389696277,0.1250697,0.54795754,-0.04468437,0.8258957,8.785422325134277,-1.1365201473236084,1.218384027481079,-76.05682373046875,-49.91405487060547, -44.40715789794922
517,389712944,0.12398214,0.55998814,-0.039931368,0.81819755,14.533446311950684,-0.6947426199913025,0.7846866846084595,38.241249084472656,-93.11576080322266, -22.11343765258789
518,389729611,0.12612319,0.57349193,-0.036057718,0.80864096,14.516704559326172,-1.500675916671753,1.329260230064392,21.608362197875977,-108.38670349121094, -38.900726318359375
519,389746278,0.1286824,0.5878819,-0.03195634,0.7980068,11.778879165649414,2.012112617492676,-0.40717262029647827,21.724943161010742,-117.23653411865234, -43.30648422241211
520,389762945,0.13674577,0.6007749,-0.033007033,0.7869441,10.388100624084473,2.9922595024108887,-0.6438310146331787,-30.226316452026367,-114.073974609375, -52.720149993896484
521,389779612,0.14657116,0.61174846,-0.03617435,0.776513,8.924296379089355,3.6190526485443115,-0.8949050307273865,-50.63774871826172,-102.64667510986328, -52.45167541503906
522,389796279,0.15762231,0.62127227,-0.040923577,0.7664865,9.190587997436523,4.881667613983154,-2.5136125087738037,-65.61524963378906,-94.47578430175781, -51.53276062011719
523,389812946,0.16683036,0.63034135,-0.04490163,0.75684965,11.047920227050781,0.9556080102920532,-1.8996975421905518,-54.07892990112305,-90.06526947021484, -44.509918212890625
524,389829613,0.16798428,0.6397992,-0.04036693,0.7488718,9.387419700622559,0.05449469015002251,-1.4652769565582275,26.073047637939453,-77.58977508544922, -37.709877014160156
525,389846280,0.16630502,0.6489667,-0.032317802,0.7417146,10.122391700744629,2.4856443405151367,-0.42894798517227173,56.5167236328125,-69.19192504882812, -37.57707214355469
526,389862947,0.168795,0.656224,-0.028747119,0.7348824,10.440260887145996,3.6258323192596436,-0.0269981250166893,12.953521728515625,-62.183284759521484, -38.05926513671875
527,389879614,0.17470801,0.66161686,-0.02929572,0.7286166,10.137787818908691,2.831777572631836,-0.4330897331237793,-25.364168167114258,-54.310333251953125, -35.72291564941406
528,389896281,0.18001114,0.66600186,-0.029742878,0.7232932,10.312676429748535,2.187201976776123,-0.7928808331489563,-23.110383987426758,-44.97145462036133, -31.778045654296875
529,389912948,0.1828943,0.6699575,-0.028390488,0.71895814,10.244126319885254,2.3952512741088867,-0.8675684928894043,-3.416400194168091,-36.570396423339844, -26.66840362548828
530,389929615,0.1823919,0.6738119,-0.024489416,0.7156194,9.80233383178711,2.2827248573303223,-0.9483816623687744,24.83731460571289,-28.9281063079834, -20.401466369628906
531,389946282,0.17972995,0.6774252,-0.019152163,0.7130397,9.739598274230957,2.6548826694488525,-0.9178130030632019,41.72864532470703,-22.778366088867188, -15.445196151733398
532,389962949,0.17735636,0.68037975,-0.014255016,0.7109326,9.927508354187012,2.7125236988067627,-0.704193115234375,37.471229553222656,-17.843835830688477, -14.144800186157227
533,389979616,0.17614207,0.68267757,-0.010612545,0.7090931,9.76253604888916,2.871530294418335,-0.42190277576446533,25.137550354003906,-14.794087409973145, -13.55685043334961
534,389996283,0.17617318,0.68453187,-0.008488859,0.707324,9.428092002868652,2.967045783996582,-0.25200116634368896,11.353904724121094,-14.053174018859863, -12.382967948913574
535,390012950,0.17684245,0.6862315,-0.0074382666,0.7055195,9.432199478149414,2.5935797691345215,-0.20303983986377716,2.942896604537964,-14.738821029663086, -10.466924667358398
536,390029617,0.17709641,0.6881352,-0.0060823094,0.70361215,9.512859344482422,2.0830225944519043,-0.1752428412437439,6.628556728363037,-15.87679672241211, -10.029960632324219
537,390046284,0.17662069,0.6904129,-0.003869698,0.7015128,9.452683448791504,2.0865511894226074,-0.03493813797831535,14.674721717834473,-17.595630645751953, -10.811413764953613
538,390062951,0.17601442,0.69301224,-0.0013780175,0.6991074,9.321206092834473,2.3899621963500977,0.08185060322284698,17.026535034179688,-20.2835636138916, -11.897146224975586
539,390079618,0.17588791,0.6958652,0.000665779,0.6963007,9.123597145080566,2.7582931518554688,0.22691243886947632,12.89582347869873,-23.972410202026367, -12.56368350982666
540,390096285,0.1768889,0.6988491,0.0015312049,0.69304985,9.04747486114502,2.8948564529418945,0.2271202951669693,2.0264387130737305,-28.17967414855957, -12.86073112487793
541,390112952,0.17886099,0.7020451,0.0012329356,0.68930405,9.296736717224121,2.5798325538635254,0.24766536056995392,-7.914770603179932,-33.0213508605957, -12.493420600891113
542,390129619,0.18073428,0.7056841,0.00083677215,0.6850872,9.508610725402832,2.3201382160186768,-0.044241033494472504,-7.3460588455200195,-37.54159164428711, -12.128654479980469
543,390146286,0.18246964,0.7097696,0.0005406032,0.68039083,9.543789863586426,2.2600033283233643,-0.026111295446753502,-5.6414923667907715,-41.87140655517578, -12.561604499816895
544,390162953,0.18411757,0.7143117,0.00030112878,0.6751737,9.465786933898926,2.4195961952209473,-0.005732521414756775,-4.368448734283447,-46.50386428833008, -13.086442947387695
545,390179620,0.18583098,0.71933293,-0.000033532335,0.6693483,9.400215148925781,2.624767303466797,0.13877245783805847,-4.515577793121338,-51.863426208496094, -13.696032524108887
546,390196287,0.18750851,0.72495306,-0.0004920937,0.66278476,9.317753791809082,2.5435218811035156,-0.28168049454689026,-4.134377956390381,-58.45749282836914, -13.863103866577148
547,390212954,0.18898694,0.7310995,-0.0008474437,0.65557367,9.362422943115234,2.649418830871582,-0.48601794242858887,-1.9887795448303223,-63.97804260253906, -14.3097505569458
548,390229621,0.19040108,0.7375492,-0.0010452576,0.64789474,9.275540351867676,2.6775639057159424,-0.8208536505699158,-0.5557665228843689,-67.51583862304688, -15.423919677734375
549,390246288,0.19136871,0.7442333,-0.0010375363,0.639917,9.503944396972656,2.870676279067993,-1.2615504264831543,2.935748338699341,-69.83187103271484, -14.872984886169434
550,390262955,0.19174217,0.75118136,-0.0008720046,0.6316334,9.648815155029297,3.101449489593506,-1.3841880559921265,7.021772861480713,-72.37321472167969, -13.47296142578125
551,390279622,0.19183375,0.7583011,-0.0007264803,0.62303996,9.67430591583252,3.1323673725128174,-1.4735749959945679,8.62253189086914,-74.76557159423828, -12.556395530700684
552,390296289,0.19098628,0.76587033,-0.0002672073,0.6139764,9.969690322875977,3.2076117992401123,-1.225352168083191,15.459829330444336,-78.75181579589844, -10.793902397155762
553,390312956,0.19020851,0.7736676,0.0001315496,0.6043672,10.184662818908691,3.186491012573242,-0.8978922367095947,15.144641876220703,-82.6913070678711, -11.489815711975098
554,390329623,0.18937771,0.78197104,0.0003695173,0.5938496,10.103530883789062,3.463951349258423,-0.9509074091911316,15.433115005493164,-89.8661117553711, -11.606022834777832
555,390346290,0.18834966,0.79088384,0.0004391285,0.5822603,10.168414115905762,2.8607213497161865,-1.5185109376907349,16.614030838012695,-98.36444091796875, -11.290594100952148
556,390362957,0.18659046,0.8004865,0.00081768533,0.5695654,10.850528717041016,2.841470241546631,-1.3329968452453613,22.73325538635254,-106.7632827758789, -11.481558799743652
557,390379624,0.18465102,0.8106506,0.00034084162,0.55565244,12.125994682312012,3.415248394012451,-0.8978007435798645,21.114055633544922,-116.7947998046875, -7.6382927894592285
558,390396291,0.18216589,0.8215086,-0.00044676632,0.540314,12.745988845825195,2.442308187484741,-1.0573145151138306,23.867509841918945,-127.82791900634766, -5.638575077056885
559,390412958,0.1782911,0.83331454,-0.00088083436,0.5232578,13.32822036743164,2.694474220275879,0.07818260788917542,34.22548294067383,-140.66278076171875, -4.64825439453125
560,390429625,0.17485653,0.8454384,-0.0012089007,0.504636,14.190958976745605,2.727053165435791,0.742087721824646,32.48160934448242,-150.7088623046875, -8.780962944030762
561,390446292,0.16981234,0.8580279,0.00021996845,0.48471856,15.154690742492676,1.7484315633773804,0.8533667325973511,48.50423049926758,-157.83518981933594, -14.993436813354492
562,390462959,0.16258849,0.87083435,0.0042712446,0.46389034,15.33033275604248,1.1711280345916748,0.6562259793281555,70.37483215332031,-160.95504760742188, -24.29717254638672
563,390479626,0.15177707,0.88385844,0.01016344,0.4423289,15.560149192810059,-0.35955458879470825,0.4776962697505951,98.00645446777344,-163.96957397460938, -24.726505279541016
564,390496293,0.13774046,0.896595,0.016609535,0.42055836,15.405259132385254,0.5593618154525757,-1.2437384128570557,119.00943756103516,-163.66030883789062, -18.565031051635742
565,390512960,0.12185913,0.9082163,0.02190787,0.39976704,15.22324275970459,0.12730510532855988,-1.6753919124603271,125.8936538696289,-155.3592987060547, -5.381692886352539
566,390529627,0.10067648,0.9177936,0.028096259,0.38305342,14.97540283203125,1.9406704902648926,0.623407244682312,159.11624145507812,-122.8175277709961, 6.7196364402771
567,390546294,0.080980875,0.9232967,0.036326833,0.3736925,9.337371826171875,4.6307172775268555,-2.083761692047119,150.87765502929688,-64.6606674194336, -5.781259059906006
568,390562961,0.06092297,0.92923707,0.04585954,0.36153033,8.472814559936523,5.28748893737793,-10.43875789642334,157.4986572265625,-82.79842376708984, -14.530628204345703
569,390579628,0.031987794,0.93159366,0.058829278,0.35728055,13.396722793579102,-1.603062629699707,3.1866559982299805,218.80364990234375,-19.071701049804688, -12.192290306091309
570,390596295,0.0069853347,0.92982095,0.07255201,0.36072224,5.506285667419434,2.3778328895568848,3.5633928775787354,191.43194580078125,38.802120208740234, -26.649438858032227
571,390612962,-0.0077618086,0.92581296,0.07900863,0.36955106,4.795750141143799,1.198541283607483,-1.5365540981292725,105.05839538574219,73.26734161376953, -6.4439520835876465
572,390629629,-0.016782597,0.91965836,0.08544591,0.38294384,7.740947723388672,2.1940581798553467,-1.1904597282409668,66.20359802246094,104.65729522705078, -22.260892868041992
573,390646296,-0.01585853,0.91154456,0.08961611,0.40100384,6.160915851593018,1.6770693063735962,-1.5983164310455322,-5.1484375,133.71859741210938, -35.779972076416016
574,390662963,-0.010106196,0.9012784,0.09115325,0.42342246,5.693292140960693,0.8215274810791016,-1.8788787126541138,-45.107643127441406,164.2764129638672, -34.38568115234375
575,390679630,-0.0022678971,0.8885837,0.09066232,0.44966024,6.353858470916748,0.375679075717926,-2.3530521392822266,-66.16165924072266,193.85198974609375, -29.682735443115234
576,390696297,0.007029875,0.8732325,0.08808511,0.47922546,6.934902667999268,0.5013835430145264,-2.751492500305176,-83.56764221191406,221.52789306640625, -23.16687774658203
577,390712964,0.018800206,0.8552179,0.08265803,0.5112894,8.060182571411133,0.7729352712631226,-3.306049346923828,-109.45498657226562,243.68760681152344, -15.709211349487305
578,390729631,0.032651223,0.8346838,0.0744146,0.5447015,9.267934799194336,0.7713164687156677,-4.111492156982422,-132.6947784423828,258.9449462890625, -7.73711633682251
579,390746298,0.04797326,0.8117264,0.06300518,0.5786446,9.985923767089844,0.6612831950187683,-4.936367034912109,-153.82656860351562,269.63153076171875, 3.7828657627105713
580,390762965,0.06340513,0.7865436,0.048841037,0.6123265,10.629562377929688,0.918372392654419,-5.418491363525391,-166.03492736816406,276.1103210449219, 17.646282196044922
581,390779632,0.07777621,0.75915504,0.03295477,0.6454058,11.607909202575684,1.4531571865081787,-5.6087236404418945,-168.3201904296875,281.79156494140625, 30.39996337890625
582,390796299,0.08996339,0.72995466,0.016921118,0.67733777,12.407852172851562,2.004855155944824,-5.608091831207275,-158.29046630859375,284.308837890625, 39.8193244934082
583,390812966,0.09950004,0.69937783,0.0018771704,0.7077902,13.028904914855957,2.8127236366271973,-5.264360427856445,-141.06008911132812,284.2719421386719, 46.111083984375
584,390829633,0.10725066,0.6678388,-0.011771508,0.7364443,13.628458023071289,3.4407148361206055,-5.161826133728027,-126.31741333007812,281.3456726074219, 46.851837158203125
585,390846300,0.113279276,0.63620996,-0.023287797,0.76279914,13.59217643737793,3.1894869804382324,-5.351933002471924,-107.86764526367188,272.7424011230469, 44.10206604003906
586,390862967,0.1168053,0.6057108,-0.031060785,0.78645164,13.016180038452148,2.133687734603882,-5.563713073730469,-76.84271240234375,257.58319091796875, 38.57930374145508
587,390879634,0.1168618,0.57708806,-0.03309071,0.8075999,12.831731796264648,1.8037819862365723,-5.48871374130249,-30.367643356323242,240.96279907226562, 31.017276763916016
588,390896301,0.11337002,0.5509313,-0.0277068,0.82635015,12.726932525634766,1.5479094982147217,-5.908571243286133,26.308868408203125,222.9983367919922, 18.820539474487305
589,390912968,0.10807531,0.5287121,-0.014902154,0.8417608,10.927998542785645,2.1149919033050537,-6.02969217300415,77.72647857666016,193.52000427246094, -2.3972549438476562
590,390929635,0.10395275,0.5119423,-0.0017756642,0.8527051,8.723148345947266,2.8473494052886963,-6.633928298950195,78.89675903320312,146.20074462890625, -14.223665237426758
591,390946302,0.10285271,0.5023854,0.0035307375,0.8584974,6.771717548370361,2.5349512100219727,-6.784307479858398,27.47327423095703,80.32313537597656, -8.175616264343262
592,390962969,0.10453276,0.5006643,0.00004055717,0.8593068,6.752830982208252,2.070561647415161,-6.980635643005371,-28.414974212646484,10.668511390686035, 2.479631185531616
593,390979636,0.1079215,0.50507367,-0.008077643,0.8562641,7.4990458488464355,2.250293493270874,-6.667043209075928,-57.254390716552734,-42.037723541259766, 5.565515041351318
594,390996303,0.11298124,0.5128465,-0.01840207,0.8508143,8.075361251831055,2.5008018016815186,-5.50913667678833,-73.70726013183594,-71.64593505859375, 1.4401084184646606
595,391012970,0.11913975,0.5224531,-0.0293818,0.8437922,8.259848594665527,3.4032559394836426,-4.544149875640869,-80.21078491210938,-88.19975280761719, -4.098659515380859
596,391029637,0.12562689,0.53292227,-0.040137097,0.83582354,11.602662086486816,3.5950138568878174,-0.21083800494670868,-79.59532165527344,-96.27867126464844, -7.716353416442871
597,391046304,0.13493565,0.5397371,-0.04401867,0.8297823,12.514854431152344,7.086523532867432,11.169057846069336,-53.07194519042969,-61.45296859741211, -46.4000129699707
598,391062971,0.14557284,0.54812884,-0.055442955,0.82176006,10.664734840393066,-3.1328670978546143,-0.6920909881591797,-100.19454956054688,-84.47455596923828, -28.22608757019043
599,391079638,0.1492248,0.5604418,-0.058618847,0.8125275,15.383987426757812,-3.228365182876587,0.9606325626373291,-23.79131317138672,-105.5574722290039, -22.578128814697266
600,391096305,0.14889772,0.5748648,-0.053796288,0.80278635,13.148406028747559,-3.7662155628204346,-1.2729127407073975,38.20058059692383,-112.66107940673828, -32.58692932128906
601,391112972,0.14798357,0.5901428,-0.04425931,0.79238474,11.943574905395508,1.4566214084625244,-0.9058897495269775,67.17666625976562,-115.33073425292969, -49.036888122558594
602,391129639,0.15134946,0.603238,-0.039341968,0.7820803,10.449620246887207,1.9288554191589355,-1.111331820487976,22.431087493896484,-106.39989471435547, -52.85205841064453
603,391146306,0.15632448,0.6140991,-0.03695994,0.772709,8.80590534210205,5.187451362609863,-1.893640398979187,0.032382115721702576,-92.68557739257812, -49.4051399230957
604,391162973,0.16582073,0.623078,-0.040275082,0.7633186,10.002336502075195,5.7491679191589355,-2.4076788425445557,-51.37916946411133,-87.70892333984375, -48.858062744140625
605,391179640,0.17424048,0.6306861,-0.044268068,0.7549277,10.437173843383789,1.096655249595642,-1.3565020561218262,-51.636993408203125,-77.26498413085938, -38.71940612792969
606,391196307,0.17562324,0.63863313,-0.04108078,0.74807525,9.28411865234375,1.0140197277069092,-1.1619676351547241,17.012798309326172,-65.8670654296875, -31.587947845458984
607,391212974,0.1754586,0.6459995,-0.035926446,0.74202996,10.589066505432129,2.0783586502075195,-0.24743801355361938,33.44212341308594,-57.37757873535156, -31.139726638793945
608,391229641,0.17691472,0.6523887,-0.03207397,0.7362485,10.29305648803711,2.944622755050659,-0.1368871033191681,18.479188919067383,-52.38082504272461, -33.070838928222656
609,391246308,0.18082319,0.65739816,-0.031146554,0.73086286,9.843836784362793,3.5461342334747314,-0.09607583284378052,-8.928369522094727,-46.632015228271484, -31.567184448242188
610,391262975,0.18642636,0.6612011,-0.03281031,0.7259351,9.983732223510742,3.105182647705078,-0.35979655385017395,-31.019901275634766,-41.356842041015625, -27.51803970336914
611,391279642,0.19158226,0.6642146,-0.034723468,0.72174066,9.878628730773926,2.679367780685425,-0.7620908617973328,-31.084352493286133,-34.49944305419922, -23.011987686157227
612,391296309,0.19496234,0.66684633,-0.03517913,0.71837884,9.635560989379883,2.5028085708618164,-0.8568767309188843,-16.05459213256836,-27.299070358276367, -19.654590606689453
613,391312976,0.19661885,0.66924936,-0.033929247,0.71574795,9.696427345275879,2.5370662212371826,-0.6776202321052551,0.1354595124721527,-20.941049575805664, -17.92059898376465
614,391329643,0.1975882,0.6714041,-0.0321917,0.71354,9.876384735107422,2.3185226917266846,-0.4883616864681244,5.455188751220703,-17.270586013793945, -16.152450561523438
615,391346310,0.19831732,0.67339945,-0.030481976,0.7115297,9.863042831420898,2.3057377338409424,-0.08220256119966507,6.252231121063232,-15.66830062866211, -14.546462059020996
616,391362977,0.19943894,0.67530745,-0.029503398,0.709446,9.638697624206543,2.531379461288452,0.2559829652309418,0.7239760756492615,-16.50566864013672, -13.168584823608398
617,391379644,0.2009521,0.6772548,-0.029426986,0.70716214,9.398797988891602,2.595165491104126,0.3906952142715454,-5.478847980499268,-18.800548553466797, -11.172842979431152
618,391396311,0.20199747,0.6795108,-0.029322032,0.70470023,9.26894474029541,2.211730480194092,0.4178408682346344,-2.766765594482422,-21.206186294555664, -9.339648246765137
619,391412978,0.20197938,0.68231875,-0.028293975,0.70202935,9.348020553588867,1.935774803161621,0.4544879198074341,7.404271125793457,-23.812026977539062, -8.9075288772583
620,391429645,0.20142283,0.6855332,-0.026585834,0.6991185,9.64554500579834,1.9179155826568604,0.22931018471717834,13.737872123718262,-26.083858489990234, -9.923789024353027
621,391446312,0.20130748,0.6889327,-0.025164844,0.69585484,9.708248138427734,2.2701783180236816,0.2546132504940033,10.476458549499512,-28.976226806640625, -11.22741985321045
622,391462979,0.20217115,0.69232136,-0.024620602,0.6922514,9.461414337158203,2.6385438442230225,0.19243112206459045,1.5767433643341064,-31.601919174194336, -12.235350608825684
623,391479646,0.20356908,0.6958636,-0.024788197,0.6882726,9.256498336791992,2.5917797088623047,0.1691942811012268,-4.1982102394104,-35.0447998046875, -11.939162254333496
624,391496313,0.20460653,0.6997487,-0.02493801,0.6840074,9.296709060668945,2.6663339138031006,0.009217537939548492,-1.9512629508972168,-38.09980773925781, -10.778895378112793
625,391512980,0.20496362,0.7040184,-0.024522614,0.6795195,9.53264045715332,2.345184803009033,-0.12874506413936615,4.491054534912109,-40.32698440551758, -10.679600715637207
626,391529647,0.20476845,0.7085917,-0.02359491,0.6748414,9.640278816223145,2.441899299621582,-0.2536378502845764,9.961456298828125,-42.060916900634766, -10.906871795654297
627,391546314,0.20437661,0.71357304,-0.022594163,0.66972643,9.42839241027832,2.740060806274414,0.004219681024551392,11.769664764404297,-46.035308837890625, -11.0396146774292
628,391562981,0.20455039,0.7189103,-0.022309849,0.66395,9.108338356018066,2.951880931854248,0.14562994241714478,6.101217269897461,-51.8648567199707, -11.117636680603027
629,391579648,0.20506571,0.7246833,-0.022629647,0.6574726,9.261592864990234,2.9690253734588623,0.07090704888105392,2.1715548038482666,-58.14756774902344, -10.742892265319824
630,391596315,0.20539777,0.73110116,-0.022995181,0.65021086,9.21206283569336,3.037785530090332,-0.15706953406333923,3.676137685775757,-65.0938720703125, -10.891825675964355
631,391612982,0.20552611,0.7382439,-0.023500869,0.6420302,9.231558799743652,3.0721912384033203,-0.24361133575439453,4.963523864746094,-73.21318054199219, -10.688015937805176
632,391629649,0.20551063,0.74592835,-0.024405917,0.63305676,9.598112106323242,3.0092403888702393,-0.32019543647766113,4.579636573791504,-80.24488830566406, -9.232821464538574
633,391646316,0.20491773,0.75425595,-0.025361747,0.6232684,9.900022506713867,2.9657788276672363,-0.7313217520713806,8.1054048538208,-87.42176055908203, -7.720032215118408
634,391662983,0.20400234,0.76309305,-0.02633519,0.6126816,10.069113731384277,2.8348283767700195,-0.8448176980018616,10.293190956115723,-93.85569763183594, -7.464404106140137
635,391679650,0.20247486,0.7725252,-0.026879227,0.6012375,10.727736473083496,2.9052462577819824,-0.5911352634429932,16.005456924438477,-100.39801025390625, -8.455997467041016
636,391696317,0.19986056,0.78275317,-0.026591586,0.5887667,11.14157485961914,2.7848312854766846,-0.7906556129455566,26.14832878112793,-108.21869659423828, -9.965954780578613
637,391712984,0.19682157,0.79395115,-0.026988313,0.5746082,12.322851181030273,3.483632802963257,-0.4064537286758423,26.70321273803711,-122.28546905517578, -7.073274612426758
638,391729651,0.19482297,0.80552447,-0.02835289,0.5589013,13.170465469360352,2.725053071975708,0.2639891505241394,17.439592361450195,-133.38697814941406, -8.07399845123291
639,391746318,0.19129412,0.81839085,-0.02924307,0.5410989,13.938220977783203,2.484126329421997,-0.002164691686630249,29.083518981933594,-149.69131469726562, -7.900951385498047
640,391762985,0.18721339,0.83191514,-0.029267242,0.5215477,15.432766914367676,2.3765411376953125,1.4975322484970093,35.944454193115234,-161.02223205566406, -13.180427551269531
641,391779652,0.18133387,0.84595776,-0.026899647,0.5007494,15.811511993408203,0.9159748554229736,0.6254503726959229,55.25441360473633,-167.39707946777344, -22.155672073364258
642,391796319,0.17052507,0.8606162,-0.020240812,0.47942823,15.973522186279297,0.6725907325744629,1.8511909246444702,99.38735961914062,-168.22105407714844, -30.96055030822754
643,391812986,0.15831804,0.8747023,-0.012479444,0.4579039,15.020764350891113,0.3803577423095703,0.3958320915699005,110.61398315429688,-166.55706787109375, -33.08428192138672
644,391829653,0.14109008,0.8885521,-0.0031444887,0.43653062,14.94746208190918,1.1772204637527466,-1.0858981609344482,145.53384399414062,-163.72984313964844, -26.597309112548828
645,391846320,0.12261737,0.9004797,0.0052205324,0.41722232,14.07533073425293,0.7112034559249878,-2.2899861335754395,148.4095001220703,-146.40362548828125, -14.91379165649414
646,391862987,0.09965666,0.9090225,0.014606089,0.40439233,13.139562606811523,2.003079891204834,-0.5899837613105774,176.03981018066406,-95.63955688476562, -3.0363669395446777
647,391879654,0.07467593,0.9167513,0.026663555,0.3915098,9.278902053833008,4.269772052764893,-3.8277673721313477,195.5646514892578,-91.7707290649414, -14.231832504272461
648,391896321,0.050786123,0.9222283,0.04103465,0.38109326,7.763090133666992,3.618297815322876,-5.123242378234863,193.33079528808594,-69.20818328857422, -30.854238510131836
649,391912988,0.02240254,0.92355925,0.05681398,0.37856126,9.790031433105469,-1.2402113676071167,3.732355833053589,221.879150390625,-6.593088150024414, -26.383136749267578
650,391929655,-0.0016442087,0.92088497,0.07080846,0.38334632,5.526761054992676,1.1686002016067505,3.0139591693878174,186.20497131347656,48.222015380859375, -26.761165618896484
651,391946322,-0.013390564,0.91565347,0.07801764,0.39409754,5.099937438964844,2.47564959526062,0.8767080307006836,87.56988525390625,86.76361846923828, -17.504741668701172
652,391962989,-0.015201368,0.90846306,0.081762455,0.40960842,7.119926929473877,2.2749171257019043,-0.10459628701210022,13.273836135864258,116.9915771484375, -24.06903076171875
653,391979656,-0.010211161,0.89888525,0.084260106,0.42988536,7.088589191436768,1.8310282230377197,-0.667375922203064,-35.12691116333008,149.75637817382812, -37.25988006591797
654,391996323,0.00018975696,0.8867826,0.08414889,0.45446202,6.592294216156006,2.019350528717041,-1.3423497676849365,-78.57838439941406,180.8203887939453, -38.89311599731445
655,392012990,0.015539375,0.8718559,0.08000606,0.48293373,6.883579254150391,1.5921800136566162,-2.254831552505493,-123.60848999023438,210.52430725097656, -31.404428482055664
656,392029657,0.03312665,0.85413307,0.07230221,0.51393753,8.1746244430542,0.7303058505058289,-3.4814555644989014,-150.5445556640625,233.38705444335938, -18.768373489379883
657,392046324,0.05043091,0.83382887,0.06250056,0.5461501,9.329486846923828,0.5647165775299072,-4.641851425170898,-157.49830627441406,249.28794860839844, -6.480361461639404
658,392062991,0.06734963,0.8113702,0.051090445,0.57838774,10.2499418258667,1.0773564577102661,-5.318864345550537,-162.09783935546875,257.15692138671875, 3.240108013153076
659,392079658,0.08386806,0.78693825,0.037686214,0.6101428,10.705604553222656,1.3680825233459473,-5.879570484161377,-168.5570526123047,261.56976318359375, 15.014325141906738
660,392096325,0.09834726,0.7609181,0.023028817,0.6409378,11.386947631835938,1.4181222915649414,-6.062508583068848,-163.45880126953125,262.8965759277344, 29.36206817626953
661,392112992,0.10871411,0.7338379,0.009268314,0.6705055,12.236710548400879,1.6411525011062622,-5.779762268066406,-138.51914978027344,262.4632263183594, 41.774662017822266
662,392129659,0.114788145,0.70621675,-0.00231554,0.69862473,12.639176368713379,2.234053611755371,-5.506816387176514,-107.14260864257812,259.6118469238281, 49.45170593261719
663,392146326,0.11777012,0.67836434,-0.011384193,0.72513616,12.909043312072754,2.8916704654693604,-5.025935649871826,-80.26140594482422,254.9228057861328, 50.82406234741211
664,392162993,0.1193343,0.65081257,-0.018352067,0.749577,12.791415214538574,3.2834296226501465,-4.578934192657471,-63.10407638549805,245.4324951171875, 46.40383529663086
665,392179660,0.120605156,0.6240201,-0.023849417,0.77167666,12.505213737487793,3.1587328910827637,-4.206804275512695,-53.89893341064453,232.29283142089844, 39.33623123168945
666,392196327,0.12132809,0.59844464,-0.027297657,0.79145324,11.898162841796875,2.8655853271484375,-3.8710484504699707,-40.061927795410156,217.56207275390625, 31.344722747802734
667,392212994,0.12126067,0.5742386,-0.027538072,0.80918956,11.74200439453125,2.595160484313965,-4.034010887145996,-18.6115665435791,204.33016967773438, 20.50440788269043
668,392229661,0.12014071,0.55206215,-0.022097886,0.82480633,11.218396186828613,2.4641926288604736,-4.085939407348633,18.42416000366211,189.3040008544922, 1.794737696647644
669,392246328,0.11907931,0.53338695,-0.011908853,0.837363,10.102273941040039,2.5221827030181885,-4.014191150665283,47.5412712097168,161.86512756347656, -19.611181259155273
670,392262995,0.1186358,0.51867455,-0.0015875878,0.8466994,8.629765510559082,2.233531951904297,-4.437596797943115,48.98794937133789,127.4965591430664, -26.606250762939453
671,392279662,0.11906446,0.5088613,0.004578347,0.85256255,7.739273548126221,2.297602891921997,-4.4128193855285645,25.61741828918457,83.30652618408203, -19.745397567749023
672,392296329,0.12158555,0.50424325,0.0041785724,0.8549494,7.507040977478027,2.0797765254974365,-4.609309196472168,-15.854276657104492,35.3465690612793, -11.712281227111816
673,392312996,0.12631659,0.50429803,-0.0014374182,0.8542398,7.664651870727539,1.7488800287246704,-5.104455471038818,-50.207237243652344,-7.181649208068848, -9.059206008911133
674,392329663,0.13252716,0.50787306,-0.010198144,0.8511155,7.952683925628662,1.6580052375793457,-5.223616123199463,-70.79976654052734,-38.844913482666016, -8.961578369140625
675,392346330,0.13951792,0.5140521,-0.020851362,0.8460796,7.788650989532471,1.255914568901062,-5.2443952560424805,-82.38533782958984,-62.324371337890625, -8.821322441101074
676,392362997,0.14665721,0.52246,-0.031724673,0.8393575,7.527275085449219,1.511396050453186,-5.3828206062316895,-82.31285095214844,-81.34026336669922, -10.819779396057129
677,392379664,0.1509426,0.53220224,-0.037989877,0.8321863,12.635848999023438,1.2831443548202515,3.0143158435821533,-44.23894500732422,-86.53012084960938, -11.620644569396973
678,392396331,0.16171531,0.5363555,-0.04311339,0.82723194,12.180380821228027,1.9832146167755127,10.992207527160645,-66.6749267578125,-43.539310455322266, -49.14156723022461
679,392412998,0.16692422,0.5440279,-0.04930085,0.82081646,11.533154487609863,-3.7961373329162598,-0.6657906770706177,-48.72124099731445,-71.8658447265625, -16.216716766357422
680,392429665,0.1676425,0.55646086,-0.048459735,0.8123417,16.095829010009766,-1.5035221576690674,1.5369728803634644,12.520547866821289,-99.83406066894531, -21.19989585876465
681,392446332,0.16708048,0.57130843,-0.042407867,0.80242914,12.887397766113281,0.7544614672660828,-0.34526288509368896,48.83436584472656,-113.19151306152344, -36.49385070800781
682,392462999,0.16930038,0.5861702,-0.038806446,0.7913509,11.494363784790039,2.2352216243743896,-0.35873815417289734,24.045007705688477,-119.79936218261719, -43.577877044677734
683,392479666,0.17434786,0.5987826,-0.037938654,0.78078365,9.531469345092773,2.4713025093078613,-1.5398130416870117,-4.729846000671387,-107.88626861572266, -46.73823165893555
684,392496333,0.18072918,0.60972255,-0.037338603,0.77083176,8.607651710510254,6.918043613433838,-3.6396396160125732,-13.529500007629395,-96.30436706542969, -51.599815368652344
685,392513000,0.19213718,0.61805934,-0.043904115,0.76102453,11.55501651763916,3.5699965953826904,-0.8113899827003479,-75.82512664794922,-89.45097351074219, -47.25806427001953
686,392529667,0.19888128,0.62553644,-0.046887193,0.75296223,8.970410346984863,0.9460085034370422,-1.8130427598953247,-37.886024475097656,-74.18171691894531, -35.46564865112305
687,392546334,0.1994996,0.63313824,-0.043595556,0.746616,9.659172058105469,1.0145838260650635,-1.0322755575180054,21.649492263793945,-60.80727767944336, -28.43756103515625
688,392563001,0.19745745,0.64044785,-0.03659355,0.74128145,10.780915260314941,2.1390717029571533,-0.4247945249080658,52.171661376953125,-50.584991455078125, -29.479930877685547
689,392579668,0.19749354,0.64645004,-0.031317275,0.7362866,10.35356616973877,3.272775888442993,0.17962703108787537,32.5219612121582,-44.22818374633789, -31.69723892211914
690,392596335,0.20025378,0.6509588,-0.02919237,0.73164135,9.957380294799805,3.04390811920166,0.08471658825874329,2.4963059425354004,-38.80207824707031, -30.67460823059082
691,392613002,0.20419219,0.6544429,-0.028718794,0.72745115,9.933684349060059,3.2092678546905518,-0.04747658967971802,-12.414630889892578,-33.647369384765625, -28.36400604248047
692,392629669,0.20808272,0.6571705,-0.028971743,0.72387105,9.72541618347168,3.0439093112945557,-0.2365921139717102,-16.78399658203125,-28.14620018005371, -23.830961227416992
693,392646336,0.20974946,0.65982956,-0.027777033,0.72101235,9.464553833007812,2.374500036239624,-0.29348817467689514,0.5074595212936401,-22.91849136352539, -18.24677276611328
