PacketCounter,SampleTimeFine,Quat_W,Quat_X,Quat_Y,Quat_Z,Acc_X,Acc_Y,Acc_Z,Gyr_X,Gyr_Y,Gyr_Z 
1,352673130,0.68264717,0.13401155,-0.7179835,0.023098845,0,0,0,0,0, 0
2,352689797,0.6824765,0.13375615,-0.7181824,0.023435738,9.705656051635742,1.452901840209961,-0.6552613377571106,-2.7246406078338623,-1.4581694602966309, 0.05143670365214348
3,352706464,0.68237984,0.13338622,-0.71834403,0.023409545,9.70793628692627,1.4499074220657349,-0.6904326677322388,-2.89985728263855,-1.4504600763320923, 0.017948100343346596
4,352723131,0.6821922,0.13324639,-0.7185473,0.023433337,9.663660049438477,1.4524496793746948,-0.6815958619117737,-2.5908143520355225,-1.2992298603057861, -0.02840448170900345
5,352739798,0.68204683,0.13319887,-0.71869475,0.023410307,9.708477973937988,1.4468019008636475,-0.7056893110275269,-2.5121192932128906,-0.9785844683647156, -0.09287165850400925
6,352756465,0.68201894,0.1331562,-0.71872926,0.02340819,9.749127388000488,1.4464530944824219,-0.7194129228591919,-2.5480539798736572,0.32275205850601196, -0.04954776540398598
7,352773132,0.682111,0.133076,-0.71865785,0.023375079,9.714566230773926,1.4568679332733154,-0.7085195779800415,-2.770192861557007,1.5265618562698364, -0.1470809280872345
8,352789799,0.68227756,0.13289887,-0.7185376,0.023215389,9.698018074035645,1.4494717121124268,-0.7238847613334656,-2.782064437866211,2.0922691822052, -0.21421179175376892
9,352806466,0.6824663,0.13261372,-0.7184198,0.022944096,9.691191673278809,1.4433448314666748,-0.661747395992279,-2.877164602279663,2.3159451484680176, -0.21316170692443848
10,352823133,0.6826503,0.13248214,-0.7182737,0.022811262,9.686430931091309,1.4425746202468872,-0.6722714304924011,-2.575023889541626,1.990663766860962, -0.26281189918518066
11,352839800,0.6827807,0.13243577,-0.7181595,0.022768175,9.692072868347168,1.4319084882736206,-0.6752723455429077,-2.0118649005889893,1.4546924829483032, -0.1962316781282425
12,352856467,0.6829304,0.13233759,-0.718038,0.022676691,9.72226333618164,1.4620575904846191,-0.6361986994743347,-2.1473302841186523,1.5341684818267822, -0.24262908101081848
13,352873134,0.6832426,0.13220187,-0.71777004,0.022549877,9.71751880645752,1.469425082206726,-0.6355138421058655,-2.804987907409668,2.7829291820526123, -0.2981959283351898
14,352889801,0.683562,0.13202207,-0.7175043,0.022378212,9.692144393920898,1.4500632286071777,-0.6683881878852844,-2.705329179763794,2.7481982707977295, -0.2557172477245331
15,352906468,0.6838063,0.13186066,-0.7173058,0.0222302,9.687461853027344,1.4302035570144653,-0.6430667638778687,-1.8735305070877075,2.210484504699707, -0.19642378389835358
16,352923135,0.6839676,0.13186097,-0.71715117,0.02225153,9.69888973236084,1.4446262121200562,-0.6094672679901123,-1.5625027418136597,1.5050725936889648, -0.09899309277534485
17,352939802,0.6840674,0.13179748,-0.71706903,0.022210788,9.703907012939453,1.4512373208999634,-0.6252768635749817,-1.4767131805419922,0.8398469090461731, -0.044143494218587875
18,352956469,0.6841176,0.13173486,-0.7170341,0.022165189,9.681337356567383,1.4622448682785034,-0.6108724474906921,-1.3163007497787476,0.372453510761261, -0.019427232444286346
19,352973136,0.6841247,0.13175504,-0.7170219,0.022223104,9.708517074584961,1.4573551416397095,-0.6330124139785767,-1.1244231462478638,-0.009937726892530918, 0.16565653681755066
20,352989803,0.6841124,0.13168332,-0.7170481,0.022174627,9.703940391540527,1.4732346534729004,-0.6233949065208435,-1.4068543910980225,-0.26309362053871155, 0.12567511200904846
21,353006470,0.6840953,0.13155831,-0.7170906,0.022072213,9.684775352478027,1.4450315237045288,-0.6266399621963501,-1.6544009447097778,-0.3716658353805542, 0.16411975026130676
22,353023137,0.6840745,0.13147168,-0.7171285,0.022000926,9.68346118927002,1.4169995784759521,-0.6563395261764526,-1.3880418539047241,-0.3578094244003296, 0.11737658828496933
23,353039804,0.6840419,0.13140787,-0.7171727,0.021954115,9.682384490966797,1.4625167846679688,-0.650240957736969,-1.0910497903823853,-0.38917213678359985, 0.09166143834590912
24,353056471,0.68399894,0.1313579,-0.71722347,0.021937853,9.725024223327637,1.4471791982650757,-0.6431032419204712,-1.2263745069503784,-0.4847075343132019, 0.21677950024604797
25,353073138,0.6839547,0.13131018,-0.71727484,0.02191959,9.709501266479492,1.4517884254455566,-0.660929799079895,-0.8796426057815552,-0.4422544538974762, 0.17197008430957794
26,353089805,0.6839281,0.1312885,-0.71730375,0.02193536,9.735169410705566,1.4676003456115723,-0.6102046966552734,-0.5435783267021179,-0.19911311566829681, 0.18087048828601837
27,353106472,0.6842005,0.13114265,-0.71707284,0.02186674,9.737239837646484,1.4778485298156738,-0.5731021761894226,-1.6450653076171875,2.430318593978882, 0.12130814790725708
28,353123139,0.68460554,0.13096683,-0.7167218,0.021749068,9.690173149108887,1.4915544986724854,-0.5814142823219299,-2.542534112930298,3.500173807144165, -0.04653826728463173
29,353139806,0.6849861,0.13073818,-0.7164055,0.021561762,9.678050994873047,1.431433916091919,-0.5795524716377258,-2.9764392375946045,3.156771659851074, -0.06085577979683876
30,353156473,0.68527234,0.13049826,-0.7161818,0.021345805,9.678705215454102,1.42373788356781,-0.5727182030677795,-2.952849864959717,2.238748550415039, -0.06439033150672913
31,353173140,0.6854765,0.1303028,-0.71602803,0.021146508,9.710721969604492,1.4294180870056152,-0.6032135486602783,-2.655780792236328,1.493841528892517, -0.1411771923303604
32,353189807,0.6856496,0.13019255,-0.7158856,0.021034803,9.68628978729248,1.446164608001709,-0.5510486364364624,-2.494126319885254,1.2572057247161865, -0.10374423116445541
33,353206474,0.6858636,0.129961,-0.7157304,0.020769434,9.721060752868652,1.453999638557434,-0.5531457662582397,-3.0627410411834717,1.5032414197921753, -0.2961980700492859
34,353223141,0.68612915,0.12973312,-0.7155251,0.02049693,9.695210456848145,1.4586617946624756,-0.5527164936065674,-3.6516919136047363,1.8961657285690308, -0.36854109168052673
35,353239808,0.686345,0.12948474,-0.7153718,0.020185951,9.69584846496582,1.4480087757110596,-0.5684293508529663,-3.7855448722839355,1.3856024742126465, -0.3993788957595825
36,353256475,0.68648237,0.12922116,-0.71529645,0.019875336,9.705694198608398,1.452501654624939,-0.5854472517967224,-3.2355754375457764,0.7220156192779541, -0.27698856592178345
37,353273142,0.686567,0.12903164,-0.71525615,0.019633066,9.699792861938477,1.4642316102981567,-0.5815944671630859,-3.118551015853882,0.26715967059135437, -0.24593313038349152
38,353289809,0.6866128,0.12888762,-0.7152437,0.019426951,9.710198402404785,1.4400814771652222,-0.5855768322944641,-2.5877790451049805,-0.0024972381070256233, -0.27218613028526306
39,353306476,0.6868068,0.12877807,-0.71508163,0.019264314,9.728130340576172,1.4707669019699097,-0.5610226392745972,-2.6208064556121826,1.4315000772476196, -0.3779153525829315
40,353323143,0.6871299,0.12864217,-0.7148008,0.019072779,9.722957611083984,1.464755892753601,-0.5524584650993347,-3.0879318714141846,2.5906035900115967, -0.4992043972015381
41,353339810,0.6875079,0.12844239,-0.71448,0.018819718,9.712776184082031,1.4541919231414795,-0.5597226023674011,-3.214265823364258,3.082226037979126, -0.5466774702072144
42,353356477,0.68785435,0.1282939,-0.7141784,0.018613966,9.713510513305664,1.4248262643814087,-0.5658749341964722,-3.1215219497680664,2.8162381649017334, -0.5349340438842773
43,353373144,0.6882324,0.12816885,-0.7138414,0.018420987,9.730498313903809,1.459601640701294,-0.5661872625350952,-2.6406948566436768,3.2073822021484375, -0.6539562344551086
44,353389811,0.68877393,0.1280128,-0.71335274,0.018200023,9.738067626953125,1.4840725660324097,-0.5104575753211975,-3.083026170730591,4.711142063140869, -0.7890504598617554
45,353406478,0.6893763,0.12779257,-0.7128167,0.017948145,9.690220832824707,1.4813064336776733,-0.5816351175308228,-3.2292237281799316,5.267233371734619, -0.6849732995033264
46,353423145,0.6899033,0.12766303,-0.71233374,0.017788107,9.693473815917969,1.4492440223693848,-0.5677369832992554,-2.4375224113464355,4.714677333831787, -0.6278313398361206
47,353439812,0.69033754,0.12764637,-0.711917,0.017740726,9.68838119506836,1.432131052017212,-0.5095469355583191,-1.88605535030365,3.956233501434326, -0.5527220964431763
48,353456479,0.6906605,0.12765524,-0.71160287,0.017714228,9.706915855407715,1.455167531967163,-0.4732326865196228,-1.3084248304367065,2.985947847366333, -0.4968095123767853
49,353473146,0.6908686,0.12769194,-0.7113932,0.01774925,9.7048921585083,1.4698114395141602,-0.4621190130710602,-1.7584526538848877,1.830187201499939, -0.19436195492744446
50,353489813,0.6909879,0.12763591,-0.7112882,0.01771741,9.6979398727417,1.4586149454116821,-0.4694300591945648,-1.2333025932312012,1.0374360084533691, -0.011384843848645687
51,353506480,0.6910358,0.12758484,-0.7112516,0.017689345,9.72155475616455,1.4747663736343384,-0.4465509057044983,-1.173753023147583,0.3612543046474457, 0.05177607014775276
52,353523147,0.69103557,0.12748297,-0.7112718,0.017619058,9.702324867248535,1.4428852796554565,-0.4431943893432617,-1.0232402086257935,-0.08970846980810165, 0.12960664927959442
53,353539814,0.6910459,0.12744054,-0.71127015,0.017590571,9.72509765625,1.4694414138793945,-0.4269008934497833,-1.4476425647735596,-0.04726824164390564, 0.05301189050078392
54,353556481,0.6911074,0.12729974,-0.7112396,0.017426983,9.740580558776855,1.4823317527770996,-0.43348556756973267,-2.1611101627349854,0.2976771891117096, -0.15859384834766388
55,353573148,0.6912305,0.12720087,-0.7111409,0.017298916,9.706396102905273,1.4633917808532715,-0.4640248417854309,-2.1693830490112305,0.8927755355834961, -0.2465222328901291
56,353589815,0.691388,0.12715958,-0.71099716,0.01720589,9.717476844787598,1.4578545093536377,-0.4842207431793213,-1.9732023477554321,1.2661317586898804, -0.3957802653312683
57,353606482,0.6915538,0.12714373,-0.7108405,0.0171382,9.70862865447998,1.4604774713516235,-0.4598991274833679,-1.4491536617279053,1.4366865158081055, -0.4264258146286011
58,353623149,0.69173485,0.12709074,-0.7106763,0.017029746,9.728251457214355,1.4737402200698853,-0.4231143295764923,-1.7959625720977783,1.5250122547149658, -0.4502456486225128
59,353639816,0.69188976,0.1269853,-0.7105484,0.01686257,9.726921081542969,1.4950180053710938,-0.42953482270240784,-2.19863224029541,1.1933276653289795, -0.44382965564727783
60,353656483,0.6920595,0.12687758,-0.71040636,0.016695745,9.682306289672852,1.4971364736557007,-0.438900887966156,-2.6949427127838135,1.2595621347427368, -0.4225583076477051
61,353673150,0.69220394,0.12678854,-0.71028495,0.01654904,9.70186710357666,1.4472092390060425,-0.4453622102737427,-2.168588876724243,1.102799654006958, -0.40693458914756775
62,353689817,0.69227105,0.12688011,-0.7102019,0.016599135,9.73032283782959,1.4756770133972168,-0.4473448693752289,-1.055588960647583,0.576138436794281, -0.28400638699531555
63,353706484,0.69228387,0.12690155,-0.7101859,0.016585872,9.700423240661621,1.4808520078659058,-0.4484671354293823,-1.199724555015564,0.019087865948677063, -0.19568103551864624
64,353723151,0.69222695,0.12691717,-0.7102388,0.016579004,9.695221900939941,1.5057635307312012,-0.41746923327445984,-1.6288907527923584,-0.7154010534286499, -0.050687532871961594
65,353739818,0.692114,0.12690791,-0.71035063,0.016576312,9.711068153381348,1.4572546482086182,-0.44217658042907715,-1.2632185220718384,-1.1982390880584717, 0.1369318962097168
66,353756485,0.6919506,0.12690221,-0.7105105,0.0165918,9.696951866149902,1.4534610509872437,-0.4573597013950348,-0.9464276432991028,-1.629697561264038, 0.24547849595546722
67,353773152,0.69175464,0.12693463,-0.7106945,0.016635453,9.708971977233887,1.5043575763702393,-0.43894830346107483,-1.0176565647125244,-1.9442728757858276, 0.23146836459636688
68,353789819,0.69152206,0.12684762,-0.71093774,0.016574536,9.709174156188965,1.5207757949829102,-0.4418043792247772,-1.8527716398239136,-2.4495859146118164, 0.36597347259521484
69,353806486,0.69126457,0.1267116,-0.7112142,0.016495794,9.705866813659668,1.4571809768676758,-0.46260616183280945,-2.556006669998169,-2.8017091751098633, 0.5778929591178894
70,353823153,0.69092745,0.12662698,-0.7115575,0.016461464,9.71481990814209,1.457546353340149,-0.5060588121414185,-1.7723863124847412,-3.433908224105835, 0.5918391346931458
71,353839820,0.69051415,0.1265597,-0.71197045,0.016459258,9.687926292419434,1.4669342041015625,-0.48191842436790466,-1.3508906364440918,-4.086775302886963, 0.7220413088798523
72,353856487,0.68999285,0.12651418,-0.71248364,0.01647312,9.687528610229492,1.4515786170959473,-0.5155267715454102,-1.1155868768692017,-5.0823540687561035, 0.792668342590332
73,353873154,0.68937033,0.12644768,-0.71309775,0.016472967,9.690185546875,1.4707621335983276,-0.5091963410377502,-1.0940592288970947,-6.045275688171387, 0.9242150783538818
74,353889821,0.6886764,0.12641168,-0.7137738,0.016492905,9.70900821685791,1.448931336402893,-0.5519912242889404,-0.8311193585395813,-6.67910099029541, 0.9355359077453613
75,353906488,0.6879619,0.12652257,-0.71443903,0.01665399,9.718884468078613,1.453637719154358,-0.5545579791069031,-0.15796634554862976,-6.731172561645508, 0.9141622185707092
76,353923155,0.6872702,0.12660888,-0.71508634,0.016780913,9.72264289855957,1.460068941116333,-0.5680264830589294,-0.04260673001408577,-6.49478006362915, 0.833738386631012
77,353939822,0.68662757,0.12668122,-0.71568847,0.016875267,9.700873374938965,1.4611456394195557,-0.5601282715797424,-0.37869662046432495,-6.076613426208496, 0.7100929617881775
78,353956489,0.6860535,0.12668343,-0.7162377,0.016899109,9.709720611572266,1.4418176412582397,-0.5986048579216003,-0.9131184220314026,-5.513813018798828, 0.6601993441581726
79,353973156,0.68552834,0.12673253,-0.7167303,0.01696341,9.725125312805176,1.4499318599700928,-0.6261765956878662,-0.7965806126594543,-5.015811920166016, 0.5804542303085327
80,353989823,0.6850685,0.12680265,-0.7171557,0.017035736,9.718684196472168,1.4447113275527954,-0.655499279499054,-0.7096254229545593,-4.370820045471191, 0.4502008259296417
81,354006490,0.6846504,0.12686162,-0.71754307,0.017092863,9.719175338745117,1.435753583908081,-0.649994969367981,-0.6956666707992554,-3.9673948287963867, 0.38486289978027344
82,354023157,0.6842709,0.12696385,-0.7178841,0.017209811,9.69756031036377,1.436692714691162,-0.6393586993217468,-0.4989738166332245,-3.551854133605957, 0.4252797067165375
83,354039824,0.6839089,0.12708811,-0.7182035,0.017352756,9.693982124328613,1.4526584148406982,-0.639545738697052,-0.5581775307655334,-3.385281562805176, 0.43552473187446594
84,354056491,0.6835774,0.12709306,-0.71851784,0.01737046,9.714863777160645,1.4639403820037842,-0.6487223505973816,-1.1237444877624512,-3.2097325325012207, 0.3890889585018158
85,354073158,0.683265,0.12707713,-0.718818,0.017362025,9.702131271362305,1.4589405059814453,-0.6584780812263489,-1.591637134552002,-3.104515314102173, 0.37197962403297424
86,354089825,0.68298453,0.12702188,-0.7190948,0.017333174,9.708337783813477,1.4399231672286987,-0.6667295098304749,-1.74494206905365,-2.8268866539001465, 0.43788114190101624
87,354106492,0.6827247,0.12695447,-0.71935403,0.017308945,9.717613220214844,1.4375624656677246,-0.7134320735931396,-1.7823877334594727,-2.6354570388793945, 0.5015029907226562
88,354123159,0.68248594,0.1269345,-0.719584,0.017306028,9.70276927947998,1.4296070337295532,-0.7022255063056946,-1.9855221509933472,-2.455770969390869, 0.37445124983787537
89,354139826,0.68228555,0.12677209,-0.7198057,0.017177884,9.731257438659668,1.423940896987915,-0.7176651954650879,-2.5923638343811035,-2.2108752727508545, 0.42971059679985046
90,354156493,0.6820802,0.12672198,-0.72001034,0.017130138,9.711538314819336,1.4312834739685059,-0.6871330738067627,-1.7534455060958862,-2.110192060470581, 0.2413804829120636
91,354173160,0.68188936,0.12664542,-0.7202058,0.017080203,9.710996627807617,1.446410059928894,-0.7234076261520386,-2.305565357208252,-2.0559442043304443, 0.38116180896759033
92,354189827,0.6817131,0.12658739,-0.7203836,0.017040877,9.695484161376953,1.4466906785964966,-0.7478914260864258,-2.4287116527557373,-1.9296351671218872, 0.34202560782432556
93,354206494,0.6815542,0.12647495,-0.72055584,0.016945858,9.69938850402832,1.4194027185440063,-0.7820190787315369,-2.5047428607940674,-1.7866140604019165, 0.31061163544654846
94,354223161,0.68140805,0.12643082,-0.72070247,0.01692376,9.698243141174316,1.4412113428115845,-0.7816022038459778,-2.0946834087371826,-1.5811102390289307, 0.3094078004360199
95,354239828,0.6813095,0.12631568,-0.72081786,0.016834978,9.705143928527832,1.4232841730117798,-0.8092756271362305,-2.5194952487945557,-1.2016453742980957, 0.294834166765213
96,354256495,0.68121827,0.12619498,-0.7209275,0.016741442,9.693601608276367,1.4171571731567383,-0.7953014969825745,-2.413382053375244,-1.1104384660720825, 0.2805422842502594
97,354273162,0.68113875,0.12613015,-0.7210144,0.016720556,9.701521873474121,1.4044305086135864,-0.7813023328781128,-2.0461347103118896,-0.9201490879058838, 0.34292203187942505
98,354289829,0.68107235,0.12605777,-0.7210903,0.016691541,9.698060035705566,1.4361263513565063,-0.752585768699646,-1.873415231704712,-0.7665112018585205, 0.30844733119010925
99,354306496,0.6810163,0.12597251,-0.7211593,0.016644556,9.684271812438965,1.4362961053848267,-0.7562100887298584,-2.429044485092163,-0.7552545070648193, 0.3090236485004425
100,354323163,0.6809596,0.12590167,-0.72122633,0.016602295,9.692566871643066,1.4015783071517944,-0.7681502103805542,-2.483100175857544,-0.7663576006889343, 0.2715778648853302
101,354339830,0.68088955,0.12582217,-0.72130716,0.016563892,9.692615509033203,1.4218850135803223,-0.7676523327827454,-2.2925288677215576,-0.8593957424163818, 0.3276504874229431
102,354356497,0.6808164,0.12572251,-0.72139466,0.016514828,9.690938949584961,1.4231505393981934,-0.7818344831466675,-2.135535717010498,-0.8648128509521484, 0.35903242230415344
103,354373164,0.68074393,0.12558886,-0.72148836,0.01642487,9.696012496948242,1.4304141998291016,-0.7820707559585571,-2.4990954399108887,-0.9191758036613464, 0.33946436643600464
104,354389831,0.68066424,0.12549378,-0.7215814,0.016366474,9.693678855895996,1.416491150856018,-0.7932993769645691,-2.0693140029907227,-0.9132720828056335, 0.28987812995910645
105,354406498,0.68058664,0.12539694,-0.7216725,0.01632483,9.69694709777832,1.415425419807434,-0.7937493920326233,-2.2693493366241455,-0.9141813516616821, 0.3969648480415344
106,354423165,0.68051296,0.1253161,-0.7217565,0.016302006,9.695669174194336,1.4112088680267334,-0.7772971391677856,-2.07311749458313,-0.8390336632728577, 0.39699041843414307
107,354439832,0.68043435,0.1252287,-0.72184646,0.016265444,9.698057174682617,1.394001841545105,-0.7873737812042236,-2.0820820331573486,-0.8879923820495605, 0.36045393347740173
108,354456499,0.68036103,0.12513052,-0.7219348,0.016171,9.68598747253418,1.4104119539260864,-0.7890979647636414,-2.3089847564697266,-0.8833180069923401, 0.1281467229127884
109,354473166,0.6802993,0.12501892,-0.7220146,0.016070984,9.700418472290039,1.4242839813232422,-0.7901902794837952,-2.595001697540283,-0.8128190636634827, 0.1748771071434021
110,354489833,0.68023884,0.12490598,-0.72209346,0.015969185,9.690876007080078,1.4217323064804077,-0.8087723255157471,-2.755990743637085,-0.8223085999488831, 0.18464836478233337
111,354506500,0.68018264,0.124815725,-0.7221636,0.015887491,9.692693710327148,1.418788194656372,-0.8006460666656494,-2.4616236686706543,-0.727772057056427, 0.14880336821079254
112,354523167,0.6801152,0.124733254,-0.7222436,0.015784875,9.691582679748535,1.4149305820465088,-0.7924321889877319,-2.6650400161743164,-0.86651611328125, 0.035787347704172134
113,354539834,0.6800754,0.12457133,-0.72231275,0.015616771,9.69611930847168,1.4289650917053223,-0.8292337656021118,-3.34818172454834,-0.7183849215507507, 0.10515933483839035
114,354556501,0.68005013,0.12443187,-0.7223638,0.015460467,9.671178817749023,1.4038333892822266,-0.8639268279075623,-3.0076866149902344,-0.5212824940681458, 0.016078371554613113
115,354573168,0.6800429,0.12434763,-0.7223875,0.015354792,9.700326919555664,1.3962814807891846,-0.8500685691833496,-2.5111074447631836,-0.2584705948829651, -0.04694807901978493
116,354589835,0.6800538,0.12428189,-0.72239023,0.015275512,9.708330154418945,1.3963171243667603,-0.8426214456558228,-2.3463408946990967,-0.04948373883962631, -0.03729208931326866
117,354606502,0.6800815,0.124204814,-0.7223795,0.015175203,9.681195259094238,1.4077427387237549,-0.8390331864356995,-2.581939697265625,0.07653715461492538, -0.08746737241744995
118,354623169,0.6801566,0.12412918,-0.72232383,0.015079846,9.695672035217285,1.4076069593429565,-0.8301264643669128,-2.3797783851623535,0.5619747042655945, -0.13700233399868011
119,354639836,0.6804092,0.12407012,-0.7220969,0.015037831,9.736907005310059,1.4116793870925903,-0.8195866346359253,-2.088280439376831,2.3057641983032227, -0.1419840008020401
120,354656503,0.6808004,0.12398968,-0.7217433,0.014974897,9.740792274475098,1.440712809562683,-0.796514093875885,-2.560565710067749,3.5502727031707764, -0.24611245095729828
121,354673170,0.68144774,0.12384484,-0.721159,0.014870982,9.722450256347656,1.420237421989441,-0.7533479928970337,-3.235703706741333,5.879453182220459, -0.3429156243801117
122,354689837,0.682047,0.123711884,-0.7206172,0.014777517,9.647768020629883,1.4020445346832275,-0.7557756304740906,-2.9501607418060303,5.472135066986084, -0.32524290680885315
123,354706504,0.6824726,0.1236851,-0.7202191,0.014761779,9.673866271972656,1.3653366565704346,-0.7564623355865479,-2.0082149505615234,3.984484910964966, -0.34431153535842896
124,354723171,0.6827347,0.1237393,-0.71995986,0.014824861,9.688125610351562,1.4113785028457642,-0.7252915501594543,-1.3091803789138794,2.557255506515503, -0.23075762391090393
125,354739838,0.6828813,0.123760186,-0.7198175,0.014813127,9.68850326538086,1.415394902229309,-0.7219555377960205,-1.5352253913879395,1.4095758199691772, -0.32329630851745605
126,354756505,0.682954,0.12376813,-0.7197473,0.014803306,9.692036628723145,1.4363033771514893,-0.702398419380188,-1.475765347480774,0.7183914184570312, -0.18926505744457245
127,354773172,0.68297905,0.12372239,-0.71973246,0.014753682,9.723118782043457,1.4533953666687012,-0.722532331943512,-2.0522942543029785,0.17134253680706024, -0.04510396346449852
128,354789839,0.68296945,0.12370153,-0.71974546,0.014735833,9.724210739135742,1.4268724918365479,-0.7607349157333374,-1.8128412961959839,-0.11243975907564163, 0.01323536317795515
129,354806506,0.6829578,0.12366406,-0.7197633,0.01472158,9.695150375366211,1.397446632385254,-0.7324977517127991,-1.763370394706726,-0.11962412297725677, 0.10723397880792618
130,354823173,0.6829004,0.12367398,-0.71981543,0.0147535335,9.68680477142334,1.409327507019043,-0.7379924058914185,-1.511405348777771,-0.5052104592323303, 0.13942912220954895
131,354839840,0.6828312,0.12361087,-0.7198929,0.01470809,9.70695686340332,1.4362375736236572,-0.7421069741249084,-1.9332592487335205,-0.6929643154144287, 0.13440902531147003
132,354856507,0.6827379,0.123543866,-0.71999395,0.014655272,9.702765464782715,1.3946855068206787,-0.7559853196144104,-2.028884172439575,-0.9337621927261353, 0.14637018740177155
133,354873174,0.68261594,0.1235325,-0.7201114,0.01465432,9.687389373779297,1.3981701135635376,-0.7291139364242554,-1.5422813892364502,-1.1188267469406128, 0.13247528672218323
134,354889841,0.6824755,0.123516575,-0.7202475,0.014645054,9.699324607849121,1.4250601530075073,-0.7284131050109863,-1.3631974458694458,-1.2670857906341553, 0.11252298951148987
135,354906508,0.6823333,0.12348667,-0.7203881,0.014607806,9.705924034118652,1.419508934020996,-0.7493783235549927,-1.6547213792800903,-1.3306695222854614, 0.06152811273932457
136,354923175,0.6822037,0.12346614,-0.7205151,0.014570057,9.695974349975586,1.4065395593643188,-0.7572617530822754,-1.7268595695495605,-1.2172436714172363, 0.008932429365813732
137,354939842,0.68210745,0.123497434,-0.7206004,0.014594946,9.709053993225098,1.4043371677398682,-0.7675386667251587,-1.3629285097122192,-0.8306325674057007, 0.018396319821476936
138,354956509,0.6820639,0.123496726,-0.72064173,0.014594512,9.709565162658691,1.435079574584961,-0.7713413834571838,-1.5349305868148804,-0.3562470078468323, 0.0029006381519138813
139,354973176,0.68219745,0.12346866,-0.7205199,0.014605269,9.764300346374512,1.4237996339797974,-0.7304217219352722,-1.7275254726409912,1.3042691946029663, 0.03696553409099579
140,354989843,0.6825565,0.12342488,-0.7201873,0.0146068,9.722628593444824,1.4275143146514893,-0.7263044714927673,-2.258528232574463,3.3687686920166016, -0.11614080518484116
141,355006510,0.6829837,0.123322815,-0.7198009,0.0145452805,9.678182601928711,1.4144386053085327,-0.7369848489761353,-2.7690916061401367,3.931812047958374, -0.18884244561195374
142,355023177,0.6833658,0.123281695,-0.7194455,0.014535861,9.691543579101562,1.3808616399765015,-0.7454970479011536,-2.302863597869873,3.58632230758667, -0.20916612446308136
143,355039844,0.6836941,0.12325589,-0.7191382,0.014517892,9.676867485046387,1.413075566291809,-0.7368993759155273,-2.071183681488037,3.114625930786133, -0.29216402769088745
144,355056511,0.68396664,0.12322226,-0.71888566,0.01447424,9.688945770263672,1.4124211072921753,-0.7550822496414185,-2.274087429046631,2.5517609119415283, -0.31990259885787964
145,355073178,0.68416494,0.12328167,-0.71868604,0.014507792,9.70522403717041,1.3753126859664917,-0.7334378361701965,-1.3857622146606445,1.9990520477294922, -0.36824658513069153
146,355089845,0.68431896,0.12338353,-0.71851975,0.01460911,9.70202922821045,1.4192837476730347,-0.7037938833236694,-0.6355662941932678,1.7086678743362427, -0.24430671334266663
147,355106512,0.6844233,0.12351633,-0.7183953,0.014720061,9.676431655883789,1.4140989780426025,-0.6965000033378601,-0.6263201832771301,1.2416205406188965, -0.29635176062583923
148,355123179,0.68448806,0.12359419,-0.7183188,0.014788389,9.700016021728516,1.4178584814071655,-0.6597140431404114,-0.7767307758331299,0.8351597189903259, -0.20276294648647308
149,355139846,0.6845051,0.12369057,-0.7182842,0.014876319,9.706198692321777,1.4252294301986694,-0.691413164138794,-0.7223165035247803,0.3936479687690735, -0.15171681344509125
150,355156513,0.6844789,0.12379719,-0.71828896,0.014964817,9.705998420715332,1.4246463775634766,-0.6800369620323181,-0.5467799305915833,0.009406264871358871, -0.16995306313037872
151,355173180,0.68443435,0.1238662,-0.7183183,0.015020953,9.70542049407959,1.4316679239273071,-0.671674370765686,-0.89463871717453,-0.2210375815629959, -0.11223484575748444
152,355189847,0.68436074,0.1239522,-0.71837276,0.015062065,9.693432807922363,1.416170597076416,-0.6945000290870667,-1.0681263208389282,-0.5271349549293518, -0.22772251069545746
153,355206514,0.6842629,0.12401917,-0.71845335,0.015114863,9.706202507019043,1.4193003177642822,-0.6762182116508484,-0.8724325895309448,-0.7244680523872375, -0.0713954046368599
154,355223181,0.6841987,0.12404643,-0.71850955,0.015128189,9.708978652954102,1.4267338514328003,-0.6746863126754761,-1.2699799537658691,-0.4704156219959259, -0.08607146143913269
155,355239848,0.6841942,0.12406732,-0.7185103,0.01511993,9.700282096862793,1.430567979812622,-0.6998977065086365,-1.3884389400482178,0.07857336103916168, -0.2162480354309082
156,355256515,0.6843505,0.124097414,-0.7183561,0.015130069,9.741303443908691,1.4434101581573486,-0.6901340484619141,-1.806220293045044,1.5549278259277344, -0.29166463017463684
157,355273182,0.6846316,0.12405686,-0.7180958,0.015098619,9.76379108428955,1.4191977977752686,-0.6832273602485657,-2.2035884857177734,2.6789023876190186, -0.2598024308681488
158,355289849,0.6848994,0.12399128,-0.71785325,0.015024287,9.76745891571045,1.4115285873413086,-0.7204779386520386,-2.3999738693237305,2.5158140659332275, -0.33296510577201843
159,355306516,0.68508565,0.12402692,-0.7176685,0.015067364,9.718217849731445,1.372726559638977,-0.6645498275756836,-1.4126429557800293,1.916182041168213, -0.2158125936985016
160,355323183,0.68519044,0.12414645,-0.71754533,0.015185734,9.684679985046387,1.3935624361038208,-0.6446603536605835,-0.5544509291648865,1.2850083112716675, -0.22016675770282745
161,355339850,0.68522334,0.12421333,-0.7175014,0.01522676,9.650357246398926,1.445487141609192,-0.5422790050506592,-1.0828536748886108,0.5036673545837402, -0.25629347562789917
162,355356517,0.68520606,0.12411512,-0.71753794,0.015081124,9.621062278747559,1.4487649202346802,-0.6495043635368347,-2.969651699066162,-0.30400994420051575, -0.23078323900699615
163,355373184,0.6851401,0.12394296,-0.7176355,0.014850583,9.642333030700684,1.4444372653961182,-0.6630861759185791,-3.619920015335083,-0.8825240731239319, -0.21252138912677765
164,355389851,0.6850638,0.12378786,-0.7177388,0.014669784,9.7454252243042,1.434664011001587,-0.7014356851577759,-3.5920534133911133,-0.9635371565818787, -0.034423474222421646
165,355406518,0.68499196,0.12363785,-0.71783537,0.014558339,9.764871597290039,1.4247193336486816,-0.7585301399230957,-3.12985897064209,-0.832988977432251, 0.2528805732727051
166,355423185,0.6849285,0.12355306,-0.71791077,0.014555741,9.747640609741211,1.44363534450531,-0.7338897585868835,-2.0512187480926514,-0.5630567669868469, 0.40677452087402344
167,355439852,0.684926,0.12350675,-0.71792036,0.014589835,9.732110023498535,1.4422305822372437,-0.7182217240333557,-2.1244709491729736,0.02243032120168209, 0.3539098799228668
168,355456519,0.68494827,0.12341512,-0.7179149,0.014591821,9.701916694641113,1.4112069606781006,-0.7362951040267944,-2.460970878601074,0.20499764382839203, 0.4069409668445587
169,355473186,0.68500996,0.12335218,-0.71786624,0.014619628,9.718698501586914,1.4026763439178467,-0.6719604730606079,-2.3568296432495117,0.6093709468841553, 0.3546527028083801
170,355489853,0.6851117,0.12326346,-0.71778476,0.014603467,9.728251457214355,1.3984369039535522,-0.6809241771697998,-2.5847184658050537,0.9487648606300354, 0.22990600764751434
171,355506520,0.6852309,0.12314324,-0.7176926,0.014553165,9.72217845916748,1.4232687950134277,-0.6563088297843933,-2.5285751819610596,1.1193199157714844, 0.1856984794139862
172,355523187,0.68532,0.12302015,-0.7176302,0.014470093,9.707653045654297,1.3980203866958618,-0.6272186636924744,-2.7407383918762207,0.7957929968833923, 0.07560229301452637
173,355539854,0.6853504,0.12292903,-0.71761817,0.014405073,9.655793190002441,1.406470775604248,-0.6160137057304382,-2.5869851112365723,0.26051315665245056, 0.0586978979408741
174,355556521,0.6853385,0.12286588,-0.71764153,0.014351815,9.654878616333008,1.4266226291656494,-0.6243693232536316,-2.6938283443450928,-0.15786387026309967, 0.0306519977748394
175,355573188,0.6852908,0.122758284,-0.71770746,0.014247477,9.733956336975098,1.4128854274749756,-0.6125634908676147,-3.1494524478912354,-0.576836347579956, 0.050322551280260086
176,355589855,0.6852047,0.12265423,-0.7178093,0.014155652,9.73564624786377,1.4326804876327515,-0.6314287781715393,-2.8387064933776855,-0.8971616625785828, 0.11108867824077606
177,355606522,0.68510526,0.12255166,-0.71792316,0.014090115,9.728899002075195,1.4286376237869263,-0.6822030544281006,-2.6516830921173096,-0.9917493462562561, 0.23632198572158813
178,355623189,0.68500274,0.12250838,-0.71802795,0.014095505,9.726353645324707,1.3961031436920166,-0.6960409879684448,-2.1406328678131104,-0.9261937141418457, 0.2780963182449341
179,355639856,0.6848822,0.12258111,-0.7181281,0.0142175695,9.731898307800293,1.4109834432601929,-0.6627179384231567,-1.076681137084961,-0.9136946797370911, 0.25654321908950806
180,355656523,0.6847577,0.12256512,-0.7182495,0.014227743,9.720062255859375,1.4297335147857666,-0.6417837738990784,-2.078381061553955,-1.1234242916107178, 0.18636442720890045
181,355673190,0.68460006,0.122463256,-0.7184192,0.014117895,9.717399597167969,1.3960870504379272,-0.6174182295799255,-2.7830119132995605,-1.568406343460083, 0.07186282426118851
182,355689857,0.684382,0.12240095,-0.7186388,0.014055221,9.693657875061035,1.4247148036956787,-0.6641072630882263,-2.67910099029541,-2.1203343868255615, 0.17012593150138855
183,355706524,0.6841099,0.12246099,-0.7188859,0.014147565,9.676953315734863,1.425432801246643,-0.6755329370498657,-1.382483720779419,-2.4112436771392822, 0.3296162188053131
184,355723191,0.68379605,0.122509606,-0.71917474,0.014221489,9.683382034301758,1.4414668083190918,-0.6869770288467407,-1.229524850845337,-2.7888007164001465, 0.3207542598247528
185,355739858,0.6834617,0.1225858,-0.71947736,0.014328903,9.681283950805664,1.4282928705215454,-0.7046612501144409,-1.4112212657928467,-3.0003867149353027, 0.392136812210083
186,355756525,0.68311894,0.122691475,-0.7197821,0.014459684,9.690316200256348,1.4122718572616577,-0.7195223569869995,-1.2699670791625977,-3.0519068241119385, 0.3684706389904022
187,355773192,0.6827885,0.122808985,-0.7200725,0.014613768,9.69614028930664,1.3978781700134277,-0.7380541563034058,-1.2419726848602295,-2.9232029914855957, 0.41635364294052124
188,355789859,0.6824702,0.12295132,-0.72034615,0.014793381,9.708202362060547,1.3784679174423218,-0.7601377964019775,-0.6226959228515625,-2.706212282180786, 0.37017393112182617
189,355806526,0.6821858,0.12311219,-0.72058374,0.01499882,9.690296173095703,1.3886890411376953,-0.7632063627243042,-0.3573099970817566,-2.3357884883880615, 0.3590196371078491
190,355823193,0.6819222,0.123261936,-0.72080386,0.01517556,9.70335865020752,1.392198920249939,-0.7733310461044312,-0.7988857626914978,-2.2048566341400146, 0.27997881174087524
191,355839860,0.68168145,0.12332636,-0.7210191,0.015247502,9.72403335571289,1.4040426015853882,-0.7680540680885315,-1.3967119455337524,-2.0956695079803467, 0.17736154794692993
192,355856527,0.68147296,0.123394035,-0.7212034,0.0153074,9.71306324005127,1.3452409505844116,-0.7916790246963501,-1.6703578233718872,-1.8298354148864746, 0.09163584560155869
193,355873194,0.68132514,0.123476535,-0.7213278,0.015361641,9.727832794189453,1.3698533773422241,-0.8119787573814392,-1.573695421218872,-1.237503170967102, -0.07633864879608154
194,355889861,0.6812587,0.12361595,-0.72136426,0.015471501,9.736492156982422,1.3771404027938843,-0.8079822063446045,-1.1517775058746338,-0.38623949885368347, -0.17756004631519318
195,355906528,0.6812544,0.12375593,-0.72134197,0.015579767,9.728357315063477,1.3671998977661133,-0.8371838927268982,-1.382470965385437,0.17341716587543488, -0.23374147713184357
196,355923195,0.68126905,0.12392535,-0.7212965,0.015700169,9.723663330078125,1.368088960647583,-0.8272799849510193,-0.9153850674629211,0.4280202090740204, -0.3690021336078644
197,355939862,0.68131787,0.12411728,-0.72121483,0.015816012,9.72132682800293,1.4090983867645264,-0.7770171761512756,-1.2964508533477783,0.7007699012756348, -0.5045445561408997
198,355956529,0.68136156,0.1242312,-0.7211532,0.015854828,9.71036148071289,1.4375463724136353,-0.7621024250984192,-1.6551311016082764,0.5829771161079407, -0.49108511209487915
199,355973196,0.68141204,0.12430726,-0.7210919,0.01587453,9.700145721435547,1.448565125465393,-0.741378903388977,-2.2999308109283447,0.5481054186820984, -0.3654676079750061
200,355989863,0.6814468,0.12429972,-0.7210612,0.015834494,9.692359924316406,1.394495964050293,-0.7463064789772034,-2.651746988296509,0.3320750594139099, -0.22589118778705597
201,356006530,0.6814641,0.12426521,-0.7210521,0.01577547,9.697917938232422,1.4284851551055908,-0.7373734712600708,-2.63527774810791,0.16481131315231323, -0.17853333055973053
202,356023197,0.6814499,0.1242317,-0.72107244,0.015719982,9.695005416870117,1.4208005666732788,-0.7459190487861633,-2.841921091079712,-0.16374199092388153, -0.11630728095769882
203,356039864,0.6814095,0.124189354,-0.7211188,0.015682254,9.673412322998047,1.4232006072998047,-0.7512420415878296,-2.796445608139038,-0.4034256041049957, 0.0355440229177475
204,356056531,0.6813487,0.12411314,-0.7211907,0.01562053,9.681523323059082,1.4122023582458496,-0.75345379114151,-2.8490798473358154,-0.6100561022758484, 0.10097166895866394
205,356073198,0.681254,0.12416602,-0.72126967,0.01567909,9.681375503540039,1.4181735515594482,-0.7359936237335205,-2.2419180870056152,-0.8129727244377136, 0.08322206884622574
206,356089865,0.6811523,0.12419999,-0.72135895,0.015723353,9.686395645141602,1.3926751613616943,-0.7723386287689209,-2.503577470779419,-0.9226717948913574, 0.13002927601337433
207,356106532,0.68103117,0.12425658,-0.7214622,0.015788563,9.695104598999023,1.404974341392517,-0.7960794568061829,-2.3652689456939697,-1.0810226202011108, 0.13535670936107635
208,356123199,0.680912,0.124310836,-0.7215638,0.015854469,9.707381248474121,1.4072200059890747,-0.8026984930038452,-2.161404609680176,-1.0298353433609009, 0.1317453384399414
209,356139866,0.6808009,0.1242821,-0.7216731,0.015878055,9.693552017211914,1.4187381267547607,-0.7792473435401917,-2.125943899154663,-0.9569545388221741, 0.29785650968551636
210,356156533,0.680683,0.12431878,-0.7217758,0.01597751,9.706514358520508,1.4183474779129028,-0.7717767953872681,-1.963379979133606,-0.9778544902801514, 0.36803531646728516
211,356173200,0.6805793,0.12433104,-0.72187024,0.016033676,9.703667640686035,1.4223580360412598,-0.7830071449279785,-2.3517963886260986,-0.9099167585372925, 0.28232237696647644
212,356189867,0.6804886,0.12426218,-0.7219679,0.016021404,9.707916259765625,1.3910348415374756,-0.8130771517753601,-2.5518317222595215,-0.8317212462425232, 0.3233667314052582
213,356206534,0.68041664,0.12423207,-0.72204024,0.016046083,9.692970275878906,1.3721402883529663,-0.8467316627502441,-2.4373042583465576,-0.6249369978904724, 0.30109649896621704
214,356223201,0.6803545,0.12428406,-0.7220876,0.016152304,9.696346282958984,1.3680177927017212,-0.8586826324462891,-1.9424413442611694,-0.4385790526866913, 0.27347317337989807
215,356239868,0.6803173,0.12431382,-0.7221161,0.016212542,9.714193344116211,1.3846917152404785,-0.8322378993034363,-1.988364815711975,-0.21422459185123444, 0.12331873178482056
216,356256535,0.68032205,0.1243269,-0.72210836,0.016257651,9.715754508972168,1.3929147720336914,-0.8386836051940918,-1.8747471570968628,0.19882497191429138, 0.07238788902759552
217,356273202,0.6803668,0.124372125,-0.72205687,0.016327353,9.706695556640625,1.384896159172058,-0.8126596808433533,-2.0984997749328613,0.5544573664665222, 0.027079029008746147
218,356289869,0.6804949,0.12440426,-0.72192895,0.016400272,9.72708511352539,1.4014254808425903,-0.7987252473831177,-2.0324959754943848,1.357056736946106, 0.015156314708292484
219,356306536,0.6808012,0.12443582,-0.7216322,0.016510952,9.726287841796875,1.4102379083633423,-0.8123149871826172,-2.175196886062622,3.035649299621582, 0.04272838681936264
220,356323203,0.6811649,0.12452344,-0.7212695,0.016697617,9.688431739807129,1.4101107120513916,-0.7905595302581787,-1.89156174659729,3.6439123153686523, 0.08555281162261963
221,356339870,0.6814815,0.12454016,-0.7209648,0.01681822,9.682269096374512,1.3913352489471436,-0.7906479239463806,-1.8986308574676514,3.1810522079467773, 0.1298884004354477
222,356356537,0.6817097,0.12458809,-0.7207373,0.016958972,9.690330505371094,1.3973019123077393,-0.7804983258247375,-1.2889591455459595,2.439974784851074, 0.11870846152305603
223,356373204,0.681877,0.12469131,-0.7205566,0.017152503,9.696633338928223,1.3903656005859375,-0.7848412990570068,-1.4198143482208252,1.8572601079940796, 0.19659669697284698
224,356389871,0.6819917,0.124789946,-0.7204266,0.01733626,9.699488639831543,1.3855245113372803,-0.7583575248718262,-1.425115942955017,1.356890082359314, 0.2187132090330124
225,356406538,0.6820526,0.12487391,-0.72034985,0.017518044,9.716863632202148,1.3887971639633179,-0.7394671440124512,-1.0499414205551147,0.9019192457199097, 0.3011733591556549
226,356423205,0.6820812,0.124937825,-0.7203082,0.017665263,9.698559761047363,1.4066493511199951,-0.7044051885604858,-1.7247847318649292,0.4878898561000824, 0.30556589365005493
227,356439872,0.6820697,0.12496063,-0.7203121,0.017786084,9.695401191711426,1.3954050540924072,-0.7033702731132507,-1.746376395225525,0.09592597186565399, 0.41036033630371094
228,356456539,0.6820276,0.1249346,-0.720355,0.017846225,9.713350296020508,1.3711869716644287,-0.715524435043335,-2.182304620742798,-0.27698856592178345, 0.39565861225128174
229,356473206,0.6819705,0.12492561,-0.7204088,0.017914893,9.707927703857422,1.3761779069900513,-0.7314937710762024,-1.9750205278396606,-0.3866492509841919, 0.3567143976688385
230,356489873,0.681892,0.12490717,-0.72048527,0.017961496,9.675880432128906,1.3926293849945068,-0.7922353148460388,-2.3208565711975098,-0.6476299166679382, 0.3363523483276367
231,356506540,0.68183094,0.124951966,-0.7205321,0.018087566,9.721753120422363,1.3574227094650269,-0.779405951499939,-1.4838204383850098,-0.33674293756484985, 0.3568553328514099
232,356523207,0.6818044,0.1250331,-0.7205396,0.018227538,9.710884094238281,1.3763203620910645,-0.7593528628349304,-1.5140948295593262,-0.005506730638444424, 0.22419434785842896
233,356539874,0.6818149,0.12505576,-0.720524,0.018296609,9.709059715270996,1.3717201948165894,-0.7655075192451477,-1.7575563192367554,0.2914661467075348, 0.12307543307542801
234,356556541,0.68184847,0.12512946,-0.72047645,0.018414987,9.722061157226562,1.3792921304702759,-0.7832707166671753,-1.6240501403808594,0.544212281703949, 0.09465814381837845
235,356573208,0.68198913,0.12518097,-0.72033143,0.018527525,9.734188079833984,1.3881598711013794,-0.734663188457489,-1.7518061399459839,1.5440168380737305, 0.07281050086021423
236,356589875,0.68236375,0.12519833,-0.7199715,0.018612394,9.713274002075195,1.4044134616851807,-0.746227502822876,-2.21695876121521,3.6913599967956543, -0.10382108390331268
237,356606542,0.6827779,0.1251587,-0.71958494,0.018633988,9.702012062072754,1.3892594575881958,-0.7380003333091736,-2.6924333572387695,3.9835124015808105, -0.157902330160141
238,356623209,0.6831462,0.12520406,-0.719225,0.018729074,9.688896179199219,1.3413124084472656,-0.7373070120811462,-2.1500322818756104,3.6481125354766846, -0.18560241162776947
239,356639876,0.68352836,0.12521692,-0.71885836,0.018776622,9.725993156433105,1.39382004737854,-0.6962206959724426,-2.0091755390167236,3.7897257804870605, -0.2998735010623932
240,356656543,0.6838647,0.12524064,-0.718533,0.01882219,9.705440521240234,1.3672131299972534,-0.7209795713424683,-2.0759222507476807,3.345499277114868, -0.31178346276283264
241,356673210,0.68412,0.12530348,-0.7182764,0.018918151,9.698619842529297,1.369188904762268,-0.7023214101791382,-1.7180359363555908,2.6413416862487793, -0.18914981186389923
242,356689877,0.6842893,0.12537223,-0.71810097,0.019007439,9.690144538879395,1.3603403568267822,-0.6762474179267883,-1.5376840829849243,1.8474633693695068, -0.17854613065719604
243,356706544,0.6843819,0.12548086,-0.7179902,0.019132916,9.69323444366455,1.3607752323150635,-0.689479649066925,-1.1266640424728394,1.187564730644226, -0.14053687453269958
244,356723211,0.6844,0.12562376,-0.71794415,0.019275984,9.705560684204102,1.3892269134521484,-0.6756138801574707,-0.8971999883651733,0.5157309174537659, -0.15803036093711853
245,356739878,0.6843457,0.12574743,-0.717971,0.01939229,9.724026679992676,1.4005948305130005,-0.6570425629615784,-0.9542906880378723,-0.18938030302524567, -0.12459297478199005
246,356756545,0.6842571,0.12588643,-0.7180273,0.019539805,9.72553539276123,1.382211685180664,-0.6573662757873535,-1.0214344263076782,-0.5186315178871155, 0.0003137555904686451
247,356773212,0.6841383,0.12597205,-0.718123,0.019627925,9.705387115478516,1.388871669769287,-0.647658109664917,-1.4857157468795776,-0.8892216682434082, 0.020137982442975044
248,356789879,0.68398255,0.12606454,-0.71825254,0.019721515,9.712231636047363,1.3728628158569336,-0.6394572854042053,-1.2639867067337036,-1.2104562520980835, 0.03384077548980713
249,356806546,0.68381053,0.12609173,-0.7184103,0.019766698,9.693718910217285,1.3796252012252808,-0.6815305352210999,-1.6474474668502808,-1.4380635023117065, 0.14451326429843903
250,356823213,0.683625,0.12612525,-0.71858,0.019802965,9.736614227294922,1.3886356353759766,-0.7143504619598389,-1.4947956800460815,-1.5460466146469116, 0.07223422080278397
251,356839880,0.6834246,0.12610996,-0.7187734,0.019798959,9.712154388427734,1.365431547164917,-0.7305758595466614,-1.8079109191894531,-1.74362313747406, 0.13844306766986847
252,356856547,0.6832056,0.12620308,-0.7189633,0.019868486,9.712105751037598,1.3854628801345825,-0.7222892642021179,-1.4438775777816772,-1.8431156873703003, -0.014138211496174335
253,356873214,0.68297404,0.12622488,-0.719179,0.019886604,9.685161590576172,1.364056944847107,-0.72553950548172,-1.485459804534912,-1.9846640825271606, 0.08163407444953918
254,356889881,0.68274695,0.12629756,-0.71938026,0.019943157,9.705122947692871,1.3786194324493408,-0.7245009541511536,-1.057061791419983,-1.8670761585235596, -0.003086330369114876
255,356906548,0.6826299,0.1264009,-0.7194712,0.020011205,9.730769157409668,1.3998898267745972,-0.7349734306335449,-1.4991114139556885,-0.8786181211471558, -0.16965852677822113
256,356923215,0.6826234,0.12651564,-0.7194545,0.02011135,9.740544319152832,1.3980950117111206,-0.7025096416473389,-1.5838637351989746,0.17066381871700287, -0.16735337674617767
257,356939882,0.68272585,0.12650631,-0.7193588,0.020113375,9.706182479858398,1.401513934135437,-0.7144199013710022,-2.1205267906188965,1.0976899862289429, -0.14336708188056946
258,356956549,0.68281484,0.12651663,-0.71927196,0.020134311,9.698863983154297,1.3705276250839233,-0.709222674369812,-1.9842158555984497,0.9942786693572998, -0.1373097002506256
259,356973216,0.6828721,0.12655002,-0.7192108,0.02016625,9.710230827331543,1.385236144065857,-0.7192563414573669,-1.8259036540985107,0.719172477722168, -0.17088791728019714
260,356989883,0.6829353,0.12658326,-0.7191441,0.020200754,9.708758354187012,1.392091155052185,-0.7117944359779358,-2.2069952487945557,0.7216314077377319, -0.1358753889799118
261,357006550,0.6830001,0.12661481,-0.71907604,0.020231942,9.712296485900879,1.3728923797607422,-0.7177616953849792,-2.10135555267334,0.7510988712310791, -0.15283098816871643
262,357023217,0.6831125,0.12668145,-0.7189555,0.020300917,9.733882904052734,1.3703367710113525,-0.7223633527755737,-1.9489089250564575,1.2377912998199463, -0.19076338410377502
263,357039884,0.68324155,0.12669402,-0.7188302,0.02031732,9.700642585754395,1.3792141675949097,-0.714952826499939,-2.0916354656219482,1.3576459884643555, -0.20618224143981934
264,357056551,0.6833271,0.12670319,-0.7187469,0.020332923,9.7007417678833,1.3790034055709839,-0.7078223824501038,-1.9337844848632812,0.9671163558959961, -0.16016902029514313
265,357073218,0.6833795,0.12668383,-0.71870077,0.020324705,9.70830249786377,1.4054112434387207,-0.6713333129882812,-2.1877472400665283,0.6095630526542664, -0.09280762076377869
266,357089885,0.68339145,0.12664652,-0.71869665,0.02029855,9.716333389282227,1.3851757049560547,-0.7048928737640381,-2.4532995223999023,0.17956425249576569, -0.03658774122595787
267,357106552,0.6833645,0.1266228,-0.7187269,0.020283341,9.69460391998291,1.3785994052886963,-0.6860559582710266,-2.418837785720825,-0.18234962224960327, -0.008951638825237751
268,357123219,0.68331045,0.12662444,-0.71877754,0.020298785,9.695857048034668,1.3711477518081665,-0.7342404127120972,-1.9500867128372192,-0.3645326793193817, 0.01921592280268669
269,357139886,0.68323064,0.12665737,-0.7188466,0.020334274,9.699492454528809,1.3943618535995483,-0.6906121969223022,-2.0758581161499023,-0.6193791031837463, 0.005321038421243429
270,357156553,0.6831278,0.12667803,-0.71894026,0.020350102,9.713674545288086,1.3644251823425293,-0.6848904490470886,-2.0592098236083984,-0.8431444764137268, -0.011756230145692825
271,357173220,0.6829913,0.12672211,-0.7190613,0.020381682,9.699532508850098,1.3857451677322388,-0.6871762275695801,-1.6994025707244873,-1.107134461402893, -0.03581935912370682
272,357189887,0.6828343,0.12674174,-0.7192066,0.020392144,9.709527015686035,1.3882352113723755,-0.6777594089508057,-2.0330593585968018,-1.356563925743103, 0.019753795117139816
273,357206554,0.6826564,0.12674807,-0.71937424,0.020395527,9.702049255371094,1.3848602771759033,-0.6995849013328552,-1.8955063819885254,-1.5404247045516968, 0.059286996722221375
274,357223221,0.68244046,0.12682684,-0.7195628,0.020481506,9.712916374206543,1.3623350858688354,-0.739249587059021,-1.3404790163040161,-1.7971408367156982, 0.1285693645477295
275,357239888,0.6822096,0.12693283,-0.7197612,0.020546379,9.715832710266113,1.402360200881958,-0.728961169719696,-1.1369093656539917,-1.9144469499588013, -0.10717634856700897
276,357256555,0.6819703,0.12695931,-0.7199832,0.020546349,9.704412460327148,1.4124021530151367,-0.7140920758247375,-1.8959544897079468,-2.1230878829956055, 0.009764841757714748
277,357273222,0.6817238,0.12696372,-0.7202159,0.020545267,9.713605880737305,1.346437931060791,-0.7581580877304077,-2.0174484252929688,-2.2095437049865723, 0.12800587713718414
278,357289889,0.68147177,0.12704565,-0.7204382,0.020606527,9.71855640411377,1.3748630285263062,-0.7606310248374939,-1.3864154815673828,-2.150160551071167, 0.030062904581427574
279,357306556,0.6812549,0.12712568,-0.7206271,0.020673078,9.716556549072266,1.3818120956420898,-0.7730475664138794,-1.4726790189743042,-1.8247896432876587, 0.036670982837677
280,357323223,0.68109125,0.12718907,-0.7207692,0.020724662,9.709043502807617,1.3877872228622437,-0.7738125324249268,-1.8062461614608765,-1.3734939098358154, 0.011442474089562893
281,357339890,0.68094915,0.12720503,-0.72090006,0.020745713,9.70925235748291,1.4040093421936035,-0.7837199568748474,-1.8038641214370728,-1.1771726608276367, 0.061143919825553894
282,357356557,0.6808422,0.12720214,-0.72100145,0.02075002,9.713638305664062,1.388887643814087,-0.780288815498352,-1.8931496143341064,-0.8613934516906738, 0.03815652057528496
283,357373224,0.68074256,0.12723812,-0.72108775,0.020794569,9.722108840942383,1.3536715507507324,-0.7811925411224365,-1.6548750400543213,-0.7434598803520203, 0.03089532069861889
284,357389891,0.68064415,0.12727423,-0.7211727,0.020850355,9.708707809448242,1.3944145441055298,-0.7787979245185852,-1.8265568017959595,-0.7523474097251892, 0.09871774911880493
285,357406558,0.68056417,0.12726736,-0.72124946,0.020849658,9.675581932067871,1.3921916484832764,-0.8021550178527832,-2.2311480045318604,-0.6531879305839539, 0.03194544091820717
286,357423225,0.68048745,0.12731151,-0.72131217,0.020914393,9.700154304504395,1.3576563596725464,-0.8236440420150757,-1.5978996753692627,-0.5106276869773865, 0.06764954328536987
287,357439892,0.68042105,0.12740557,-0.7213545,0.021044109,9.710740089416504,1.3756309747695923,-0.7969627380371094,-1.3351771831512451,-0.35296863317489624, 0.12691733241081238
288,357456559,0.6803691,0.12741499,-0.7214008,0.021080619,9.696527481079102,1.3961687088012695,-0.7742981910705566,-1.9976495504379272,-0.3389328122138977, 0.0956185981631279
289,357473226,0.6803267,0.12742688,-0.72143763,0.021114126,9.71731185913086,1.3764837980270386,-0.7941443920135498,-2.076075792312622,-0.2607244551181793, 0.06624084711074829
290,357489893,0.68032265,0.12745187,-0.72143495,0.021184472,9.708611488342285,1.3731977939605713,-0.7803471684455872,-1.7710542678833008,0.1572427749633789, 0.12635384500026703
291,357506560,0.6803155,0.12748204,-0.7214342,0.021261204,9.690163612365723,1.3705129623413086,-0.7597907185554504,-1.6452189683914185,0.1476508229970932, 0.1269429326057434
292,357523227,0.6803019,0.12749809,-0.72144306,0.021301186,9.706280708312988,1.365845799446106,-0.7755852937698364,-1.9131660461425781,0.03660695254802704, 0.03685026988387108
293,357539894,0.6803198,0.12750067,-0.7214248,0.021327507,9.69914722442627,1.3719760179519653,-0.7718472480773926,-2.1381995677948,0.2974082827568054, 0.01671869121491909
294,357556561,0.6803409,0.12755881,-0.72139215,0.021412367,9.713066101074219,1.3455877304077148,-0.8265271186828613,-1.8208577632904053,0.3919830918312073, 0.020624622702598572
295,357573228,0.68036443,0.12761663,-0.7213572,0.021497114,9.722959518432617,1.3520246744155884,-0.8075506687164307,-1.5594933032989502,0.452915757894516, -0.00290704146027565
296,357589895,0.68038416,0.12765063,-0.7213307,0.02156258,9.72093391418457,1.3704109191894531,-0.8043912053108215,-1.5538328886032104,0.4103347063064575, 0.014413546770811081
297,357606562,0.6804036,0.12770885,-0.72129935,0.021649387,9.703047752380371,1.3688851594924927,-0.785781741142273,-1.5685346126556396,0.41614872217178345, 0.009393458254635334
298,357623229,0.68042576,0.12775622,-0.7212678,0.021724418,9.698944091796875,1.390088438987732,-0.7813398241996765,-1.537901759147644,0.4409674108028412, -0.004341352730989456
299,357639896,0.68044174,0.12782288,-0.72123814,0.02181809,9.708373069763184,1.3706200122833252,-0.7727054357528687,-1.75824773311615,0.3584689199924469, 0.024543367326259613
300,357656563,0.6804571,0.12789206,-0.7212082,0.021921823,9.716791152954102,1.3753879070281982,-0.7744755148887634,-1.4220811128616333,0.40257400274276733, 0.03679904714226723
301,357673230,0.6804941,0.1279376,-0.72116286,0.02199824,9.705389976501465,1.3814207315444946,-0.7664902806282043,-1.6415692567825317,0.5682497620582581, 0.005244201049208641
302,357689897,0.6805375,0.12799054,-0.7211099,0.022083182,9.694414138793945,1.3674213886260986,-0.7795537710189819,-1.8100110292434692,0.6083335280418396, 0.02217419259250164
303,357706564,0.68056905,0.12803885,-0.72107,0.022135051,9.7077054977417,1.3540583848953247,-0.748458743095398,-1.8429361581802368,0.47898948192596436, -0.11014740914106369
304,357723231,0.68058914,0.12809242,-0.7210392,0.02220881,9.717060089111328,1.3824882507324219,-0.7621951699256897,-1.700478434562683,0.3978356719017029, -0.023947875946760178
305,357739898,0.68061876,0.12808876,-0.72101146,0.022225078,9.699185371398926,1.3813413381576538,-0.7580769658088684,-2.1907567977905273,0.3975282907485962, -0.012947220355272293
306,357756565,0.6806428,0.12808357,-0.7209888,0.022254141,9.699835777282715,1.3622955083847046,-0.7725843787193298,-2.0066781044006348,0.3744896650314331, 0.0500280037522316
307,357773232,0.6806576,0.12806529,-0.72097737,0.022277119,9.715083122253418,1.3739362955093384,-0.7578209638595581,-1.904022216796875,0.2981894016265869, 0.08167248964309692
308,357789899,0.6806601,0.12810986,-0.72096467,0.022353737,9.696295738220215,1.363700032234192,-0.7446967363357544,-1.7712464332580566,0.22032685577869415, 0.05927419662475586
309,357806566,0.6806654,0.12811115,-0.7209591,0.0223672,9.689393043518066,1.3525404930114746,-0.7599950432777405,-2.0038223266601562,0.1893482804298401, -0.040416836738586426
310,357823233,0.68065757,0.12814055,-0.7209598,0.022411732,9.706583023071289,1.3651771545410156,-0.7522891163825989,-1.9952034950256348,0.07913682609796524, -0.0025228506419807673
311,357839900,0.68066275,0.1281705,-0.72094786,0.022465575,9.696459770202637,1.3725522756576538,-0.7485870718955994,-1.7948228120803833,0.23141716420650482, 0.011506506241858006
312,357856567,0.68069196,0.12818281,-0.7209162,0.02252724,9.706063270568848,1.360360860824585,-0.7555332779884338,-1.9719343185424805,0.4362034201622009, 0.12392062693834305
313,357873234,0.6807157,0.12817663,-0.7208943,0.02254332,9.71572208404541,1.3629109859466553,-0.7501687407493591,-1.9835370779037476,0.3660118877887726, -0.012627060525119305
314,357889901,0.68075603,0.12819509,-0.72085184,0.022580888,9.707716941833496,1.3664361238479614,-0.7810952067375183,-2.0006847381591797,0.5285500288009644, -0.03613952174782753
315,357906568,0.6807939,0.12818983,-0.7208167,0.022590885,9.723932266235352,1.3773235082626343,-0.7770468592643738,-2.13238525390625,0.477196604013443, -0.050239309668540955
316,357923235,0.6808273,0.1282147,-0.7207787,0.022655593,9.711983680725098,1.3856959342956543,-0.7802307605743408,-1.8488396406173706,0.4948436915874481, 0.06633047759532928
317,357939902,0.68085206,0.12823735,-0.7207501,0.022695748,9.700811386108398,1.3715741634368896,-0.7528350353240967,-1.8945969343185425,0.39729776978492737, -0.03392402082681656
318,357956569,0.6808812,0.12823983,-0.720721,0.0227295,9.699695587158203,1.35194993019104,-0.7831392884254456,-1.7945280075073242,0.4488305151462555, 0.015335602685809135
319,357973236,0.6808864,0.12829293,-0.7207046,0.022792755,9.709920883178711,1.3655178546905518,-0.7704475522041321,-1.5916498899459839,0.26356106996536255, -0.06579902023077011
320,357989903,0.68090016,0.12828097,-0.7206933,0.02280568,9.715412139892578,1.3680185079574585,-0.7537617087364197,-1.787894606590271,0.296242892742157, -0.006774558685719967
321,358006570,0.6809071,0.12823713,-0.7206955,0.02277912,9.710016250610352,1.3673970699310303,-0.7451152205467224,-2.1894760131835938,0.16104625165462494, -0.015380427241325378
322,358023237,0.6809315,0.12822492,-0.72067493,0.02276786,9.707279205322266,1.3685890436172485,-0.7228560447692871,-2.3914449214935303,0.3058604598045349, -0.08847907185554504
323,358039904,0.68098676,0.12820964,-0.7206258,0.022754285,9.716986656188965,1.3565441370010376,-0.7652480006217957,-2.3063340187072754,0.6075524687767029, -0.12492593377828598
324,358056571,0.68108976,0.1282133,-0.720527,0.022781046,9.728190422058105,1.3749737739562988,-0.7383755445480347,-2.06378173828125,1.1083064079284668, -0.08007810264825821
325,358073238,0.68124944,0.128155,-0.7203878,0.022738768,9.705086708068848,1.3756438493728638,-0.7424452900886536,-2.622189998626709,1.542838454246521, -0.15071792900562286
326,358089905,0.68142337,0.12805967,-0.72024316,0.022648867,9.69121265411377,1.3573359251022339,-0.7472935318946838,-3.1926229000091553,1.5812959671020508, -0.18395040929317474
327,358106572,0.681553,0.12803152,-0.7201261,0.022624087,9.708839416503906,1.3185429573059082,-0.7462705373764038,-2.3448429107666016,1.3038851022720337, -0.19610364735126495
328,358123239,0.6816335,0.12810545,-0.7200344,0.022698132,9.701081275939941,1.3592616319656372,-0.7204176783561707,-1.3852118253707886,1.005112886428833, -0.20641277730464935
329,358139906,0.6816763,0.12817161,-0.71998036,0.022752786,9.702879905700684,1.3720557689666748,-0.6995567679405212,-1.6849697828292847,0.6008930802345276, -0.20282694697380066
330,358156573,0.681693,0.12816796,-0.71996534,0.022749422,9.709567070007324,1.3866008520126343,-0.7167578935623169,-2.0843873023986816,0.27315306663513184, -0.10718915611505508
331,358173240,0.6816857,0.12817726,-0.7199709,0.022741156,9.708840370178223,1.3655978441238403,-0.7388253808021545,-2.0188825130462646,0.051756858825683594, -0.1723862588405609
332,358189907,0.68167907,0.12818296,-0.71997654,0.022729013,9.7119140625,1.378063440322876,-0.7445473670959473,-2.100126266479492,0.04612207040190697, -0.16924872994422913
333,358206574,0.68166536,0.12821975,-0.71998274,0.022737028,9.698877334594727,1.3591581583023071,-0.7278029918670654,-2.0041425228118896,0.0006979460595175624, -0.2144935429096222
334,358223241,0.681656,0.12822132,-0.7199916,0.02272827,9.714245796203613,1.3693467378616333,-0.729617178440094,-2.0605671405792236,0.026746060699224472, -0.13303235173225403
335,358239908,0.6816457,0.12824473,-0.7199966,0.022747587,9.706281661987305,1.3603720664978027,-0.7535978555679321,-1.9551453590393066,0.04222893714904785, -0.10133663564920425
336,358256575,0.6816208,0.12826808,-0.72001576,0.022754587,9.693718910217285,1.3778700828552246,-0.7149084806442261,-1.9892104864120483,-0.10524258017539978, -0.14559538662433624
337,358273242,0.6815699,0.12829694,-0.7200583,0.022771055,9.698384284973145,1.3852899074554443,-0.7216940522193909,-1.9026776552200317,-0.3374857008457184, -0.10296304523944855
338,358289909,0.68150526,0.12832785,-0.72011304,0.02280091,9.706223487854004,1.3723942041397095,-0.7397607564926147,-1.7815169095993042,-0.44680073857307434, -0.039904579520225525
339,358306576,0.6814352,0.12832436,-0.7201797,0.022807492,9.724398612976074,1.3770904541015625,-0.7155100107192993,-1.885735034942627,-0.5214232802391052, 0.019241539761424065
340,358323243,0.6813589,0.1283254,-0.7202516,0.022811154,9.687414169311523,1.3675880432128906,-0.7119074463844299,-2.1018292903900146,-0.6124637126922607, 0.007664600387215614
341,358339910,0.68129313,0.12834331,-0.72031,0.022833306,9.689310073852539,1.3610386848449707,-0.7565243244171143,-1.9039325714111328,-0.4797770380973816, -0.005481117404997349
342,358356577,0.681251,0.12837479,-0.72034305,0.02286867,9.719367980957031,1.3700177669525146,-0.7754223942756653,-1.5206387042999268,-0.19769161939620972, -0.05920375883579254
343,358373244,0.68120927,0.12842582,-0.7203718,0.022919543,9.72575855255127,1.355727195739746,-0.7294430136680603,-1.532753586769104,-0.18812526762485504, -0.0724199041724205
344,358389911,0.6811616,0.12847926,-0.7204056,0.02297228,9.702396392822266,1.3741908073425293,-0.7405987977981567,-1.7147831916809082,-0.26881811022758484, -0.05427331477403641
345,358406578,0.6811174,0.12849441,-0.72044384,0.02299702,9.707171440124512,1.3962101936340332,-0.7189642786979675,-1.9343606233596802,-0.2781667113304138, 0.000326561916153878
346,358423245,0.68104994,0.12850344,-0.7205056,0.023013374,9.708755493164062,1.3695179224014282,-0.7268045544624329,-1.8162986040115356,-0.48789626359939575, 0.003323247190564871
347,358439912,0.6809693,0.128547,-0.720572,0.023076214,9.698049545288086,1.3813831806182861,-0.7459948658943176,-1.6649407148361206,-0.5739293098449707, 0.07658837735652924
348,358456579,0.6808809,0.12856016,-0.72065234,0.023102596,9.693477630615234,1.3568800687789917,-0.7542459964752197,-1.7606552839279175,-0.6749585866928101, 0.05198737233877182
349,358473246,0.68079334,0.12855726,-0.7207359,0.023092158,9.699420928955078,1.3898173570632935,-0.7351207137107849,-2.056494951248169,-0.7213048338890076, -0.03494853153824806
350,358489913,0.68069774,0.12853202,-0.72083175,0.02305793,9.713984489440918,1.3610838651657104,-0.7626920938491821,-2.1175172328948975,-0.8158413767814636, -0.03572971746325493
351,358506580,0.68060464,0.12853648,-0.7209189,0.023062978,9.702951431274414,1.3860973119735718,-0.7554107308387756,-1.9995579719543457,-0.7615168690681458, 0.011109509505331516
352,358523247,0.6805021,0.1285477,-0.7210131,0.02307727,9.698143005371094,1.3633865118026733,-0.748043417930603,-2.0716705322265625,-0.8546062111854553, 0.041908781975507736
353,358539914,0.68042165,0.12854472,-0.7210899,0.023065943,9.710830688476562,1.3453075885772705,-0.7735936045646667,-1.9237054586410522,-0.6377304792404175, -0.05551551654934883
354,358556581,0.6803425,0.12858813,-0.7211555,0.023107491,9.704952239990234,1.354416012763977,-0.7955998182296753,-1.6681807041168213,-0.5688195824623108, -0.030056500807404518
355,358573248,0.680291,0.12859139,-0.72120357,0.023107784,9.695751190185547,1.3893606662750244,-0.774006724357605,-1.9100538492202759,-0.35590124130249023, -0.05881955474615097
356,358589915,0.6802594,0.12858164,-0.7212354,0.023097254,9.69983196258545,1.3735618591308594,-0.8013927936553955,-2.0869100093841553,-0.19557857513427734, -0.05807679891586304
357,358606582,0.68025404,0.12862594,-0.7212315,0.023131827,9.705968856811523,1.369052529335022,-0.7677475810050964,-1.8628244400024414,0.10172723978757858, -0.13111139833927155
358,358623249,0.6802795,0.12867661,-0.72119665,0.023183681,9.702634811401367,1.3688924312591553,-0.7756591439247131,-1.644232988357544,0.4306967854499817, -0.12359409034252167
359,358639916,0.68035114,0.12870044,-0.7211236,0.023224346,9.707432746887207,1.3829214572906494,-0.7723561525344849,-1.8431026935577393,0.8339430689811707, -0.0857769250869751
360,358656583,0.68044645,0.12871113,-0.7210311,0.023243459,9.685615539550781,1.3799710273742676,-0.7758866548538208,-2.0352749824523926,1.0255261659622192, -0.1412668526172638
361,358673250,0.68051684,0.12875892,-0.7209542,0.023304813,9.72645378112793,1.3533679246902466,-0.7593519687652588,-1.7493473291397095,0.843944787979126, -0.10009442269802094
362,358689917,0.6805666,0.12879409,-0.72089976,0.023343477,9.713714599609375,1.3765949010849,-0.7407538890838623,-1.7463505268096924,0.640170156955719, -0.13363425433635712
363,358706584,0.6805954,0.12880132,-0.72087044,0.023367465,9.692194938659668,1.3865834474563599,-0.7187319397926331,-1.9968427419662476,0.401805579662323, -0.03247690200805664
364,358723251,0.6806094,0.12877958,-0.72086114,0.023368029,9.702836990356445,1.3841372728347778,-0.751377284526825,-2.185595989227295,0.22520606219768524, 0.01732059009373188
365,358739918,0.68060946,0.12877987,-0.7208606,0.023380239,9.70425796508789,1.3514171838760376,-0.7593798041343689,-2.11856746673584,0.10635033994913101, -0.018018534407019615
366,358756585,0.68059844,0.12878674,-0.7208694,0.023392633,9.704171180725098,1.3763734102249146,-0.7657472491264343,-2.1078100204467773,0.002887832000851631, -0.037625059485435486
367,358773252,0.6805964,0.12877972,-0.7208727,0.023387492,9.715217590332031,1.3508342504501343,-0.7660983204841614,-2.101419448852539,0.08192863315343857, -0.07071666419506073
368,358789919,0.6805857,0.1287892,-0.72088087,0.02339361,9.687283515930176,1.3663854598999023,-0.718217670917511,-1.9417625665664673,0.02533736266195774, -0.09585551917552948
369,358806586,0.68057185,0.12881961,-0.72088766,0.023421371,9.694316864013672,1.388250470161438,-0.763677716255188,-1.887246012687683,0.010289901867508888, -0.08630198985338211
370,358823253,0.6805545,0.12876804,-0.7209148,0.02337302,9.722241401672363,1.3779622316360474,-0.737715482711792,-2.3474678993225098,-0.11519312858581543, -0.04218411445617676
371,358839920,0.68053174,0.1287358,-0.7209432,0.023335518,9.689779281616211,1.366774559020996,-0.7412741184234619,-2.3319594860076904,-0.15991291403770447, -0.07393106818199158
372,358856587,0.68048817,0.12880011,-0.7209713,0.023384618,9.686612129211426,1.3454941511154175,-0.7536186575889587,-1.7075474262237549,-0.23803161084651947, -0.1199570819735527
373,358873254,0.6804252,0.12885296,-0.7210196,0.023436079,9.700145721435547,1.3809905052185059,-0.7692041993141174,-1.4568887948989868,-0.3883909583091736, -0.05572042986750603
374,358889921,0.6803804,0.12884182,-0.7210648,0.023408817,9.718584060668945,1.4046427011489868,-0.7356286644935608,-2.081697940826416,-0.3322223126888275, -0.11840751022100449
375,358906588,0.680415,0.1287901,-0.7210428,0.023365475,9.708356857299805,1.3823485374450684,-0.7809562683105469,-2.581939458847046,0.3436647951602936, -0.049137961119413376
376,358923255,0.68050414,0.12878771,-0.7209587,0.02337804,9.720620155334473,1.358265995979309,-0.7696524858474731,-2.2103118896484375,0.9342296719551086, -0.08671180158853531
377,358939922,0.68080217,0.12879094,-0.720676,0.023399556,9.755756378173828,1.370689868927002,-0.7365251779556274,-2.213167667388916,2.916229724884033, -0.2888471782207489
378,358956589,0.68117523,0.12875155,-0.7203309,0.023383172,9.692474365234375,1.3767526149749756,-0.7499352097511292,-2.544109582901001,3.5678300857543945, -0.3331187963485718
379,358973256,0.6814986,0.12873784,-0.7200271,0.023394164,9.705151557922363,1.3634175062179565,-0.7465704679489136,-2.2843713760375977,3.1447343826293945, -0.2845187187194824
380,358989923,0.6817489,0.12874009,-0.7197888,0.023424136,9.700255393981934,1.3812510967254639,-0.7359232306480408,-2.077446222305298,2.4874861240386963, -0.2034800946712494
381,359006590,0.6820015,0.12871665,-0.71955365,0.023428721,9.717710494995117,1.3424644470214844,-0.7309831380844116,-2.2043824195861816,2.4807116985321045, -0.20305746793746948
382,359023257,0.6821851,0.12872958,-0.71937686,0.023437103,9.685900688171387,1.3544059991836548,-0.7220297455787659,-2.1453707218170166,1.8398433923721313, -0.28778427839279175
383,359039924,0.6823439,0.12864937,-0.7192442,0.02332616,9.708056449890137,1.410643458366394,-0.6911922693252563,-3.2453207969665527,1.4069374799728394, -0.33652523159980774
384,359056591,0.68247765,0.12839402,-0.71917206,0.023044296,9.696898460388184,1.3892546892166138,-0.6841780543327332,-4.777331829071045,0.8925577402114868, -0.22475142776966095
385,359073258,0.6825977,0.12821981,-0.7190955,0.022844544,9.687568664550781,1.2914098501205444,-0.7357184290885925,-4.139767646789551,0.8830554485321045, -0.2294769585132599
386,359089925,0.68269855,0.12823837,-0.7189962,0.02285032,9.687582969665527,1.3482496738433838,-0.7412963509559631,-1.9729334115982056,1.0764570236206055, -0.2532839775085449
387,359106592,0.68279785,0.12821767,-0.71890706,0.022804331,9.746393203735352,1.415765404701233,-0.7076690793037415,-2.438520908355713,0.978872537612915, -0.29245859384536743
388,359123259,0.6829035,0.12811385,-0.7188279,0.022720248,9.754600524902344,1.404390573501587,-0.7026762962341309,-3.133175849914551,0.9287483096122742, -0.04343913495540619
389,359139926,0.68298775,0.12808204,-0.7187518,0.022775698,9.73732852935791,1.3765082359313965,-0.6953867673873901,-2.289083957672119,0.8924425840377808, 0.27775052189826965
390,359156593,0.683058,0.12819825,-0.71865743,0.022989755,9.71330451965332,1.36198890209198,-0.7181587219238281,-0.4982054829597473,1.0655204057693481, 0.25460943579673767
391,359173260,0.6831633,0.12833756,-0.71852434,0.023247873,9.723528861999512,1.3909355401992798,-0.643496036529541,-0.1899053454399109,1.4572792053222656, 0.3068464994430542
392,359189927,0.6836295,0.12841026,-0.7180623,0.023416474,9.741418838500977,1.3533437252044678,-0.629050612449646,-1.1935646533966064,4.717507362365723, -0.13440263271331787
393,359206594,0.6842806,0.12833987,-0.71745485,0.023403723,9.648909568786621,1.4312344789505005,-0.6418505311012268,-2.8524868488311768,6.180633544921875, -0.4409739375114441
394,359223261,0.68490756,0.12811223,-0.716903,0.023222735,9.658876419067383,1.402788519859314,-0.6425420641899109,-4.4722723960876465,5.669288635253906, -0.3988153636455536
395,359239928,0.6856457,0.12787917,-0.716244,0.023060026,9.700716972351074,1.3034061193466187,-0.6231281757354736,-4.508232593536377,6.7353410720825195, -0.39593398571014404
396,359256595,0.6868341,0.12791109,-0.7150957,0.023152146,9.852718353271484,1.4138227701187134,-0.4506259560585022,-2.041294574737549,11.47999382019043, -1.0210891962051392
397,359273262,0.6890109,0.12783898,-0.71301657,0.022996057,9.558496475219727,1.520278811454773,-0.3097952604293823,-4.534402370452881,20.520383834838867, -2.652775526046753
398,359289929,0.6907199,0.12764764,-0.71140754,0.022619007,9.436139106750488,1.477771520614624,-0.604563295841217,-5.738799571990967,15.834905624389648, -2.6292741298675537
399,359306596,0.6917927,0.12771258,-0.71035326,0.022601746,9.631421089172363,1.3048324584960938,-0.6281543374061584,-2.5650362968444824,10.32931900024414, -1.571800947189331
400,359323263,0.69254297,0.12798017,-0.70956594,0.022840062,9.794532775878906,1.3741811513900757,-0.5218999981880188,0.01766636036336422,7.698147296905518, -1.0688437223434448
401,359339930,0.69318044,0.12825951,-0.7088811,0.023192724,9.808168411254883,1.5295764207839966,-0.4466509521007538,0.7859449982643127,6.770212650299072, -0.4771774709224701
402,359356597,0.69373643,0.12849787,-0.708279,0.023639329,9.703742027282715,1.5532313585281372,-0.414728045463562,1.1711598634719849,6.076760292053223, 0.25682494044303894
403,359373264,0.69411594,0.12871024,-0.7078464,0.024295656,9.721528053283691,1.5162920951843262,-0.4296650290489197,2.2483537197113037,4.606105327606201, 1.564186930656433
404,359389931,0.6942926,0.1289935,-0.7075873,0.025275586,9.716341972351074,1.50850248336792,-0.44211655855178833,4.2292656898498535,3.0549614429473877, 2.9560837745666504
405,359406598,0.69431955,0.12926027,-0.7074689,0.026456257,9.754508018493652,1.55747652053833,-0.3204996585845947,5.385743618011475,1.8566843271255493, 4.144116401672363
406,359423265,0.69420093,0.12933332,-0.707526,0.027660018,9.783415794372559,1.5454316139221191,-0.19698916375637054,4.593914031982422,0.35435816645622253, 5.384565353393555
407,359439932,0.6939358,0.12928478,-0.7077442,0.028926352,9.751134872436523,1.5006600618362427,-0.15706616640090942,4.218175411224365,-1.0782947540283203, 6.453793048858643
408,359456599,0.6935223,0.12903091,-0.7081442,0.030165555,9.730968475341797,1.5121376514434814,-0.19296935200691223,3.4690427780151367,-2.623509407043457, 7.512251853942871
409,359473266,0.6929685,0.12862256,-0.7087048,0.031441532,9.730134010314941,1.4754767417907715,-0.18815432488918304,3.0998101234436035,-3.99892520904541, 8.612292289733887
410,359489933,0.6922472,0.12804854,-0.70945525,0.032721978,9.778298377990723,1.455277442932129,-0.17354892194271088,2.4652297496795654,-5.681872844696045, 9.64681625366211
411,359506600,0.69129604,0.12737887,-0.7104377,0.03409851,9.803547859191895,1.4121830463409424,-0.15440437197685242,2.5907583236694336,-7.813249111175537, 10.831292152404785
412,359523267,0.69006735,0.12660488,-0.711697,0.03557747,9.75948715209961,1.4037901163101196,-0.071379154920578,2.8022940158843994,-10.373458862304688, 12.136055946350098
413,359539934,0.6884724,0.12568507,-0.71332395,0.037123818,9.753183364868164,1.3914690017700195,0.08308173716068268,2.5940637588500977,-13.835410118103027, 13.585230827331543
414,359556601,0.686302,0.12462758,-0.715512,0.03873354,9.65917682647705,1.3843116760253906,0.3396245241165161,2.8000564575195312,-19.21491813659668, 15.186768531799316
415,359573268,0.6832853,0.123439126,-0.7185078,0.040381804,9.548088073730469,1.368634819984436,0.7392345070838928,2.507883071899414,-27.179759979248047, 16.9453182220459
416,359589935,0.67907715,0.12205451,-0.7226365,0.041876428,9.445794105529785,1.4181842803955078,1.1964280605316162,1.4469730854034424,-38.49970245361328, 18.49493408203125
417,359606602,0.6733278,0.12026048,-0.7282347,0.042912915,9.447772979736328,1.3724443912506104,1.5973122119903564,-2.044032096862793,-53.33723449707031, 20.083690643310547
418,359623269,0.66584444,0.11817349,-0.7353953,0.043359242,9.764371871948242,1.0578585863113403,1.3761183023452759,-5.6269073486328125,-69.71959686279297, 20.65228271484375
419,359639936,0.6567689,0.116535485,-0.7437521,0.04366951,10.281476020812988,0.9444363713264465,0.9400187134742737,-3.595616102218628,-83.5511245727539, 19.244911193847656
420,359656603,0.6466595,0.11583033,-0.7526291,0.04432249,11.178717613220215,1.2401076555252075,0.4340672791004181,3.0750319957733154,-91.22337341308594, 16.761987686157227
421,359673270,0.6366443,0.11622101,-0.760992,0.045475915,13.955937385559082,0.9780683517456055,0.969937264919281,9.717511177062988,-88.47994232177734, 13.057001113891602
422,359689937,0.6260849,0.119123,-0.76905,0.048884664,14.050568580627441,0.1735653281211853,-0.08326469361782074,33.41115951538086,-89.00603485107422, 9.689615249633789
423,359706604,0.61493474,0.124245495,-0.77678967,0.05492253,13.342864036560059,0.24498501420021057,-0.12406450510025024,57.666015625,-89.3864974975586, 9.181658744812012
424,359723271,0.60378826,0.13039689,-0.78394437,0.06219203,12.731462478637695,0.7712827324867249,-0.3710908591747284,68.93136596679688,-86.26911926269531, 8.386710166931152
425,359739938,0.5930388,0.13724552,-0.79027367,0.07026028,11.029151916503906,1.2873814105987549,-1.611032247543335,76.5520248413086,-80.31503295898438, 6.943719387054443
426,359756605,0.58306384,0.14332539,-0.7959448,0.0772412,10.10476303100586,1.3125290870666504,-1.7956583499908447,67.4633560180664,-74.10033416748047, 5.597796440124512
427,359773272,0.5765947,0.14855923,-0.79918224,0.08231942,9.652434349060059,1.812669277191162,3.0015931129455566,51.849342346191406,-46.6010627746582, -1.7661798000335693
428,359789939,0.57570857,0.15124054,-0.7992804,0.08268522,8.431913375854492,1.4149482250213623,4.318044662475586,12.466011047363281,-6.966663837432861, -12.98490047454834
429,359806606,0.58014107,0.1513323,-0.7963131,0.08012854,8.632518768310547,0.894353985786438,4.3758134841918945,-17.70526695251465,32.70287322998047, -16.49062728881836
430,359823273,0.58896434,0.14922379,-0.7906724,0.075435236,8.485913276672363,1.0765477418899536,3.5895206928253174,-41.365657806396484,66.2803726196289, -18.118221282958984
431,359839940,0.6015121,0.14469947,-0.78263545,0.06875619,8.770551681518555,0.534609317779541,2.774489164352417,-64.79070281982422,95.35826110839844, -17.29247283935547
432,359856607,0.6166601,0.13904595,-0.7723116,0.06270266,9.146162033081055,-0.3903529644012451,1.701312780380249,-67.64773559570312,119.89509582519531, -12.105451583862305
433,359873274,0.6334579,0.13340332,-0.7599081,0.058945242,9.490791320800781,-0.7653339505195618,0.7848286628723145,-56.09214401245117,139.60707092285156, -5.143863201141357
434,359889941,0.65126073,0.12800163,-0.7457463,0.057771478,10.007898330688477,-0.6645621061325073,0.0791105329990387,-41.71554183959961,154.7542266845703, 2.797870635986328
435,359906608,0.6695997,0.12261632,-0.7301975,0.058421858,10.451894760131836,-0.134849414229393,-0.3626965582370758,-32.13343048095703,165.30003356933594, 9.420622825622559
436,359923275,0.6880266,0.11706959,-0.7136843,0.05974079,10.712467193603516,0.5702764987945557,-0.7229247093200684,-29.222537994384766,170.80392456054688, 12.461334228515625
437,359939942,0.7061449,0.110980466,-0.69670755,0.060344446,10.88383674621582,1.2975070476531982,-0.9445762038230896,-34.81013488769531,171.1428985595703, 11.502388000488281
438,359956609,0.72354734,0.10391619,-0.67982024,0.059374046,10.951004028320312,1.7479668855667114,-1.0464919805526733,-46.57742691040039,166.50567626953125, 8.921724319458008
439,359973276,0.7398992,0.095526755,-0.66350126,0.056480236,10.877239227294922,1.8868110179901123,-1.0655732154846191,-61.68799591064453,157.96563720703125, 6.408928394317627
440,359989943,0.75495183,0.086061485,-0.64802426,0.05201708,11.01526165008545,1.5617693662643433,-1.0642600059509277,-73.82402038574219,147.1829833984375, 4.4139323234558105
441,360006610,0.7684335,0.07669836,-0.63354355,0.04743329,10.9634370803833,0.9566865563392639,-0.8918424248695374,-73.28368377685547,134.95359802246094, 4.498098373413086
442,360023277,0.78070885,0.06891653,-0.6195388,0.04377277,10.552437782287598,0.6933715343475342,-0.8796912431716919,-60.43901824951172,127.20973205566406, 3.138550043106079
443,360039944,0.7916032,0.06403163,-0.606265,0.041322682,10.051597595214844,1.1690560579299927,-0.27642881870269775,-39.331382751464844,117.1634292602539, -1.9412270784378052
444,360056611,0.8011292,0.061271474,-0.59407514,0.038892396,9.535056114196777,1.5278465747833252,0.16619311273097992,-27.41752052307129,105.0191421508789, -9.811598777770996
445,360073278,0.8092478,0.060242075,-0.5832156,0.0367253,9.057604789733887,0.9915461540222168,0.3306175172328949,-16.600522994995117,91.6391830444336, -14.475573539733887
446,360089945,0.8160107,0.061060816,-0.5736838,0.035849266,8.557827949523926,0.24646832048892975,0.5287001132965088,-0.9512643814086914,78.93217468261719, -13.804826736450195
447,360106612,0.821377,0.063748576,-0.5656317,0.036562026,8.324640274047852,0.1805817186832428,0.6294996738433838,16.024599075317383,65.3746337890625, -11.291594505310059
448,360123279,0.8254107,0.06739968,-0.559212,0.037899688,8.265143394470215,0.6835391521453857,0.7469903826713562,24.031951904296875,51.04949188232422, -10.46848201751709
449,360139946,0.8283575,0.070756696,-0.55437756,0.038509365,8.174737930297852,1.1916053295135498,0.7772442698478699,19.62215805053711,37.65809631347656, -12.453581809997559
450,360156613,0.83030784,0.07271846,-0.5512578,0.03762623,8.119671821594238,1.4503542184829712,0.691859245300293,5.828500747680664,23.77228355407715, -14.602944374084473
451,360173280,0.8312962,0.07268052,-0.5499399,0.035079822,8.116043090820312,1.384251594543457,0.4737645387649536,-11.883658409118652,9.572461128234863, -15.356528282165527
452,360189947,0.8312326,0.07122198,-0.5504463,0.031446178,8.112320899963379,1.4741017818450928,0.1892930418252945,-23.858373641967773,-4.970324993133545, -14.946063995361328
453,360206614,0.830003,0.06935833,-0.55276024,0.02721693,8.153565406799316,1.8982679843902588,-0.13541874289512634,-28.251543045043945,-19.86374855041504, -15.667842864990234
454,360223281,0.8274909,0.06719052,-0.55700773,0.022064388,8.227544784545898,2.6842541694641113,-0.38315045833587646,-33.25581359863281,-36.09751892089844, -18.602901458740234
455,360239948,0.82356596,0.06451949,-0.5633151,0.015900558,7.923731803894043,2.651069164276123,-0.9696062803268433,-39.65520095825195,-53.556949615478516, -21.231884002685547
456,360256615,0.8181676,0.06418154,-0.57128066,0.010999366,10.569580078125,2.57157826423645,2.8881213665008545,-21.058162689208984,-68.27967834472656, -22.18014907836914
457,360273282,0.8147981,0.05971283,-0.5766523,0.0032672235,11.797380447387695,-2.3394508361816406,10.397665977478027,-56.12394332885742,-46.640602111816406, -23.159996032714844
458,360289949,0.80925226,0.054694567,-0.5849051,-0.0023299134,11.073138236999512,-4.507085800170898,1.7987730503082275,-49.847900390625,-70.61638641357422, -7.8401780128479
459,360306616,0.8017962,0.052228488,-0.5952555,-0.008134484,12.639309883117676,-3.0563294887542725,2.2004308700561523,-35.69922637939453,-89.97449493408203, -18.594982147216797
460,360323283,0.79375166,0.0530033,-0.6057872,-0.013079238,11.256891250610352,-1.572029709815979,1.015244483947754,-14.071516036987305,-92.860107421875, -27.161251068115234
461,360339950,0.7857364,0.055062983,-0.6158032,-0.019309185,10.524827003479004,2.780717611312866,-0.6282385587692261,-12.477606773376465,-90.2388916015625, -39.76675796508789
462,360356617,0.7782304,0.057230648,-0.6248632,-0.025063198,10.185165405273438,1.653003215789795,-1.1286699771881104,-10.244332313537598,-82.66804504394531, -37.93520736694336
463,360373284,0.77108014,0.061577708,-0.6331332,-0.028039996,10.02694320678711,2.51469087600708,-1.12050199508667,13.032744407653809,-75.38890075683594, -32.69234848022461
464,360389951,0.7642564,0.066886395,-0.6407647,-0.029313471,10.351086616516113,1.7650409936904907,-0.7963048815727234,25.271013259887695,-69.62332916259766, -28.039775848388672
465,360406618,0.7575188,0.07270648,-0.6480554,-0.030055687,10.321320533752441,2.997678518295288,-0.6133852601051331,30.187639236450195,-67.06116485595703, -27.638038635253906
466,360423285,0.75110734,0.07459976,-0.6550445,-0.03449517,10.285743713378906,2.4384067058563232,0.6338639855384827,-7.012787818908691,-66.66547393798828, -29.46879005432129
467,360439952,0.7453267,0.072970375,-0.6613542,-0.04212184,9.677958488464355,1.9518227577209473,0.7783334255218506,-40.2234992980957,-62.79507827758789, -30.28131866455078
468,360456619,0.7397911,0.07150935,-0.667192,-0.049501956,9.903236389160156,0.8295478820800781,0.0196952223777771,-38.502872467041016,-59.0849494934082, -29.940820693969727
469,360473286,0.7342972,0.0727722,-0.67274,-0.054155156,9.556169509887695,1.5118657350540161,-0.07525984942913055,-12.262228965759277,-55.13651657104492, -28.705486297607422
470,360489953,0.72884744,0.0750405,-0.67810774,-0.057622384,9.668110847473145,2.384366750717163,0.22239455580711365,-1.7946146726608276,-53.04084396362305, -27.444185256958008
471,360506620,0.7236052,0.07634759,-0.6831963,-0.06172074,9.661077499389648,2.1949596405029297,0.06403101980686188,-9.775664329528809,-51.37464141845703, -26.177064895629883
472,360523287,0.7185206,0.077375725,-0.6880434,-0.06586084,9.812063217163086,2.2385170459747314,-0.11027771979570389,-11.548357963562012,-49.56694412231445, -25.128093719482422
473,360539954,0.71366185,0.078240365,-0.6926109,-0.069683425,9.900614738464355,2.6178011894226074,-0.4429853558540344,-11.104522705078125,-47.01485061645508, -22.827238082885742
474,360556621,0.70917857,0.079302624,-0.6967616,-0.07280359,9.700496673583984,2.4710049629211426,-0.7246086597442627,-7.1953301429748535,-42.699981689453125, -20.356407165527344
475,360573288,0.7051078,0.08090926,-0.7004769,-0.07489361,9.911666870117188,2.3425583839416504,-0.8426167368888855,-0.053582098335027695,-37.753990173339844, -17.965730667114258
476,360589955,0.70150703,0.08288111,-0.70371366,-0.0761958,9.88054084777832,2.4700772762298584,-0.8468815684318542,4.999077796936035,-32.53203582763672, -15.927165031433105
477,360606622,0.6984504,0.08457132,-0.70641845,-0.07738116,9.743471145629883,2.7557384967803955,-0.837993860244751,3.6136627197265625,-27.404579162597656, -14.015547752380371
478,360623289,0.69595236,0.08589359,-0.7085915,-0.07855532,9.63102912902832,2.642301321029663,-0.9942964911460876,1.2904026508331299,-22.31838035583496, -12.179274559020996
479,360639956,0.69383794,0.08743108,-0.7104061,-0.07917049,9.69036865234375,2.5148308277130127,-0.9424651265144348,4.620711803436279,-18.278480529785156, -10.552129745483398
480,360656623,0.6920051,0.08898156,-0.71196365,-0.07949298,9.741765022277832,2.364304780960083,-0.5968048572540283,5.8002142906188965,-15.485326766967773, -9.218226432800293
481,360673290,0.6902881,0.09074568,-0.71341133,-0.07944929,9.596529960632324,2.2048285007476807,-0.5378620624542236,8.47706413269043,-14.052565574645996, -8.526325225830078
482,360689957,0.68856966,0.09256754,-0.71483576,-0.07945446,9.561662673950195,2.3954949378967285,-0.3263433575630188,8.498987197875977,-13.948473930358887, -9.059541702270508
483,360706624,0.6868236,0.09418783,-0.7162745,-0.07970721,9.519081115722656,2.385327100753784,-0.2889151871204376,6.353397846221924,-14.422796249389648, -9.247271537780762
484,360723291,0.68488,0.095643654,-0.7178991,-0.08008033,9.45423412322998,2.512556314468384,-0.018284084275364876,5.214195251464844,-16.44573211669922, -8.993949890136719
485,360739958,0.68256426,0.09725898,-0.7198667,-0.080242805,9.323402404785156,2.407474994659424,-0.028591467067599297,7.440675735473633,-19.680654525756836, -8.767410278320312
486,360756625,0.679848,0.09886051,-0.7221859,-0.080505915,9.350741386413574,2.461258888244629,0.030461691319942474,7.341545104980469,-23.397193908691406, -9.157201766967773
487,360773292,0.6767286,0.10032679,-0.724845,-0.08107378,9.376571655273438,2.359797954559326,-0.29075831174850464,5.660725116729736,-27.281028747558594, -9.90196418762207
488,360789959,0.6732441,0.10185444,-0.7277913,-0.08178003,9.388023376464844,2.4615633487701416,-0.422044038772583,5.670103073120117,-30.505657196044922, -10.858352661132812
489,360806626,0.66938746,0.103540145,-0.7310258,-0.0824697,9.338326454162598,2.537128448486328,-0.36018893122673035,6.90823221206665,-33.60801315307617, -11.580324172973633
490,360823293,0.6650884,0.10510906,-0.7346177,-0.0833463,9.350831985473633,2.680072546005249,-0.25989192724227905,5.950612545013428,-37.68491744995117, -11.849627494812012
491,360839960,0.6602673,0.10638348,-0.73863333,-0.08456184,9.439769744873047,2.5715677738189697,-0.3200714588165283,3.5151944160461426,-42.684959411621094, -11.902776718139648
492,360856627,0.65493804,0.10766552,-0.7430361,-0.08579868,9.530928611755371,2.567622423171997,-0.5605587959289551,4.041019439697266,-47.046165466308594, -12.05040168762207
493,360873294,0.64914405,0.10911225,-0.74776447,-0.08691875,9.469511032104492,2.6468331813812256,-0.7841840982437134,5.917583465576172,-50.71416473388672, -12.400163650512695
494,360889961,0.6429278,0.110433035,-0.7527938,-0.08803421,9.496176719665527,3.062560796737671,-0.8440914750099182,5.87807035446167,-54.309814453125, -11.758830070495605
495,360906628,0.6362995,0.1115566,-0.75811553,-0.08910314,9.487847328186035,3.0000882148742676,-1.1088314056396484,5.740548610687256,-57.829586029052734, -10.555059432983398
496,360923295,0.62931985,0.11276041,-0.7636602,-0.089804105,9.524285316467285,3.2286391258239746,-1.1858677864074707,8.418784141540527,-60.31418991088867, -9.404109954833984
497,360939962,0.62195486,0.114222,-0.7694356,-0.08996956,9.793651580810547,3.008409261703491,-1.365736722946167,12.791329383850098,-62.77181625366211, -8.493961334228516
498,360956629,0.6139372,0.11612039,-0.77562535,-0.089457996,9.773089408874512,3.0327842235565186,-1.3592557907104492,19.01338768005371,-67.20594024658203, -7.986959457397461
499,360973296,0.6050896,0.11801709,-0.7823383,-0.08880041,9.8808012008667,2.9865059852600098,-1.1250388622283936,20.773941040039062,-73.73878479003906, -7.453285217285156
500,360989963,0.5951838,0.11992473,-0.7896797,-0.08820554,9.97509765625,2.870786428451538,-1.1187833547592163,21.731014251708984,-82.1097640991211, -7.909274578094482
501,361006630,0.58409035,0.1213791,-0.79777676,-0.087509565,11.10230827331543,3.428356885910034,-0.7048656940460205,21.869470596313477,-91.8648452758789, -5.134213924407959
502,361023297,0.57187796,0.122192204,-0.8064643,-0.0874081,11.549567222595215,2.721341133117676,-0.7027726173400879,17.334251403808594,-101.29367065429688, -4.184438705444336
503,361039964,0.55794436,0.12360256,-0.8160887,-0.08613858,11.92788028717041,2.4393625259399414,-0.8706108927726746,28.178312301635742,-113.22476196289062, -3.1613478660583496
504,361056631,0.5423182,0.12546398,-0.826457,-0.08437265,12.596181869506836,2.4180636405944824,-0.18795707821846008,34.5820198059082,-124.93669128417969, -4.173529624938965
505,361073298,0.5252199,0.12840539,-0.8372039,-0.082132794,13.300427436828613,2.665971517562866,0.040781885385513306,42.803524017333984,-133.7445068359375, -9.088354110717773
506,361089965,0.50672144,0.13307664,-0.8481576,-0.078440495,13.995770454406738,2.063979387283325,-0.376375287771225,58.77937316894531,-140.37110900878906, -14.424671173095703
507,361106632,0.48739794,0.13973165,-0.858835,-0.07294661,13.937089920043945,1.499901533126831,-0.7972381114959717,76.81494903564453,-141.58680725097656, -20.437414169311523
508,361123299,0.46707794,0.14830504,-0.86923516,-0.06537747,13.74749755859375,1.0447893142700195,-1.455443263053894,96.32437896728516,-143.67445373535156, -25.60206413269043
509,361139966,0.44585848,0.15817213,-0.8793326,-0.05446305,13.266229629516602,0.6515864133834839,-0.9324164390563965,121.25800323486328,-144.17437744140625, -23.326501846313477
510,361156633,0.42517164,0.16740398,-0.8884546,-0.04305334,13.046163558959961,0.5787304043769836,-2.4722936153411865,121.35930633544922,-137.7574920654297, -18.845796585083008
511,361173300,0.40435264,0.17772467,-0.8967732,-0.026663728,13.207990646362305,1.635595440864563,-2.514716148376465,154.878173828125,-130.25047302246094, -11.911349296569824
512,361189967,0.3881677,0.18804255,-0.90215045,-0.009514216,11.77958869934082,3.5368454456329346,-0.9595717787742615,153.35458374023438,-92.65860748291016, -12.512738227844238
513,361206634,0.3736075,0.19998688,-0.90573597,0.0080710035,8.42508602142334,4.165711402893066,-4.637343883514404,158.2127227783203,-77.22626495361328, -23.605905532836914
514,361223301,0.36089024,0.21348947,-0.9074142,0.02793003,8.759614944458008,2.574538230895996,-5.307848930358887,173.9861602783203,-57.839263916015625, -30.133407592773438
515,361239968,0.35389674,0.22850406,-0.9053258,0.05411324,11.243433952331543,-1.2061753273010254,3.423293352127075,209.55056762695312,-3.8134243488311768, -30.44586944580078
516,361256635,0.35300806,0.24104819,-0.9009265,0.074918665,6.020854473114014,0.8277328014373779,0.2880434989929199,161.31826782226562,32.15128707885742, -34.02086639404297
517,361273302,0.3572901,0.24976256,-0.8955121,0.08955744,6.722410202026367,1.4859760999679565,-0.9971973896026611,105.78488159179688,58.347896575927734, -29.56349754333496
518,361289969,0.3680626,0.25672957,-0.8885301,0.09557526,7.2343316078186035,1.7367030382156372,-0.2946307957172394,38.250885009765625,88.39090728759766, -46.634674072265625
519,361306636,0.38449398,0.26157385,-0.8799483,0.09713219,6.363636016845703,0.002443167380988598,-0.6071953773498535,-3.285616636276245,120.48057556152344, -51.47396469116211
520,361323303,0.40547237,0.26449034,-0.8695032,0.09798598,6.651461124420166,-0.518470287322998,-0.9220266342163086,-19.562061309814453,152.9047393798828, -48.05831527709961
521,361339970,0.43028113,0.26511535,-0.8572547,0.09842077,7.35627555847168,-0.9659449458122253,-1.449404001235962,-34.2069206237793,181.58364868164062, -41.398284912109375
522,361356637,0.45843747,0.26284152,-0.84334224,0.097588934,8.133675575256348,-0.7535346746444702,-1.8175702095031738,-55.234378814697266,205.86480712890625, -33.379425048828125
523,361373304,0.48957166,0.25687897,-0.82790154,0.09440368,9.056180000305176,-0.5700356364250183,-2.4054346084594727,-84.87741088867188,226.15069580078125, -24.19888687133789
524,361389971,0.52292967,0.24681462,-0.81104344,0.088518575,9.838610649108887,-0.4442315995693207,-3.0130326747894287,-117.07854461669922,241.46090698242188, -13.926416397094727
525,361406638,0.5576539,0.23270705,-0.79267806,0.08081448,10.246786117553711,-0.5185955166816711,-3.764481544494629,-143.18077087402344,253.8716278076172, -1.3626961708068848
526,361423305,0.59257144,0.21565919,-0.77263165,0.07342162,10.956587791442871,-0.4110053479671478,-4.426287651062012,-152.15072631835938,263.51568603515625, 12.996849060058594
527,361439972,0.62676954,0.19732751,-0.7507312,0.06800561,11.779204368591309,-0.0477665513753891,-4.536765098571777,-144.8871612548828,270.8531188964844, 25.421762466430664
528,361456639,0.6597388,0.17860097,-0.7270847,0.0647646,12.416497230529785,0.5450632572174072,-4.691606521606445,-132.88319396972656,275.2052307128906, 34.981414794921875
529,361473306,0.6910706,0.1603825,-0.7018815,0.063729644,13.019296646118164,1.2649908065795898,-4.502889156341553,-116.84612274169922,276.6111145019531, 41.22101593017578
530,361489973,0.7204787,0.14300601,-0.67556125,0.06385088,13.433959007263184,1.739430546760559,-4.463513374328613,-104.6530532836914,273.5968933105469, 42.23166275024414
531,361506640,0.74742603,0.12712587,-0.6487928,0.06527833,13.54799747467041,1.7377842664718628,-4.451470375061035,-88.55198669433594,265.0760498046875, 42.37409210205078
532,361523307,0.7713563,0.1143859,-0.62222546,0.06899913,12.9780855178833,1.094049334526062,-4.654600620269775,-59.62980651855469,251.2497100830078, 41.6735954284668
533,361539974,0.7923059,0.10675902,-0.5959832,0.07522153,12.89657974243164,1.2052218914031982,-4.804592132568359,-19.611223220825195,236.3989715576172, 34.73222732543945
534,361556641,0.8102971,0.105990484,-0.57032657,0.08314065,11.966325759887695,1.9659252166748047,-4.769136905670166,26.580020904541016,218.87620544433594, 17.840869903564453
535,361573308,0.82447934,0.11028132,-0.54775405,0.089651585,10.628412246704102,2.6915485858917236,-5.211627006530762,50.25776290893555,182.93255615234375, -5.393592357635498
536,361589975,0.83425,0.11434936,-0.5312694,0.093295574,8.327439308166504,2.3516929149627686,-6.239588737487793,37.778621673583984,129.86923217773438, -13.436310768127441
537,361606642,0.83915704,0.11365705,-0.52355385,0.09374887,6.791265964508057,2.153897523880005,-6.75438117980957,-2.99811053276062,62.45954513549805, -4.310548782348633
538,361623309,0.8395714,0.10885998,-0.5242664,0.0917279,7.381906509399414,2.0121829509735107,-6.8550705909729,-37.52736282348633,-1.5106065273284912, 5.687809944152832
539,361639976,0.83677816,0.10285876,-0.53057766,0.08780671,8.124459266662598,2.632305860519409,-6.121513366699219,-52.47840118408203,-45.934112548828125, 5.284497261047363
540,361656643,0.8322141,0.095904745,-0.5399297,0.08184209,8.29967975616455,3.366394281387329,-4.5777692794799805,-66.02144622802734,-70.64424896240234, 0.2421952337026596
541,361673310,0.8266043,0.08722795,-0.55113715,0.07324434,8.009029388427734,4.470265865325928,-3.854887008666992,-86.03414154052734,-85.81582641601562, -6.587149143218994
542,361689977,0.820092,0.07817852,-0.5633253,0.06326248,11.316906929016113,3.9912056922912598,0.3255962133407593,-93.37652587890625,-95.37027740478516, -11.953421592712402
543,361706644,0.8158616,0.07452488,-0.57099193,0.0527656,11.973989486694336,4.567041873931885,10.127409934997559,-64.22183990478516,-63.611881256103516, -39.1385612487793
544,361723311,0.81057405,0.06589443,-0.5805806,0.039425053,10.977971076965332,-2.1991019248962402,-0.2318873405456543,-103.47364807128906,-78.26566314697266, -34.13916015625
545,361739978,0.8026265,0.06545338,-0.5919272,0.033595562,15.756625175476074,-5.93386173248291,0.05162826180458069,-27.110034942626953,-97.45105743408203, -23.481704711914062
546,361756645,0.793327,0.0760517,-0.603109,0.033288967,13.329181671142578,-2.283735752105713,-1.3230394124984741,56.95423889160156,-102.05451965332031, -37.77483367919922
547,361773312,0.78363246,0.08747111,-0.6142557,0.030971482,11.45671558380127,2.446641683578491,-1.3223826885223389,53.308998107910156,-104.6844253540039, -52.11797332763672
548,361789979,0.7751128,0.09277797,-0.6245249,0.023695914,10.204723358154297,3.121513605117798,-0.9105189442634583,-1.1016112565994263,-96.62620544433594, -53.77872085571289
549,361806646,0.76807874,0.092474476,-0.6335259,0.0121905925,9.117956161499023,5.498462677001953,-1.1659929752349854,-49.92164611816406,-85.23719787597656, -53.254825592041016
550,361823313,0.7620684,0.08720434,-0.6415927,-0.0025036086,9.93020248413086,3.4816949367523193,-1.3378337621688843,-90.63377380371094,-77.42576599121094, -49.08319091796875
551,361839980,0.75629866,0.08542972,-0.64850557,-0.012448607,9.851743698120117,0.4381018877029419,-1.5288821458816528,-51.54267120361328,-67.3764419555664, -40.27177429199219
552,361856647,0.75047165,0.09114168,-0.65441537,-0.015039223,10.10454273223877,-0.04360470920801163,-0.7593425512313843,20.420732498168945,-57.37532424926758, -35.96816635131836
553,361873314,0.74490666,0.09852417,-0.6596489,-0.016448375,10.46800708770752,2.0393598079681396,0.36872121691703796,34.120357513427734,-51.76911163330078, -37.81095504760742
554,361889981,0.7401006,0.10182277,-0.66438615,-0.021781603,10.193721771240234,2.770340919494629,0.3355434834957123,-5.189051628112793,-48.9000129699707, -39.640995025634766
555,361906648,0.73601514,0.1022822,-0.6685545,-0.029241467,10.272268295288086,2.4653871059417725,-0.2531481683254242,-29.91110610961914,-44.61298751831055, -37.76951217651367
556,361923315,0.73229736,0.1035643,-0.6721717,-0.034643494,10.156665802001953,2.5700697898864746,-0.3716605305671692,-16.643701553344727,-38.50506591796875, -31.442800521850586
557,361939982,0.72876066,0.107280545,-0.6753442,-0.036184147,9.94340705871582,2.4284849166870117,-0.6449307203292847,13.247116088867188,-32.080318450927734, -23.51814842224121
558,361956649,0.72552586,0.1129545,-0.6779723,-0.034748204,9.547654151916504,2.4185664653778076,-0.6070377826690674,36.53338623046875,-25.250072479248047, -18.021677017211914
559,361973316,0.72275424,0.118588306,-0.6800573,-0.032947816,9.948519706726074,2.463351011276245,-0.5687840580940247,37.14913558959961,-20.182029724121094, -16.357847213745117
560,361989983,0.7203793,0.12365889,-0.6817461,-0.03137866,9.889156341552734,2.4154622554779053,-0.37384143471717834,33.22734451293945,-16.582958221435547, -15.086297988891602
561,362006650,0.7183782,0.12774931,-0.6831436,-0.030462813,9.485644340515137,2.6169228553771973,-0.16867168247699738,24.552465438842773,-14.237189292907715, -13.91887378692627
562,362023317,0.71653837,0.13150428,-0.68440634,-0.029456222,9.53232192993164,2.4893910884857178,-0.13599815964698792,23.151086807250977,-12.806554794311523, -11.978800773620605
563,362039984,0.7146824,0.1356069,-0.6856142,-0.0278068,9.491974830627441,2.4482085704803467,-0.03609694540500641,27.892030715942383,-11.966693878173828, -10.501667976379395
564,362056651,0.7127239,0.14005587,-0.68684113,-0.025658295,9.451841354370117,2.3852713108062744,-0.047026731073856354,32.04683303833008,-12.019734382629395, -9.686240196228027
565,362073318,0.71058464,0.14454304,-0.68820405,-0.02350097,9.430641174316406,2.3071322441101074,-0.0008169263601303101,32.474884033203125,-13.534619331359863, -9.728068351745605
566,362089985,0.7082461,0.14868057,-0.68978775,-0.02179032,9.453015327453613,2.2627975940704346,0.10900063812732697,28.888750076293945,-16.069011688232422, -10.07284927368164
567,362106652,0.70553577,0.1527003,-0.691731,-0.020258551,9.389410972595215,2.301208019256592,0.33268144726753235,27.903392791748047,-19.797510147094727, -10.077921867370605
568,362123319,0.70239383,0.15653859,-0.69410187,-0.019011531,9.349868774414062,2.349414825439453,0.37814217805862427,26.185209274291992,-24.26715850830078, -10.210997581481934
569,362139986,0.6988272,0.16010982,-0.6969039,-0.01818391,9.331585884094238,2.4207279682159424,0.48275935649871826,23.411415100097656,-28.882219314575195, -10.55596923828125
570,362156653,0.6947969,0.16330417,-0.70019037,-0.017961884,9.316468238830566,2.529634475708008,0.37981975078582764,19.274097442626953,-34.16683578491211, -11.185887336730957
571,362173320,0.6903389,0.16579384,-0.7039891,-0.018553935,9.281874656677246,2.675628900527954,0.47692790627479553,12.537067413330078,-39.69512176513672, -11.160088539123535
572,362189987,0.6853593,0.16760743,-0.70837384,-0.019925445,9.269893646240234,2.681567430496216,0.38435274362564087,6.229679107666016,-45.99799346923828, -10.983901023864746
573,362206654,0.6797781,0.16894759,-0.71336085,-0.02179368,9.264740943908691,2.67242693901062,0.19205792248249054,2.3603172302246094,-52.426353454589844, -10.404829025268555
574,362223321,0.67361414,0.16972739,-0.7189207,-0.024287947,9.256599426269531,2.944269895553589,-0.03007454425096512,-2.5612120628356934,-58.79345703125, -10.00208854675293
575,362239988,0.66686165,0.17008926,-0.7249935,-0.02738528,9.05866813659668,2.834213972091675,-0.29299283027648926,-6.700078010559082,-64.87149810791016, -10.22473430633545
576,362256655,0.6595106,0.17012528,-0.73153305,-0.031032339,9.114485740661621,2.7660093307495117,-0.540315568447113,-10.141559600830078,-70.7173843383789, -10.68425178527832
577,362273322,0.65161663,0.16946594,-0.738526,-0.035454873,9.514593124389648,2.8919873237609863,-0.8294442892074585,-16.458877563476562,-76.57584381103516, -10.28614616394043
578,362289989,0.6431991,0.1682959,-0.74588776,-0.040290017,9.687671661376953,2.859114408493042,-1.1973544359207153,-20.138090133666992,-81.50724029541016, -9.23688793182373
579,362306656,0.63418245,0.16720447,-0.7535549,-0.044839773,9.874334335327148,2.849985361099243,-1.4635984897613525,-17.545085906982422,-85.5922622680664, -8.189229965209961
580,362323323,0.6244895,0.16632427,-0.7615558,-0.04880748,10.15981388092041,3.0917770862579346,-1.4089266061782837,-12.724106788635254,-89.830078125, -6.5706305503845215
581,362339990,0.6141395,0.16544388,-0.76987517,-0.0524738,10.677261352539062,2.9828903675079346,-1.192749261856079,-10.284798622131348,-94.30804443359375, -5.131180763244629
582,362356657,0.6027457,0.16516063,-0.7786797,-0.055478327,10.750982284545898,2.6509110927581787,-1.1131846904754639,-2.892085552215576,-100.93272399902344, -5.32430362701416
583,362373324,0.58999336,0.1653822,-0.78816247,-0.05793944,10.813918113708496,2.5348830223083496,-1.2948496341705322,3.915191173553467,-110.22747039794922, -5.527982711791992
584,362389991,0.57580227,0.16569427,-0.79836345,-0.060110945,11.70312786102295,2.841125249862671,-0.6438684463500977,7.778189659118652,-120.5931625366211, -4.605823516845703
585,362406658,0.5602618,0.16570567,-0.80917203,-0.062363427,12.730210304260254,2.6940548419952393,-0.12055137753486633,7.938937187194824,-130.6503448486328, -3.1473889350891113
586,362423325,0.54297674,0.16580848,-0.8207149,-0.06411713,13.392990112304688,2.228794813156128,-0.31673482060432434,13.376142501831055,-142.6126708984375, -1.6545592546463013
587,362439992,0.5238099,0.16711654,-0.8328125,-0.06417796,14.430929183959961,1.9268877506256104,0.35634034872055054,29.823354721069336,-152.87937927246094, -2.3443899154663086
588,362456659,0.50312966,0.17034844,-0.8449523,-0.06243308,15.389435768127441,1.3011645078659058,0.9015793800354004,48.85657501220703,-158.8194122314453, -7.49137020111084
589,362473326,0.48088866,0.17582184,-0.8570065,-0.0580757,15.579719543457031,0.30261486768722534,0.8401529788970947,73.58576965332031,-163.62034606933594, -12.264181137084961
590,362489993,0.45749873,0.18260981,-0.8686893,-0.052227367,15.303731918334961,-0.060947272926568985,0.6261365413665771,87.95989227294922,-166.88919067382812, -16.007476806640625
591,362506660,0.43357143,0.18856125,-0.88000053,-0.045386426,14.828014373779297,-1.4825210571289062,-0.6106252670288086,91.79676055908203,-168.03482055664062, -8.563921928405762
592,362523327,0.4095816,0.19368356,-0.8907625,-0.035663784,15.444589614868164,0.8930948972702026,-0.9108624458312988,106.66233825683594,-163.34286499023438, 4.296011924743652
593,362539994,0.39121357,0.195149,-0.8989354,-0.028002385,14.406156539916992,1.6435987949371338,0.46282389760017395,75.60841369628906,-125.29651641845703, 18.814912796020508
594,362556661,0.37485448,0.19891897,-0.9053391,-0.016639376,10.28056812286377,5.1504669189453125,-2.615981340408325,101.65361785888672,-102.7562484741211, 12.544231414794922
595,362573328,0.35883474,0.20543385,-0.9104953,-0.0057412097,8.591306686401367,8.286825180053711,-7.742203235626221,105.24279022216797,-97.76679992675781, -7.384576797485352
596,362589995,0.34845403,0.21182337,-0.9130308,0.0092486,12.50506591796875,-1.1144415140151978,1.450551986694336,122.50384521484375,-50.21328353881836, 0.051990583539009094
597,362606662,0.3441361,0.22166121,-0.9118243,0.03183525,7.165059566497803,0.6273524761199951,1.5765219926834106,169.867431640625,7.617605209350586, -9.225882530212402
598,362623329,0.34534734,0.22959445,-0.90842444,0.05279232,5.829224586486816,0.9627377390861511,-1.5307589769363403,147.1966094970703,45.38908004760742, -5.675942897796631
599,362639996,0.3505749,0.23594661,-0.9033805,0.07300933,6.932492256164551,-0.5778881907463074,-1.3832858800888062,133.66567993164062,73.83867645263672, -2.279128313064575
600,362656663,0.3599243,0.2428356,-0.89603955,0.092729144,6.745073318481445,0.5985872149467468,-1.0135767459869385,125.7496566772461,103.84902954101562, -11.910886764526367
601,362673330,0.37481743,0.24836908,-0.8867596,0.10715696,5.897371768951416,2.130350112915039,-1.2840439081192017,81.77098846435547,134.82908630371094, -23.41511344909668
602,362689997,0.39594024,0.25061122,-0.87614816,0.11309328,5.3572845458984375,3.0440287590026855,-1.2909330129623413,11.862255096435547,164.17218017578125, -32.08281707763672
603,362706664,0.42262107,0.24890664,-0.8643127,0.11135937,5.915091037750244,2.7156524658203125,-2.1348633766174316,-53.71053695678711,190.853271484375, -35.612579345703125
604,362723331,0.45355508,0.24371898,-0.8507903,0.105095685,7.008425712585449,1.8972251415252686,-3.143080949783325,-96.74178314208984,215.9661102294922, -34.21989059448242
605,362739998,0.48718464,0.2358509,-0.83521634,0.09715706,7.814911842346191,1.6188019514083862,-3.91829776763916,-117.93939208984375,237.28550720214844, -29.15439224243164
606,362756665,0.5225272,0.22514158,-0.81767756,0.08763799,8.7512845993042,1.6831815242767334,-4.602662563323975,-138.00816345214844,253.06422424316406, -22.469802856445312
607,362773332,0.5588399,0.21119228,-0.7982403,0.07686658,9.646241188049316,1.5930691957473755,-5.259398937225342,-157.06048583984375,265.3798828125, -12.284210205078125
608,362789999,0.59546036,0.19423386,-0.7767725,0.0657664,10.70600700378418,2.048513889312744,-5.461397647857666,-169.81312561035156,276.01287841796875, -0.1506328135728836
609,362806666,0.63162166,0.1745823,-0.7533599,0.05499261,11.65066909790039,2.2032244205474854,-5.699041843414307,-176.5029296875,283.3687744140625, 12.867612838745117
610,362823333,0.6663872,0.15454178,-0.7278665,0.047492377,12.37359619140625,1.8694790601730347,-5.794732093811035,-158.73939514160156,289.2825622558594, 27.224824905395508
611,362840000,0.69914055,0.13703558,-0.70026016,0.04538622,13.420109748840332,1.8884305953979492,-5.794406414031982,-117.36946868896484,293.8009033203125, 37.77609634399414
612,362856667,0.7294653,0.12427663,-0.6708658,0.048735093,13.946616172790527,1.9331891536712646,-5.606210708618164,-65.61177062988281,294.3470764160156, 40.3067512512207
613,362873334,0.757108,0.11678172,-0.640347,0.055726744,14.131071090698242,2.3740487098693848,-5.264517784118652,-19.944849014282227,288.9535827636719, 34.28929901123047
614,362890001,0.78223777,0.11243731,-0.60950834,0.06294367,14.026542663574219,2.7538983821868896,-5.080367088317871,-1.0747356414794922,278.47479248046875, 22.239152908325195
615,362906668,0.80500317,0.111220986,-0.57863694,0.06913197,14.832948684692383,2.318169355392456,-5.268742561340332,13.278532028198242,266.62188720703125, 4.5975141525268555
616,362923335,0.8239652,0.1162258,-0.5495341,0.07473584,12.890693664550781,1.8854002952575684,-5.395213603973389,47.455013275146484,238.32301330566406, -20.22811508178711
617,362940002,0.8385658,0.123025514,-0.5249465,0.07812516,10.4244966506958,2.585827350616455,-6.688733100891113,50.41286849975586,193.59107971191406, -33.70537567138672
618,362956669,0.84815973,0.123772465,-0.5093063,0.07689539,7.412232398986816,3.2838194370269775,-7.034689426422119,-1.7412877082824707,123.29759216308594, -28.22654151916504
619,362973336,0.8524515,0.11666371,-0.5045919,0.07143716,6.5643205642700195,1.6378586292266846,-7.461315155029297,-63.63211441040039,41.60354232788086, -13.267449378967285
620,362990003,0.8519892,0.11023551,-0.5074596,0.06669183,7.335423946380615,-0.1803012490272522,-7.0489935874938965,-57.085575103759766,-19.05849838256836, -3.0309813022613525
621,363006670,0.84895736,0.10819387,-0.51332796,0.063719004,8.476428031921387,0.057218339294195175,-4.23867130279541,-24.635982513427734,-46.237300872802734, -4.503345489501953
622,363023337,0.84556776,0.105776645,-0.51986367,0.05973801,8.722480773925781,1.9863678216934204,-1.5166667699813843,-30.41315269470215,-51.95933532714844, -8.41200065612793
623,363040004,0.8428376,0.09861251,-0.52646077,0.052342582,8.329830169677734,3.1145100593566895,-0.20265328884124756,-70.72208404541016,-50.48167419433594, -11.517509460449219
624,363056671,0.8404818,0.087590784,-0.5330705,0.041885704,8.28818416595459,3.6510462760925293,-0.43085187673568726,-104.42253112792969,-49.88273239135742, -15.412298202514648
625,363073338,0.8374028,0.076089635,-0.5404342,0.02996923,8.636265754699707,4.247777938842773,-1.6160521507263184,-112.32997131347656,-57.62687301635742, -21.416210174560547
626,363090005,0.8334914,0.06699714,-0.5481409,0.018582048,12.935254096984863,1.3800477981567383,6.139865398406982,-96.13377380371094,-62.90644073486328, -26.954423904418945
627,363106672,0.82801914,0.055741366,-0.557897,0.0053367815,11.954598426818848,-3.374088764190674,5.0690836906433105,-115.0770263671875,-81.12574005126953, -28.304065704345703
628,363123339,0.8194878,0.050442334,-0.57086647,-0.0026923316,13.48904800415039,-5.753375053405762,3.0247159004211426,-60.090633392333984,-109.38155364990234, -20.124263763427734
629,363140006,0.8096571,0.054898035,-0.58429664,-0.006261406,12.591538429260254,-1.6061763763427734,0.999894380569458,12.846895217895508,-115.35047912597656, -33.16747283935547
630,363156673,0.79935354,0.059703253,-0.5977718,-0.011772382,11.203320503234863,3.2693724632263184,0.8852355480194092,7.172186374664307,-118.21560668945312, -45.39501190185547
631,363173340,0.7892963,0.055941608,-0.6109533,-0.02485708,10.536776542663574,3.703354597091675,0.5610030889511108,-70.54702758789062,-119.31250762939453, -51.73466491699219
632,363190007,0.7794205,0.051560096,-0.6232583,-0.037348952,9.485980033874512,1.6653492450714111,-1.197035551071167,-71.60193634033203,-113.66187286376953, -46.219940185546875
633,363206674,0.7694317,0.052997474,-0.6349515,-0.044757016,8.981825828552246,3.2619524002075195,-3.679304361343384,-18.758108139038086,-107.55963897705078, -44.176292419433594
634,363223341,0.7591315,0.058916163,-0.64647436,-0.04816143,12.046567916870117,1.5764470100402832,-1.5596078634262085,22.42789077758789,-105.1716537475586, -42.74364471435547
635,363240008,0.7496167,0.0676,-0.6566292,-0.048407584,9.230705261230469,2.0230648517608643,-1.6406656503677368,50.08274459838867,-92.33977508544922, -38.87181854248047
636,363256675,0.7412573,0.07344706,-0.665239,-0.050995782,9.930562973022461,3.0959887504577637,-0.5385885238647461,23.89670181274414,-81.17264556884766, -38.47737121582031
637,363273342,0.73426557,0.07540111,-0.6722531,-0.056965645,10.352741241455078,2.3443851470947266,-0.886141300201416,-12.614583015441895,-69.8428955078125, -38.23802185058594
638,363290009,0.7283321,0.07761738,-0.67795515,-0.062330525,10.192922592163086,1.8542275428771973,-1.623119592666626,-9.672401428222656,-57.92917251586914, -36.6818962097168
639,363306676,0.72316843,0.08089417,-0.68273294,-0.06602739,10.295567512512207,2.858933448791504,-0.8322182297706604,2.478513717651367,-48.389625549316406, -33.45378494262695
640,363323343,0.7186008,0.08433997,-0.6868903,-0.06842367,9.870421409606934,3.2906172275543213,-0.8353021740913391,8.84419059753418,-41.69713592529297, -27.85808563232422
641,363340010,0.71460325,0.087468415,-0.6904929,-0.070081,9.718667030334473,2.7862303256988525,-0.7660554647445679,10.057079315185547,-36.011207580566406, -22.770687103271484
642,363356677,0.71108437,0.09087113,-0.6936008,-0.070850715,9.919429779052734,2.4470770359039307,-0.7822896242141724,15.221217155456543,-30.61138916015625, -19.77838706970215
643,363373344,0.7080182,0.09387955,-0.6962686,-0.071465194,9.748613357543945,3.044637680053711,-0.7400941848754883,13.523375511169434,-26.401140213012695, -17.199472427368164
644,363390011,0.7053353,0.0963967,-0.69858634,-0.07202296,9.53708267211914,2.8300559520721436,-0.7146098613739014,11.013654708862305,-23.05990219116211, -14.612653732299805
645,363406678,0.70283866,0.0988925,-0.7007319,-0.07220253,9.70423412322998,2.59379243850708,-0.44372764229774475,12.49670696258545,-21.098047256469727, -12.702127456665039
646,363423345,0.7004219,0.10140688,-0.70279807,-0.07211955,9.75599479675293,2.4348320960998535,-0.12652882933616638,13.755749702453613,-20.14582061767578, -11.54175090789795
647,363440012,0.69794387,0.10393028,-0.70490456,-0.07199166,9.51539421081543,2.42256236076355,-0.07598227262496948,14.1202974319458,-20.59286880493164, -11.37678050994873
648,363456679,0.6953163,0.10642574,-0.7071309,-0.071935184,9.341341018676758,2.4521241188049316,-0.14487755298614502,13.8273286819458,-21.955638885498047, -11.577842712402344
649,363473346,0.69253993,0.10905446,-0.7094599,-0.07185201,9.260937690734863,2.520554780960083,-0.39279797673225403,14.752544403076172,-23.087984085083008, -12.102242469787598
650,363490013,0.6896128,0.11198808,-0.7118921,-0.07143463,9.30122184753418,2.5831828117370605,-0.479708194732666,18.006898880004883,-23.914405822753906, -12.000898361206055
651,363506680,0.68659544,0.11500894,-0.71437746,-0.07088698,9.321165084838867,2.6513993740081787,-0.49381887912750244,19.121063232421875,-24.476001739501953, -11.818130493164062
652,363523347,0.6835388,0.11757557,-0.71689785,-0.07077213,9.491772651672363,2.7047479152679443,-0.6569209694862366,14.957989692687988,-25.384450912475586, -11.629691123962402
653,363540014,0.6804776,0.11971122,-0.71941036,-0.07119317,9.42000675201416,2.582415819168091,-0.8117277026176453,10.306615829467773,-26.009920120239258, -12.03885269165039
654,363556681,0.67727333,0.1219421,-0.72200185,-0.071725816,9.325793266296387,2.40543532371521,-0.7621223330497742,10.349353790283203,-27.136428833007812, -13.042673110961914
655,363573348,0.67367464,0.12457751,-0.72488254,-0.072032884,9.224129676818848,2.5116851329803467,-0.5224960446357727,13.827366828918457,-30.05219841003418, -13.959190368652344
656,363590015,0.66955155,0.12702136,-0.7282051,-0.07269157,9.220168113708496,2.7621421813964844,-0.23200008273124695,11.86631965637207,-35.1077766418457, -14.522353172302246
657,363606682,0.6648416,0.12906744,-0.73203063,-0.073883355,9.325078010559082,2.66607928276062,-0.3335758447647095,8.091472625732422,-41.040252685546875, -14.84239387512207
658,363623349,0.6594325,0.13110377,-0.73642075,-0.075135626,9.31147575378418,2.502187728881836,-0.5068217515945435,8.14215087890625,-47.35923767089844, -14.875706672668457
659,363640016,0.65327936,0.13359165,-0.7413709,-0.075821005,9.383942604064941,2.2594709396362305,-0.7930561304092407,14.020658493041992,-52.92534637451172, -14.472733497619629
660,363656683,0.6463108,0.13689944,-0.7468808,-0.0755667,9.492110252380371,2.729341983795166,-0.6952998638153076,23.535205841064453,-58.30938720703125, -14.344524383544922
661,363673350,0.6388014,0.13988811,-0.7527501,-0.0757081,9.589139938354492,3.3114702701568604,-0.848112165927887,20.78201675415039,-63.22541046142578, -14.40804386138916
662,363690017,0.630786,0.1423183,-0.7589588,-0.07639656,9.733675956726074,3.4926373958587646,-0.9338582754135132,16.16276741027832,-68.15580749511719, -13.857166290283203
663,363706684,0.622259,0.14478032,-0.7654372,-0.077063516,9.787463188171387,2.992241144180298,-1.3419673442840576,17.056453704833984,-71.96217346191406, -13.93454647064209
664,363723351,0.6130076,0.14769408,-0.7723026,-0.0771844,9.875457763671875,3.1793406009674072,-1.4675990343093872,22.79053497314453,-76.65180206298828, -13.975151062011719
665,363740018,0.60300845,0.15020508,-0.77960736,-0.07766534,9.93416976928711,3.3102877140045166,-1.4786746501922607,20.1742000579834,-83.05719757080078, -13.305225372314453
666,363756685,0.59216064,0.1524033,-0.787384,-0.0783956,9.94408130645752,3.330263614654541,-1.3460959196090698,18.670848846435547,-89.99183654785156, -12.628711700439453
667,363773352,0.5804361,0.1544322,-0.7955963,-0.07919205,10.2073974609375,3.23207426071167,-1.3960047960281372,18.77848243713379,-96.6783218383789, -11.99802017211914
668,363790019,0.5677283,0.1560683,-0.8043449,-0.07972996,11.198269844055176,3.214012384414673,-1.5485626459121704,19.96294593811035,-104.14201354980469, -8.784341812133789
669,363806686,0.5540144,0.15655617,-0.813644,-0.08088325,12.104639053344727,3.2426376342773438,-1.3595826625823975,13.460851669311523,-113.15087127685547, -4.798924922943115
670,363823353,0.5391688,0.15676555,-0.8234108,-0.08195531,12.234551429748535,2.8437561988830566,-1.1122461557388306,14.335600852966309,-121.34146881103516, -3.0596237182617188
671,363840020,0.52324057,0.15715285,-0.8334954,-0.08251083,12.463934898376465,2.42214035987854,-0.7116126418113708,19.267210006713867,-128.00094604492188, -2.422656297683716
672,363856687,0.50602937,0.15781939,-0.8439392,-0.082427084,13.463786125183105,2.566370725631714,-0.2678537666797638,25.52827262878418,-135.80979919433594, -2.0670325756073
673,363873354,0.4877293,0.15954095,-0.8544495,-0.08113775,14.567195892333984,2.536508560180664,0.35208457708358765,37.416343688964844,-140.46734619140625, -4.543519020080566
674,363890021,0.46846032,0.16320547,-0.86476445,-0.07804798,15.028081893920898,1.6815494298934937,0.32515260577201843,55.46691131591797,-142.4642333984375, -10.680328369140625
675,363906688,0.44790307,0.16864745,-0.87509024,-0.07182212,15.375142097473145,0.08392724394798279,0.5610769987106323,81.29411315917969,-145.7061309814453, -11.832736015319824
676,363923355,0.426444,0.17422263,-0.88524556,-0.06428431,15.17042350769043,0.38252726197242737,-0.47723668813705444,90.56046295166016,-149.04254150390625, -9.244194030761719
677,363940022,0.405489,0.1787854,-0.8947013,-0.0558954,15.253791809082031,-0.32620489597320557,-0.3420030474662781,91.85807800292969,-143.36878967285156, -1.2070960998535156
678,363956689,0.3894049,0.18453607,-0.90142155,-0.041830033,15.451044082641602,1.0205490589141846,1.990208387374878,123.0483627319336,-98.36067962646484, 5.816161155700684
679,363973356,0.37382656,0.1922875,-0.9070208,-0.024347212,8.694823265075684,5.106799125671387,-4.668182373046875,148.6272430419922,-87.33965301513672, 1.2883706092834473
680,363990023,0.35743567,0.20097241,-0.91203094,-0.007071908,9.963254928588867,6.123889923095703,-9.134675025939941,150.7143096923828,-91.0152587890625, -5.971293926239014
681,364006690,0.3468734,0.21347189,-0.9131008,0.01885971,14.105599403381348,-0.6703457236289978,3.6232948303222656,206.1447296142578,-32.63228225708008, -13.76696491241455
682,364023357,0.34247297,0.22630796,-0.9107266,0.045544654,5.936642646789551,-0.20885977149009705,0.2604711949825287,203.07833862304688,15.3073148727417, -19.933361053466797
683,364040024,0.34128082,0.23740336,-0.9062194,0.07703037,6.893589973449707,-1.3260362148284912,-1.9500515460968018,224.7283172607422,48.433902740478516, -2.0411999225616455
684,364056691,0.3448379,0.24865326,-0.89916,0.10377832,7.092367172241211,2.4500696659088135,-0.5481253862380981,189.15476989746094,76.1965103149414, -20.7961483001709
685,364073358,0.35581052,0.25678602,-0.89087504,0.117481485,6.1450910568237305,2.3960607051849365,-0.13900458812713623,89.30098724365234,104.85858917236328, -39.82843017578125
686,364090025,0.37371036,0.2616426,-0.88137066,0.12275896,5.425424575805664,1.7654612064361572,-0.5343729257583618,18.432889938354492,138.03993225097656, -48.11465072631836
687,364106692,0.39783812,0.26372713,-0.8701688,0.122389995,5.767993450164795,1.4219216108322144,-1.066896915435791,-32.678646087646484,172.32968139648438, -54.13376998901367
688,364123359,0.42729154,0.2622735,-0.8572266,0.117462546,6.540276050567627,1.2135754823684692,-1.9485162496566772,-77.82778930664062,203.67654418945312, -53.07481384277344
