PacketCounter,SampleTimeFine,Quat_W,Quat_X,Quat_Y,Quat_Z,Acc_X,Acc_Y,Acc_Z,Gyr_X,Gyr_Y,Gyr_Z 
2,371616228,0.62908113,-0.1617631,-0.75306225,-0.104818575,9.694358825683594,-0.4232032895088196,-1.8381930589675903,0.7377801537513733,-3.320225238800049, 0.1304134577512741
3,371632895,0.62869567,-0.16205873,-0.7532348,-0.105432846,9.664178848266602,-0.4454238712787628,-1.8239831924438477,0.662299633026123,-3.226060628890991, 0.10814322531223297
4,371649562,0.6284612,-0.1617677,-0.7535168,-0.10526278,9.669224739074707,-0.4501810669898987,-1.8438113927841187,0.9444618225097656,-3.190446138381958, 0.06326977908611298
5,371666229,0.6281017,-0.16229457,-0.7536508,-0.105638854,9.651162147521973,-0.44823428988456726,-1.8487216234207153,0.7630471587181091,-3.1292314529418945, -0.03092733770608902
6,371682896,0.6278025,-0.16239509,-0.7538846,-0.105594866,9.659459114074707,-0.4425261616706848,-1.824217677116394,0.530035674571991,-3.02199125289917, 0.050168879330158234
7,371699563,0.62759936,-0.16209064,-0.7541702,-0.105230026,9.686040878295898,-0.43809354305267334,-1.8334795236587524,0.418645977973938,-2.981433629989624, 0.02237909473478794
8,371716230,0.6273631,-0.1621772,-0.7543504,-0.105212696,9.673952102661133,-0.43003085255622864,-1.8257099390029907,0.2867661714553833,-2.881646156311035, 0.020944785326719284
9,371732897,0.6271711,-0.16198751,-0.7545832,-0.10498021,9.683856964111328,-0.43056419491767883,-1.841521978378296,0.1480349898338318,-2.917158365249634, 0.06645854562520981
10,371749564,0.62697256,-0.16193333,-0.7547766,-0.1048582,9.665596961975098,-0.4371376931667328,-1.8432676792144775,0.4423249363899231,-2.798264265060425, 0.08258175104856491
11,371766231,0.62678456,-0.16195504,-0.7549376,-0.10478954,9.665687561035156,-0.424809992313385,-1.8285021781921387,0.46136796474456787,-2.5888805389404297, 0.14538408815860748
12,371782898,0.6266269,-0.16187836,-0.75510275,-0.10466066,9.659177780151367,-0.4463255703449249,-1.8123703002929688,0.3919063210487366,-2.444143295288086, 0.11553248763084412
13,371799565,0.6264888,-0.16168654,-0.75529236,-0.104416505,9.65359115600586,-0.42697441577911377,-1.8034121990203857,0.3820197880268097,-2.5107104778289795, 0.1677439659833908
14,371816232,0.6263133,-0.16163926,-0.75546294,-0.10430851,9.676920890808105,-0.4262615442276001,-1.8092312812805176,-0.007875905372202396,-2.6838905811309814, 0.15197935700416565
15,371832899,0.626213,-0.16107759,-0.755739,-0.10377774,9.671158790588379,-0.4464596211910248,-1.786020040512085,0.07060781866312027,-2.6736457347869873, 0.14401380717754364
16,371849566,0.62598133,-0.16151735,-0.7557992,-0.10405297,9.683890342712402,-0.45358818769454956,-1.7962982654571533,0.22553904354572296,-2.724884033203125, 0.21029949188232422
17,371866233,0.62578756,-0.16162916,-0.75593746,-0.10404125,9.690391540527344,-0.43563416600227356,-1.7825661897659302,0.6232786178588867,-2.852447748184204, 0.15638473629951477
18,371882900,0.6256268,-0.16143787,-0.75614697,-0.103783295,9.671469688415527,-0.444850355386734,-1.7926239967346191,0.5932477712631226,-2.9570887088775635, 0.1277753710746765
19,371899567,0.62539446,-0.16167514,-0.7562768,-0.10386931,9.677754402160645,-0.44928276538848877,-1.7888104915618896,0.8740397095680237,-3.0971641540527344, 0.09250666201114655
20,371916234,0.62522274,-0.16144387,-0.7565092,-0.10356875,9.68903636932373,-0.4470638334751129,-1.8106333017349243,1.0429556369781494,-3.1382601261138916, 0.03349500894546509
21,371932901,0.62503195,-0.1613728,-0.75670516,-0.10339987,9.661718368530273,-0.4363839030265808,-1.8183674812316895,0.9478554725646973,-3.0848188400268555, 0.0562518909573555
22,371949568,0.6248602,-0.16122037,-0.75691104,-0.10316757,9.677197456359863,-0.440896600484848,-1.8467531204223633,1.2597670555114746,-2.987311840057373, -0.004328546579927206
23,371966235,0.6246739,-0.16136555,-0.7570322,-0.10317926,9.689186096191406,-0.4145215153694153,-1.8203476667404175,0.9801275730133057,-2.6915745735168457, 0.10719554126262665
24,371982902,0.6245397,-0.16130485,-0.7571794,-0.103006445,9.68328857421875,-0.4380727708339691,-1.8464256525039673,1.2774782180786133,-2.496994972229004, 0.1924089938402176
25,371999569,0.6244285,-0.16117822,-0.75732887,-0.10277982,9.726313591003418,-0.41995787620544434,-1.7985925674438477,1.3893033266067505,-2.3383114337921143, 0.19174307584762573
26,372016236,0.6243704,-0.16087002,-0.7574942,-0.10239597,9.699973106384277,-0.42734646797180176,-1.8158286809921265,1.3669049739837646,-2.1074771881103516, 0.30456703901290894
27,372032903,0.62428474,-0.16085997,-0.7575839,-0.102271564,9.690646171569824,-0.4317305088043213,-1.8249447345733643,1.161824107170105,-1.955772876739502, 0.305437833070755
28,372049570,0.62423635,-0.16077492,-0.75766575,-0.10209461,9.670759201049805,-0.396604061126709,-1.8332651853561401,0.7107459902763367,-1.6645948886871338, 0.4007939100265503
29,372066237,0.6242543,-0.16045664,-0.757763,-0.101762034,9.673052787780762,-0.4481910765171051,-1.8002840280532837,-0.06699001044034958,-1.2432019710540771, 0.45592522621154785
30,372082904,0.62431246,-0.16009331,-0.75784206,-0.1013884,9.682706832885742,-0.4451652765274048,-1.8121259212493896,-0.07436647266149521,-0.943635880947113, 0.5278969407081604
31,372099571,0.62431264,-0.16013895,-0.7578372,-0.10135167,9.676915168762207,-0.4425768256187439,-1.7485812902450562,-0.365890234708786,-0.9452879428863525, 0.5757030844688416
32,372116238,0.62430036,-0.15998732,-0.7579084,-0.10113361,9.696075439453125,-0.4418172240257263,-1.74479341506958,-0.3791447579860687,-1.331360936164856, 0.6084360480308533
33,372132905,0.62423456,-0.16007484,-0.757944,-0.1011348,9.69523811340332,-0.45778167247772217,-1.7256792783737183,-0.7925209999084473,-1.4871375560760498, 0.5368486046791077
34,372149572,0.6241459,-0.16014285,-0.7580047,-0.10111906,9.66703987121582,-0.4610404670238495,-1.7139496803283691,-0.5804349184036255,-1.7428032159805298, 0.44439950585365295
35,372166239,0.6240413,-0.15994807,-0.7581623,-0.10089128,9.673460006713867,-0.46141523122787476,-1.7522952556610107,-0.653789758682251,-2.1994266510009766, 0.34079617261886597
36,372182906,0.62386703,-0.15991351,-0.758324,-0.10080862,9.654985427856445,-0.46857741475105286,-1.7147138118743896,-0.7608509063720703,-2.599663496017456, 0.20531782507896423
37,372199573,0.62374383,-0.15935765,-0.75861293,-0.1002761,9.670974731445312,-0.4699416756629944,-1.7484471797943115,-0.3779410123825073,-2.8177297115325928, 0.19727542996406555
38,372216240,0.62352127,-0.15949522,-0.75876236,-0.10031139,9.688488960266113,-0.4580918252468109,-1.7622324228286743,-0.15312553942203522,-2.8969757556915283, 0.14251548051834106
39,372232907,0.62344897,-0.15902616,-0.75898165,-0.09984448,9.683180809020996,-0.47774413228034973,-1.7523022890090942,0.22121047973632812,-2.300814628601074, 0.20156554877758026
40,372249574,0.62333083,-0.15906352,-0.7590762,-0.099803135,9.671435356140137,-0.4313575029373169,-1.762223482131958,0.010328322649002075,-2.093261957168579, 0.22121049463748932
41,372266241,0.62319136,-0.1591208,-0.75917715,-0.09981581,9.666976928710938,-0.41874900460243225,-1.7750245332717896,-0.8629430532455444,-2.1591763496398926, 0.18043506145477295
42,372282908,0.62312955,-0.15923063,-0.75919986,-0.09985348,9.734330177307129,-0.4276484251022339,-1.7054318189620972,-1.2789829969406128,-1.414717435836792, 0.5140661001205444
43,372299575,0.6232744,-0.1590791,-0.75913596,-0.09967757,9.721521377563477,-0.4596458077430725,-1.6882364749908447,-1.9240645170211792,0.11130639910697937, 0.9424386024475098
44,372316242,0.6236529,-0.1592554,-0.7587739,-0.099785045,9.7285795211792,-0.45824748277664185,-1.6831382513046265,-2.590968370437622,2.5728538036346436, 1.4691638946533203
45,372332909,0.6240218,-0.15969416,-0.75833493,-0.100113444,9.649483680725098,-0.45228007435798645,-1.7031773328781128,-3.162989616394043,2.815751791000366, 1.59990394115448
46,372349576,0.62427455,-0.15986179,-0.75807965,-0.10020438,9.617454528808594,-0.4386133849620819,-1.7324461936950684,-3.368288040161133,1.4751060009002686, 1.4550641775131226
47,372366243,0.62440616,-0.15970738,-0.7580269,-0.100028634,9.676549911499023,-0.4117189943790436,-1.7150665521621704,-3.249431848526001,0.04412427544593811, 1.1650768518447876
48,372382910,0.6243418,-0.16007096,-0.7579682,-0.10029542,9.697540283203125,-0.4098339080810547,-1.6688003540039062,-3.5549275875091553,-1.0325889587402344, 0.9371496438980103
49,372399577,0.6243691,-0.15932783,-0.7581875,-0.09964712,9.730533599853516,-0.4651300311088562,-1.6510956287384033,-3.0496528148651123,-1.54249906539917, 0.7719218730926514
50,372416244,0.6242033,-0.15950608,-0.75827587,-0.099728614,9.736300468444824,-0.4576265215873718,-1.703209400177002,-2.3795859813690186,-2.255441427230835, 0.6617231965065002
51,372432911,0.62406665,-0.15924501,-0.75848764,-0.09938968,9.705730438232422,-0.519761323928833,-1.7199300527572632,-0.33784428238868713,-2.686516046524048, 0.5007346868515015
52,372449578,0.62376064,-0.1599907,-0.7585209,-0.09986035,9.67392635345459,-0.44684332609176636,-1.6793352365493774,0.7516750693321228,-3.0884175300598145, 0.2976771891117096
53,372466245,0.62363213,-0.1593614,-0.75884336,-0.09921687,9.698952674865723,-0.44374051690101624,-1.6467279195785522,0.5020409226417542,-3.0799527168273926, 0.26101261377334595
54,372482912,0.6233885,-0.15948786,-0.7590134,-0.099243544,9.688697814941406,-0.4586946368217468,-1.6450104713439941,-0.40131261944770813,-3.116758108139038, 0.1671292930841446
55,372499579,0.62318414,-0.15948896,-0.7591914,-0.09916351,9.720052719116211,-0.48624157905578613,-1.6310241222381592,-0.3991098701953888,-2.9310529232025146, 0.22416873276233673
56,372516246,0.62310207,-0.15914932,-0.7593769,-0.09880299,9.720366477966309,-0.4759964048862457,-1.580877661705017,-0.36065244674682617,-2.264329195022583, 0.34800615906715393
57,372532913,0.6231618,-0.15927544,-0.7592996,-0.09881849,9.703479766845703,-0.47089073061943054,-1.5507208108901978,-1.6853153705596924,-0.45536813139915466, 0.9965068101882935
58,372549580,0.62312335,-0.15956484,-0.7592501,-0.09897269,9.654496192932129,-0.4847069978713989,-1.6451094150543213,-2.466221332550049,-1.1058155298233032, 1.00221848487854
59,372566247,0.6230094,-0.15976161,-0.7592903,-0.099065006,9.67057991027832,-0.43624579906463623,-1.6611775159835815,-2.087883472442627,-1.87869131565094, 0.6975042819976807
60,372582914,0.622815,-0.15974519,-0.7594617,-0.09900005,9.696531295776367,-0.452871173620224,-1.643882393836975,-2.1511852741241455,-2.803502321243286, 0.4412364065647125
61,372599581,0.6225739,-0.15968864,-0.7596867,-0.098881476,9.716310501098633,-0.45484745502471924,-1.6986305713653564,-1.3454352617263794,-3.3340566158294678, 0.2949366569519043
62,372616248,0.62231964,-0.15939882,-0.75999814,-0.098556295,9.699960708618164,-0.46124550700187683,-1.7129740715026855,-0.08708318322896957,-3.7986836433410645, 0.04172949492931366
63,372632915,0.6220579,-0.15898776,-0.76035696,-0.09810461,9.710579872131348,-0.438747376203537,-1.6764618158340454,0.8774590492248535,-4.084930896759033, -0.05411963164806366
64,372649582,0.62175983,-0.15858808,-0.76074225,-0.09765055,9.715838432312012,-0.44363686442375183,-1.6777348518371582,1.0704892873764038,-4.417947769165039, -0.08463717997074127
65,372666249,0.6214558,-0.1580686,-0.76117146,-0.0970839,9.713940620422363,-0.4335668981075287,-1.6694908142089844,1.4403620958328247,-4.648038864135742, -0.11297761648893356
66,372682916,0.6211068,-0.15770121,-0.7615896,-0.09663492,9.70634651184082,-0.41123905777931213,-1.661099910736084,1.6229808330535889,-4.893627166748047, -0.15073074400424957
67,372699583,0.62073696,-0.15720686,-0.76206726,-0.096047744,9.6953706741333,-0.4516512453556061,-1.6780234575271606,2.000800371170044,-5.288613319396973, -0.09915957599878311
68,372716250,0.6203057,-0.15691453,-0.7625357,-0.0955941,9.686315536499023,-0.4662152826786041,-1.688952922821045,2.6826682090759277,-5.685622692108154, -0.138539120554924
69,372732917,0.619864,-0.15631112,-0.7631107,-0.09485532,9.681045532226562,-0.4736844301223755,-1.7014410495758057,3.372751235961914,-6.197570323944092, -0.1971922218799591
70,372749584,0.619331,-0.15587229,-0.76370853,-0.09424634,9.688215255737305,-0.45262470841407776,-1.6731973886489868,4.074346542358398,-6.86023473739624, -0.4440474212169647
71,372766251,0.618738,-0.15553775,-0.7643232,-0.0937108,9.684577941894531,-0.4408974051475525,-1.676889181137085,4.0896382331848145,-7.295444488525391, -0.4619123041629791
72,372782918,0.61811525,-0.15512574,-0.764983,-0.093116306,9.684268951416016,-0.47334563732147217,-1.682608723640442,3.9983036518096924,-7.636056900024414, -0.52036052942276
73,372799585,0.6174542,-0.15497218,-0.7655969,-0.0927124,9.695276260375977,-0.47403818368911743,-1.7038935422897339,4.58610200881958,-7.760483264923096, -0.5712913870811462
74,372816252,0.6168298,-0.15458451,-0.76625013,-0.092117265,9.699917793273926,-0.45922669768333435,-1.738433599472046,4.76126766204834,-7.709232807159424, -0.5841361880302429
75,372832919,0.6161534,-0.15460603,-0.76681906,-0.091872856,9.687727928161621,-0.44954705238342285,-1.730000376701355,4.542022705078125,-7.703738212585449, -0.6552754640579224
76,372849586,0.61557776,-0.15408778,-0.7674677,-0.09118399,9.699399948120117,-0.4319402277469635,-1.7544032335281372,4.493999004364014,-7.411459922790527, -0.5266228318214417
77,372866253,0.61498827,-0.1539281,-0.7680184,-0.09079474,9.679673194885254,-0.46405893564224243,-1.7831617593765259,3.7165122032165527,-7.115849494934082, -0.36093422770500183
78,372882920,0.614404,-0.15402927,-0.7684868,-0.09061406,9.689537048339844,-0.4540444016456604,-1.7730499505996704,3.5796635150909424,-6.805423259735107, -0.27312105894088745
79,372899587,0.61384517,-0.15416881,-0.7689226,-0.09046703,9.663309097290039,-0.46773597598075867,-1.789540410041809,3.5091264247894287,-6.551883697509766, -0.2250204235315323
80,372916254,0.6133269,-0.15419334,-0.76935923,-0.09022871,9.67351245880127,-0.47200268507003784,-1.8142772912979126,3.692538261413574,-6.34018087387085, -0.23717360198497772
81,372932921,0.6128531,-0.15403986,-0.7698131,-0.08983613,9.67798900604248,-0.4342915117740631,-1.8159091472625732,3.880138397216797,-6.170726776123047, -0.17277047038078308
82,372949588,0.6123762,-0.15428461,-0.7701509,-0.08977425,9.68906307220459,-0.4326317608356476,-1.821723461151123,3.0270307064056396,-5.749398231506348, 0.020560598000884056
83,372966255,0.6119307,-0.154532,-0.7704626,-0.0897115,9.670327186584473,-0.4716534912586212,-1.8301093578338623,3.082059860229492,-5.4952311515808105, 0.07233668118715286
84,372982922,0.6115152,-0.15456869,-0.7708129,-0.0894715,9.685288429260254,-0.46709343791007996,-1.8479773998260498,3.2865514755249023,-5.486189365386963, 0.08466918766498566
85,372999589,0.6110481,-0.15523823,-0.7710165,-0.08975046,9.680441856384277,-0.4569222033023834,-1.8588230609893799,3.180680990219116,-5.286358833312988, 0.04457250237464905
86,373016256,0.61067647,-0.15532678,-0.77131516,-0.089560755,9.666043281555176,-0.4357677698135376,-1.863443374633789,3.0143394470214844,-5.059135913848877, 0.17992281913757324
87,373032923,0.6103168,-0.15561746,-0.77154285,-0.08954526,9.689472198486328,-0.4671246111392975,-1.8646703958511353,2.508136510848999,-4.724276065826416, 0.2755926847457886
88,373049590,0.61000013,-0.15570267,-0.7718002,-0.08933648,9.673561096191406,-0.46747928857803345,-1.8869504928588867,2.942713499069214,-4.6375508308410645, 0.36967453360557556
89,373066257,0.6097374,-0.15550628,-0.77209544,-0.08892157,9.67152214050293,-0.4561804533004761,-1.877056360244751,2.730269432067871,-4.437016487121582, 0.36179864406585693
90,373082924,0.6094564,-0.15561554,-0.77231836,-0.08872041,9.682270050048828,-0.47772926092147827,-1.8633166551589966,2.9231839179992676,-4.349344253540039, 0.5063310861587524
91,373099591,0.6091387,-0.156198,-0.7724312,-0.088895805,9.69300365447998,-0.47666892409324646,-1.874558925628662,3.123296022415161,-4.224238872528076, 0.4584737718105316
92,373116258,0.60889274,-0.15636723,-0.77260804,-0.08874697,9.686661720275879,-0.4715343117713928,-1.890799641609192,3.3150200843811035,-4.043413162231445, 0.4383293688297272
93,373132925,0.60869193,-0.15625778,-0.772831,-0.08837469,9.669580459594727,-0.4843255579471588,-1.8582217693328857,3.0923044681549072,-3.9400274753570557, 0.5392946004867554
94,373149592,0.608468,-0.15625118,-0.7730398,-0.088102624,9.672439575195312,-0.4699898958206177,-1.8808218240737915,2.925168752670288,-4.025279521942139, 0.46226444840431213
95,373166259,0.6082175,-0.15650897,-0.7731915,-0.08804308,9.632396697998047,-0.5025798082351685,-1.8989866971969604,2.7637319564819336,-3.999807119369507, 0.48206302523612976
96,373182926,0.60802007,-0.1563141,-0.7734306,-0.08765107,9.630611419677734,-0.4896029233932495,-1.9086610078811646,2.689058542251587,-3.968867540359497, 0.38394084572792053
97,373199593,0.60781175,-0.15621834,-0.77364826,-0.087345526,9.649165153503418,-0.4719943106174469,-1.9081028699874878,2.1192140579223633,-3.942204713821411, 0.4735340178012848
98,373216260,0.60759956,-0.15631527,-0.7738127,-0.08719216,9.64466381072998,-0.4874618351459503,-1.940970778465271,1.842084527015686,-3.788886547088623, 0.5761895775794983
99,373232927,0.60736537,-0.15671416,-0.7739037,-0.087298624,9.641681671142578,-0.48137742280960083,-1.915234923362732,1.7953541278839111,-3.669992208480835, 0.48530298471450806
100,373249594,0.607202,-0.15657918,-0.77409375,-0.08699265,9.645017623901367,-0.46710431575775146,-1.9238742589950562,1.3618593215942383,-3.5616893768310547, 0.5948229432106018
101,373266261,0.6069602,-0.15728459,-0.77409905,-0.08735865,9.640756607055664,-0.4806651175022125,-1.9173457622528076,0.915570855140686,-3.4018661975860596, 0.6559861302375793
102,373282928,0.60680956,-0.15720087,-0.77426267,-0.08710646,9.658721923828125,-0.5092594623565674,-1.8974583148956299,1.0345929861068726,-3.40554141998291, 0.6402854919433594
103,373299595,0.60665524,-0.15715156,-0.77441764,-0.086891755,9.67416763305664,-0.48895707726478577,-1.8960098028182983,0.96607905626297,-3.4069759845733643, 0.6024299263954163
104,373316262,0.6064629,-0.15735573,-0.7745276,-0.08688565,9.652867317199707,-0.48211029171943665,-1.9050214290618896,1.0376025438308716,-3.506430149078369, 0.5066384077072144
105,373332929,0.6063096,-0.15731111,-0.77467877,-0.08668738,9.672054290771484,-0.5119131803512573,-1.8741934299468994,0.8534344434738159,-3.4170289039611816, 0.5649585723876953
106,373349596,0.60616046,-0.15724504,-0.77483344,-0.0864685,9.679408073425293,-0.5036925077438354,-1.8870266675949097,1.3080596923828125,-3.4564850330352783, 0.477721631526947
107,373366263,0.6059728,-0.15747304,-0.7749329,-0.08647726,9.660073280334473,-0.48476943373680115,-1.8818440437316895,1.1041570901870728,-3.52085018157959, 0.5310088992118835
108,373382930,0.6057843,-0.15762459,-0.7750533,-0.08644251,9.661108016967773,-0.49322208762168884,-1.8894169330596924,0.7729593515396118,-3.585637092590332, 0.5253741145133972
109,373399597,0.6056107,-0.15767793,-0.7751897,-0.086338654,9.650359153747559,-0.5088798403739929,-1.907380223274231,0.6649889349937439,-3.5594611167907715, 0.5194448232650757
110,373416264,0.60542595,-0.1579264,-0.775279,-0.08637825,9.652970314025879,-0.5135082006454468,-1.9408113956451416,1.0130525827407837,-3.525075674057007, 0.4824599623680115
111,373432931,0.605275,-0.15799528,-0.77539164,-0.08630043,9.648950576782227,-0.5163772702217102,-1.9110676050186157,0.8365427255630493,-3.3854734897613525, 0.4468327462673187
112,373449598,0.6051135,-0.15820931,-0.7754686,-0.08634821,9.654059410095215,-0.528372049331665,-1.924607515335083,0.8353645205497742,-3.3441474437713623, 0.38573360443115234
113,373466265,0.6049772,-0.15826318,-0.77557045,-0.086290024,9.663999557495117,-0.5174864530563354,-1.9105602502822876,0.8208549618721008,-3.2833428382873535, 0.284704327583313
114,373482932,0.604896,-0.1580765,-0.7756972,-0.086062394,9.668931007385254,-0.5193370580673218,-1.9340159893035889,0.8289486765861511,-3.0372819900512695, 0.24613165855407715
115,373499599,0.60478425,-0.15809177,-0.77578664,-0.08601213,9.641960144042969,-0.5029538869857788,-1.9378365278244019,0.411525696516037,-3.0784547328948975, 0.24349355697631836
116,373516266,0.604668,-0.1582852,-0.7758281,-0.08609963,9.62783432006836,-0.486716628074646,-1.9378875494003296,0.18717120587825775,-2.9596245288848877, 0.32139456272125244
117,373532933,0.60457915,-0.15834439,-0.77588254,-0.08612474,9.627893447875977,-0.48742175102233887,-1.9324320554733276,-0.4760632812976837,-2.7798233032226562, 0.2987273037433624
118,373549600,0.60451835,-0.15826969,-0.7759535,-0.08604943,9.633950233459473,-0.5273495316505432,-1.9360114336013794,-0.1355423778295517,-2.7031641006469727, 0.21571654081344604
119,373566267,0.60444057,-0.15848595,-0.7759572,-0.08616524,9.634035110473633,-0.5332536101341248,-1.9187302589416504,0.2099793404340744,-2.6626579761505127, 0.3267860412597656
120,373582934,0.604421,-0.15835147,-0.77601624,-0.08601772,9.660174369812012,-0.48502734303474426,-1.9231542348861694,0.18746574223041534,-2.50129771232605, 0.32851484417915344
121,373599601,0.604371,-0.15852992,-0.77600473,-0.0861447,9.672698020935059,-0.497959703207016,-1.9172154664993286,-0.39478135108947754,-2.4188764095306396, 0.31047073006629944
122,373616268,0.60434407,-0.15874325,-0.775964,-0.08630654,9.654431343078613,-0.5038177371025085,-1.9222970008850098,-0.3784148395061493,-2.2017829418182373, 0.3132112920284271
123,373632935,0.604323,-0.15897559,-0.77591354,-0.08648012,9.666136741638184,-0.5107920169830322,-1.9025958776474,-0.2567161023616791,-2.1675002574920654, 0.30660325288772583
124,373649602,0.6043069,-0.159304,-0.77583003,-0.08673738,9.658828735351562,-0.5112595558166504,-1.9053144454956055,-0.26402848958969116,-2.0497841835021973, 0.27558624744415283
125,373666269,0.60431373,-0.15945353,-0.7757814,-0.08684943,9.66137409210205,-0.5084981322288513,-1.875949740409851,-0.26758870482444763,-2.0511162281036377, 0.32711902260780334
126,373682936,0.60431635,-0.15949313,-0.7757647,-0.086908735,9.655317306518555,-0.5309616923332214,-1.8591035604476929,-0.5442826747894287,-2.158318281173706, 0.21439751982688904
127,373699603,0.60430884,-0.15954794,-0.7757536,-0.08695863,9.66108226776123,-0.5422436594963074,-1.8367995023727417,-0.09069456905126572,-2.3138387203216553, 0.18377751111984253
128,373716270,0.60427773,-0.15960656,-0.77576196,-0.086992584,9.668601036071777,-0.5144521594047546,-1.8308355808258057,0.18939951062202454,-2.5816705226898193, 0.1784372627735138
129,373732937,0.60425097,-0.15945435,-0.77582973,-0.08685293,9.679577827453613,-0.5188643336296082,-1.8501405715942383,0.23738491535186768,-2.784932851791382, 0.21178501844406128
130,373749604,0.6042397,-0.15908428,-0.775952,-0.08651748,9.66053295135498,-0.5004904270172119,-1.8666218519210815,0.3626438081264496,-2.929029941558838, 0.3066416382789612
131,373766271,0.60418123,-0.1590336,-0.77601665,-0.08643892,9.670392990112305,-0.5178501605987549,-1.8648616075515747,0.2994060516357422,-3.0425195693969727, 0.2511773407459259
132,373782938,0.604127,-0.15897147,-0.7760809,-0.08635447,9.657906532287598,-0.5219748616218567,-1.870119333267212,0.6018920540809631,-3.056978225708008, 0.16175061464309692
133,373799605,0.6040926,-0.1588247,-0.7761555,-0.08619586,9.654253959655762,-0.5330681204795837,-1.9040850400924683,0.8944275379180908,-3.0216453075408936, 0.1491875797510147
134,373816272,0.60405034,-0.1587169,-0.77622354,-0.08607643,9.661115646362305,-0.49551355838775635,-1.9017555713653564,1.002628207206726,-3.065430164337158, 0.08329889923334122
135,373832939,0.60404,-0.15850978,-0.77629507,-0.08588561,9.658963203430176,-0.5069028735160828,-1.8938713073730469,0.8234931230545044,-2.8917760848999023, 0.12823638319969177
136,373849606,0.6040217,-0.15837827,-0.7763516,-0.08574521,9.655620574951172,-0.5120530724525452,-1.8822931051254272,1.1350973844528198,-2.940286874771118, 0.09816708415746689
137,373866273,0.604005,-0.15828598,-0.7763939,-0.08565037,9.668401718139648,-0.5045484304428101,-1.8931578397750854,0.8987689018249512,-2.883273124694824, 0.08178775757551193
138,373882940,0.60399294,-0.1582349,-0.7764194,-0.085599825,9.658841133117676,-0.5089816451072693,-1.9031074047088623,0.6066816449165344,-2.7947425842285156, 0.11111430078744888
139,373899607,0.60397756,-0.15832429,-0.7764042,-0.08568082,9.659261703491211,-0.49968549609184265,-1.8820160627365112,0.1402871459722519,-2.660173177719116, 0.12429202347993851
140,373916274,0.6039887,-0.15833946,-0.7763879,-0.08572208,9.66974925994873,-0.5156620740890503,-1.893462896347046,0.0102770971134305,-2.4934604167938232, 0.10040818154811859
141,373932941,0.6040236,-0.15815191,-0.77641153,-0.08560764,9.647025108337402,-0.5105908513069153,-1.8821637630462646,-0.13481244444847107,-2.4907329082489014, 0.14596039056777954
142,373949608,0.6040405,-0.15808755,-0.7764124,-0.08559962,9.648871421813965,-0.5076977610588074,-1.8866832256317139,-0.19361920654773712,-2.5396270751953125, 0.08108339458703995
143,373966275,0.6040451,-0.15825222,-0.7763555,-0.085779786,9.66135025024414,-0.5208358764648438,-1.8781746625900269,-0.34286439418792725,-2.4299280643463135, 0.08606507629156113
144,373982942,0.6040999,-0.15801995,-0.77637625,-0.085633,9.652352333068848,-0.5167771577835083,-1.8766729831695557,-0.033655088394880295,-2.432079553604126, 0.13597141206264496
145,373999609,0.6041645,-0.15782063,-0.7763789,-0.08552163,9.655797958374023,-0.4948967695236206,-1.881630539894104,-0.0174422487616539,-2.332343816757202, 0.09677118808031082
146,374016276,0.6041902,-0.15785415,-0.7763419,-0.08561433,9.653569221496582,-0.476447194814682,-1.8600354194641113,-0.4860650300979614,-2.4138433933258057, 0.06606155633926392
147,374032943,0.60417444,-0.15810665,-0.7762706,-0.085905455,9.652231216430664,-0.4989039897918701,-1.8738888502120972,-1.105303168296814,-2.517139196395874, 0.04066656157374382
148,374049610,0.6041516,-0.15824673,-0.776239,-0.086093545,9.655001640319824,-0.5097570419311523,-1.8465698957443237,-0.886493980884552,-2.7351033687591553, 0.04794057458639145
149,374066277,0.60415006,-0.15823849,-0.776235,-0.08615531,9.684724807739258,-0.5102070569992065,-1.8308199644088745,-0.44051283597946167,-2.7567591667175293, 0.003809889080002904
150,374082944,0.60412735,-0.1581486,-0.7762742,-0.08612433,9.667387962341309,-0.5156741142272949,-1.8197083473205566,-0.037625059485435486,-3.099738836288452, 0.014029355719685555
151,374099611,0.60410297,-0.15805319,-0.7763153,-0.08610176,9.672127723693848,-0.5192277431488037,-1.8303509950637817,0.18787556886672974,-3.142550468444824, -0.11611517518758774
152,374116278,0.6040736,-0.15791474,-0.776372,-0.08604923,9.670208930969238,-0.48862406611442566,-1.853339433670044,0.0032079904340207577,-3.2393789291381836, -0.12003390491008759
153,374132945,0.604032,-0.15791835,-0.7763975,-0.086104535,9.669203758239746,-0.5140842795372009,-1.8672192096710205,-0.09077140688896179,-3.22825026512146, -0.06524834781885147
154,374149612,0.6039896,-0.1579531,-0.77641493,-0.08618063,9.681943893432617,-0.5173755288124084,-1.8876315355300903,0.14022311568260193,-3.2449238300323486, -0.10191293060779572
155,374166279,0.6039748,-0.15798643,-0.776413,-0.086239964,9.6493558883667,-0.5216836333274841,-1.8839943408966064,0.6056187152862549,-3.077404499053955, -0.10481998324394226
156,374182946,0.6039577,-0.15805992,-0.7764013,-0.0863308,9.632835388183594,-0.49022719264030457,-1.8633006811141968,0.49512553215026855,-3.072115659713745, -0.07513486593961716
157,374199613,0.60398,-0.15790206,-0.77642274,-0.08627186,9.68382453918457,-0.4807930886745453,-1.8689255714416504,0.309100478887558,-2.92037296295166, -0.13957640528678894
158,374216280,0.60402524,-0.15789086,-0.7763864,-0.0863042,9.781960487365723,-0.4612618684768677,-1.884351372718811,0.4539787173271179,-2.643768787384033, -0.003304038429632783
159,374232947,0.60409874,-0.15793894,-0.7763116,-0.086373396,9.720669746398926,-0.4715871214866638,-1.905236840248108,0.31855159997940063,-2.3701095581054688, 0.13324368000030518
160,374249614,0.60420394,-0.15802173,-0.7762027,-0.08646529,9.667831420898438,-0.46756717562675476,-1.8556716442108154,0.32120248675346375,-2.0865259170532227, 0.22286251187324524
161,374266281,0.6042988,-0.1580668,-0.7761126,-0.08652848,9.646303176879883,-0.48399990797042847,-1.8204269409179688,-0.17684288322925568,-2.201155424118042, 0.3354559540748596
162,374282948,0.6043546,-0.15809846,-0.7760561,-0.08658726,9.583683967590332,-0.5376588106155396,-1.7890297174453735,-0.26625683903694153,-2.558209180831909, 0.262177973985672
163,374299615,0.60436845,-0.1580228,-0.77606606,-0.08654209,9.593893051147461,-0.570221483707428,-1.795712947845459,0.0032079906668514013,-3.0847039222717285, 0.22479628026485443
164,374316282,0.6043068,-0.15803823,-0.77610785,-0.086565934,9.590693473815918,-0.5153711438179016,-1.7965155839920044,0.42632976174354553,-3.6962196826934814, 0.0011589745990931988
165,374332949,0.60423577,-0.15809895,-0.77614576,-0.086613685,9.730405807495117,-0.47774869203567505,-1.8343744277954102,0.2543533742427826,-3.7616989612579346, 0.10236756503582001
166,374349616,0.6041906,-0.15815713,-0.776161,-0.08668462,9.73958683013916,-0.46493497490882874,-1.9084994792938232,-0.4916485548019409,-3.4843130111694336, 0.2096463441848755
167,374366283,0.6042391,-0.15804833,-0.7761511,-0.08663309,9.69802188873291,-0.5036072731018066,-1.967958927154541,-0.39813661575317383,-2.849771499633789, 0.27775052189826965
168,374382950,0.6043692,-0.15796337,-0.7760715,-0.08659452,9.656708717346191,-0.5181081891059875,-1.9802943468093872,0.3399510085582733,-2.188810110092163, 0.24318619072437286
169,374399617,0.60455453,-0.15784435,-0.77595687,-0.08654622,9.650663375854492,-0.46742334961891174,-1.9092183113098145,0.3564327657222748,-1.7348891496658325, 0.237308070063591
170,374416284,0.604747,-0.15792266,-0.7757792,-0.086650446,9.661275863647461,-0.475260853767395,-1.8845831155776978,-0.2757079005241394,-1.4643932580947876, 0.44267067313194275
171,374432951,0.6050024,-0.15785655,-0.77559006,-0.08668101,9.704477310180664,-0.4990594685077667,-1.8455359935760498,-0.7286812663078308,-0.9969743490219116, 0.45224982500076294
172,374449618,0.6052722,-0.15774854,-0.7754046,-0.08665452,9.679521560668945,-0.5028567314147949,-1.8431382179260254,-0.21157369017601013,-0.9927353262901306, 0.45450374484062195
173,374466285,0.60553116,-0.15772891,-0.77519894,-0.086719684,9.637996673583984,-0.5069878697395325,-1.7991020679473877,-0.24192479252815247,-0.9860889315605164, 0.3422689139842987
174,374482952,0.60571665,-0.15785219,-0.77501327,-0.08685872,9.607870101928711,-0.5664305090904236,-1.7783195972442627,0.2793129086494446,-1.581494688987732, 0.29612764716148376
175,374499619,0.6058414,-0.15781155,-0.7749255,-0.08684679,9.628339767456055,-0.5288780331611633,-1.7402453422546387,1.1804444789886475,-2.360837936401367, 0.06469127535820007
176,374516286,0.605908,-0.15760536,-0.77493286,-0.08669006,9.668487548828125,-0.5080593228340149,-1.7227585315704346,1.0695159435272217,-3.049614429473877, 0.07491074502468109
177,374532953,0.60591537,-0.15733664,-0.77500504,-0.0864816,9.691365242004395,-0.4754120409488678,-1.7619572877883911,0.7975730895996094,-3.6284232139587402, 0.06280875205993652
178,374549620,0.6058873,-0.15725514,-0.7750514,-0.086410046,9.710710525512695,-0.4891575276851654,-1.8285235166549683,0.3214458227157593,-3.75776743888855, 0.20387069880962372
179,374566287,0.60587656,-0.15707897,-0.7751141,-0.08624434,9.728167533874512,-0.4931623935699463,-1.8737140893936157,0.810507595539093,-3.7640814781188965, 0.21750947833061218
180,374582954,0.60588,-0.15709579,-0.7751135,-0.08619446,9.696778297424316,-0.4934081435203552,-1.8821238279342651,0.9812545776367188,-3.529071807861328, 0.39290523529052734
181,374599621,0.6059221,-0.15705213,-0.775103,-0.08607262,9.676401138305664,-0.48178955912590027,-1.8689014911651611,1.2130495309829712,-3.309173822402954, 0.5209943652153015
182,374616288,0.60601056,-0.1569378,-0.77508,-0.08586542,9.679981231689453,-0.4777889549732208,-1.8201789855957031,1.3824645280838013,-3.0341315269470215, 0.712666928768158
183,374632955,0.6060706,-0.15701902,-0.7750244,-0.085796826,9.672677040100098,-0.48308253288269043,-1.8347184658050537,1.2326174974441528,-3.118614912033081, 0.8120697736740112
184,374649622,0.6061088,-0.15712662,-0.7749829,-0.0857017,9.661667823791504,-0.5172725319862366,-1.7887356281280518,1.701483964920044,-3.3793787956237793, 0.9138292670249939
185,374666289,0.60616076,-0.15686904,-0.7750389,-0.08530043,9.651456832885742,-0.5191004276275635,-1.8068859577178955,2.136669158935547,-3.6705305576324463, 0.8951703310012817
186,374682956,0.60617054,-0.15657663,-0.77513874,-0.08485893,9.65384292602539,-0.5272127985954285,-1.7999314069747925,2.475665807723999,-4.115730285644531, 0.8062812685966492
187,374699623,0.6060946,-0.15660374,-0.77521694,-0.084638424,9.641438484191895,-0.523554801940918,-1.795697808265686,2.6786084175109863,-4.619302272796631, 0.8109685778617859
188,374716290,0.60598683,-0.15650362,-0.7753551,-0.08432753,9.660297393798828,-0.5475907921791077,-1.7947849035263062,2.6422765254974365,-5.0105485916137695, 0.7069296836853027
189,374732957,0.60584503,-0.15640633,-0.775519,-0.08401976,9.6427640914917,-0.5474045872688293,-1.8505003452301025,2.7975664138793945,-5.3245344161987305, 0.6081415414810181
190,374749624,0.6056861,-0.15621527,-0.7757211,-0.083654225,9.63469123840332,-0.528188943862915,-1.8790680170059204,2.6901464462280273,-5.5431389808654785, 0.5163456797599792
191,374766291,0.60551476,-0.15608804,-0.77591014,-0.083378576,9.642535209655762,-0.5351291298866272,-1.8690046072006226,2.2061822414398193,-5.522611618041992, 0.4144327640533447
192,374782958,0.6053449,-0.15591197,-0.7761085,-0.083095886,9.652961730957031,-0.5410563349723816,-1.8887643814086914,2.240323781967163,-5.529078483581543, 0.23378635942935944
193,374799625,0.6052181,-0.15567261,-0.7762905,-0.08276638,9.662649154663086,-0.5272282958030701,-1.9260287284851074,2.2460227012634277,-5.21954870223999, 0.2819766402244568
194,374816292,0.6051093,-0.15553969,-0.77642405,-0.08255962,9.678466796875,-0.5367041230201721,-1.9191594123840332,2.0322463512420654,-4.917972087860107, 0.1608157455921173
195,374832959,0.60505515,-0.15541334,-0.77650934,-0.08239136,9.676092147827148,-0.5185732245445251,-1.937384009361267,1.7041987180709839,-4.387250900268555, 0.15309351682662964
196,374849626,0.6050222,-0.15552264,-0.77650356,-0.08248103,9.668750762939453,-0.531414270401001,-1.9631521701812744,0.901842474937439,-3.862318754196167, 0.021559491753578186
197,374866293,0.6050342,-0.1554733,-0.7765033,-0.082489245,9.64840316772461,-0.5619402527809143,-1.9361306428909302,0.5544189214706421,-3.553288221359253, -0.06679792702198029
198,374882960,0.6050801,-0.15554504,-0.7764436,-0.08258011,9.653297424316406,-0.5628044009208679,-1.8992925882339478,0.8313049674034119,-3.1899847984313965, -0.00937424786388874
199,374899627,0.6051423,-0.15563507,-0.7763651,-0.08269154,9.661900520324707,-0.5232223868370056,-1.9060033559799194,0.9523313641548157,-3.040508985519409, -0.04473257437348366
200,374916294,0.60522014,-0.15576963,-0.77625865,-0.08286854,9.65174388885498,-0.49292007088661194,-1.8814135789871216,0.23693667352199554,-2.791963577270508, 0.004027596674859524
201,374932961,0.6053045,-0.15589152,-0.7761499,-0.083040945,9.675914764404297,-0.5327862501144409,-1.8767982721328735,-0.15965674817562103,-2.7268946170806885, 0.08699993789196014
202,374949628,0.60541683,-0.15590858,-0.7760504,-0.08312007,9.66640853881836,-0.5102200508117676,-1.902827501296997,0.0882805734872818,-2.616990327835083, 0.12340839207172394
203,374966295,0.6055585,-0.15587555,-0.77594185,-0.08316347,9.668004989624023,-0.5042116045951843,-1.9014406204223633,0.07574315369129181,-2.4113717079162598, 0.152863010764122
204,374982962,0.60570574,-0.15590532,-0.7758158,-0.08321031,9.676426887512207,-0.4877164661884308,-1.8756048679351807,0.30506646633148193,-2.38195538520813, 0.35585644841194153
205,374999629,0.60581815,-0.15620011,-0.7756439,-0.08344228,9.671003341674805,-0.5118400454521179,-1.8873473405838013,0.15391311049461365,-2.465273141860962, 0.49874964356422424
206,375016296,0.6059268,-0.15646875,-0.7754835,-0.08364035,9.636528968811035,-0.5310283303260803,-1.8576908111572266,0.17673403024673462,-2.5465428829193115, 0.554867148399353
207,375032963,0.606017,-0.15676194,-0.7753313,-0.08384872,9.636858940124512,-0.5331559181213379,-1.8738024234771729,0.32659396529197693,-2.708773612976074, 0.5455185174942017
208,375049630,0.60611236,-0.15678656,-0.77525085,-0.08385651,9.643556594848633,-0.5481910109519958,-1.8478327989578247,0.22290091216564178,-2.9000232219696045, 0.4938320219516754
209,375066297,0.6061769,-0.15690322,-0.7751703,-0.08391668,9.655261039733887,-0.5473500490188599,-1.853517770767212,0.34708407521247864,-3.1210098266601562, 0.5284091830253601
210,375082964,0.60622853,-0.15699136,-0.7751091,-0.0839451,9.678840637207031,-0.54893958568573,-1.8539847135543823,0.6340872645378113,-3.2950098514556885, 0.4840608537197113
211,375099631,0.6062959,-0.15696897,-0.7750673,-0.083886355,9.672113418579102,-0.5500492453575134,-1.8694920539855957,1.028868556022644,-3.2956883907318115, 0.39195752143859863
212,375116298,0.6063494,-0.15696798,-0.77503026,-0.08384356,9.673341751098633,-0.5304884910583496,-1.881280541419983,0.6951606273651123,-3.3813116550445557, 0.46389076113700867
213,375132965,0.6064054,-0.15693344,-0.77499753,-0.08380524,9.62630558013916,-0.548430860042572,-1.8934746980667114,0.6061180830001831,-3.355084180831909, 0.3204212486743927
214,375149632,0.6064665,-0.15695316,-0.7749463,-0.08380123,9.659656524658203,-0.5637854337692261,-1.904767632484436,0.7828841209411621,-3.2856483459472656, 0.3348924219608307
215,375166299,0.6065337,-0.15696222,-0.77489185,-0.08379934,9.64943790435791,-0.5486875176429749,-1.9234431982040405,1.0539050102233887,-3.2527999877929688, 0.20991528034210205
216,375182966,0.6066129,-0.15705024,-0.7748023,-0.083890416,9.644460678100586,-0.533315122127533,-1.9087638854980469,0.5139508843421936,-3.0113365650177, 0.20791752636432648
217,375199633,0.60672057,-0.15712823,-0.7746923,-0.08398034,9.65223503112793,-0.5099056363105774,-1.9350446462631226,0.2507803440093994,-2.7512269020080566, 0.28683021664619446
218,375216300,0.60685885,-0.15715708,-0.7745719,-0.084038414,9.652877807617188,-0.533951461315155,-1.933762550354004,0.10010082274675369,-2.5143473148345947, 0.3404887616634369
219,375232967,0.607026,-0.15703349,-0.77447367,-0.08396817,9.642778396606445,-0.531805694103241,-1.899928092956543,0.2755606472492218,-2.429633617401123, 0.3651026487350464
220,375249634,0.60719347,-0.15698254,-0.7743556,-0.08394223,9.646449089050293,-0.5170864462852478,-1.8979849815368652,0.09564422816038132,-2.366062879562378, 0.49682876467704773
221,375266301,0.60734004,-0.1571002,-0.7742022,-0.084074415,9.65803050994873,-0.5523433685302734,-1.8692227602005005,-0.4268612563610077,-2.329551935195923, 0.4822423756122589
222,375282968,0.60748523,-0.15719609,-0.7740577,-0.084177054,9.66490650177002,-0.5465167164802551,-1.8578864336013794,-0.04656388983130455,-2.4064669609069824, 0.4420432150363922
223,375299635,0.60763985,-0.15719914,-0.773934,-0.084193684,9.653925895690918,-0.5445200800895691,-1.8600339889526367,0.03209911659359932,-2.435319662094116, 0.4960859715938568
224,375316302,0.60777146,-0.15734757,-0.7737897,-0.084291585,9.673624992370605,-0.5708556175231934,-1.8596068620681763,0.5309832096099854,-2.5741660594940186, 0.5310856699943542
225,375332969,0.6079031,-0.15738766,-0.77367616,-0.08430947,9.691121101379395,-0.5540156364440918,-1.8260858058929443,0.5102626085281372,-2.6708412170410156, 0.4897724986076355
226,375349636,0.6080003,-0.15766859,-0.77352256,-0.08449399,9.676871299743652,-0.5604734420776367,-1.8269048929214478,0.7249994874000549,-2.7937564849853516, 0.5392433404922485
227,375366303,0.60812616,-0.15761775,-0.7734413,-0.08442706,9.68831729888916,-0.5508681535720825,-1.8615937232971191,0.6058363914489746,-2.837810516357422, 0.5174981951713562
228,375382970,0.608228,-0.15781449,-0.77330816,-0.08454552,9.654804229736328,-0.5519317388534546,-1.8573088645935059,0.78629070520401,-2.8419082164764404, 0.5199570059776306
229,375399637,0.60834295,-0.15791403,-0.77318823,-0.0846285,9.633864402770996,-0.5537498593330383,-1.888466715812683,0.5303429365158081,-2.7581417560577393, 0.36553800106048584
230,375416304,0.60843915,-0.15804236,-0.7730734,-0.08474689,9.643667221069336,-0.5443515181541443,-1.849609613418579,0.33710795640945435,-2.865177631378174, 0.3237253427505493
231,375432971,0.60854787,-0.15805645,-0.7729826,-0.0847681,9.656999588012695,-0.5739891529083252,-1.851447343826294,0.581286609172821,-2.8895864486694336, 0.3043877184391022
232,375449638,0.60865057,-0.15798882,-0.77291995,-0.08472865,9.663270950317383,-0.5632376670837402,-1.8610447645187378,0.9073746204376221,-3.0384347438812256, 0.1762089729309082
233,375466305,0.6087593,-0.15788245,-0.7728654,-0.08464247,9.665203094482422,-0.546532154083252,-1.8905938863754272,0.8431380391120911,-3.0408291816711426, 0.2847043573856354
234,375482972,0.6088635,-0.15782693,-0.77279764,-0.08461628,9.668201446533203,-0.5369715094566345,-1.8971567153930664,0.4741743505001068,-2.984750986099243, 0.2705917954444885
235,375499639,0.6089813,-0.15776995,-0.7727177,-0.08460482,9.675976753234863,-0.5507282614707947,-1.8793827295303345,0.19961898028850555,-2.8297934532165527, 0.2785061299800873
236,375516306,0.6091003,-0.1578257,-0.77260536,-0.08466944,9.65107536315918,-0.5530558228492737,-1.9057401418685913,0.40747883915901184,-2.7464499473571777, 0.3142358362674713
237,375532973,0.6092514,-0.15773605,-0.7725105,-0.08461565,9.65837287902832,-0.5355778336524963,-1.8904320001602173,0.3490690290927887,-2.602583169937134, 0.37787050008773804
238,375549640,0.60936654,-0.15788777,-0.7723696,-0.08478846,9.64273452758789,-0.5540091395378113,-1.8705558776855469,0.028308436274528503,-2.6239826679229736, 0.2467719316482544
239,375566307,0.60950094,-0.1577681,-0.77229065,-0.084765166,9.65428638458252,-0.5629044771194458,-1.8511459827423096,-0.10990408807992935,-2.6811883449554443, 0.1690758317708969
240,375582974,0.60961515,-0.1578477,-0.7721719,-0.08487694,9.66800594329834,-0.5448736548423767,-1.8517719507217407,0.09962700307369232,-2.7119622230529785, 0.23479802906513214
241,375599641,0.60973084,-0.15794577,-0.77204543,-0.08501436,9.662371635437012,-0.5493373274803162,-1.886958122253418,-0.161475270986557,-2.653411865234375, 0.24500468373298645
242,375616308,0.6098336,-0.15798618,-0.77194464,-0.08511836,9.661787986755371,-0.5372978448867798,-1.858827829360962,-0.45506083965301514,-2.78352427482605, 0.2256671041250229
243,375632975,0.6099207,-0.15805733,-0.77184784,-0.08523813,9.655207633972168,-0.5352185368537903,-1.8513060808181763,-0.8789640069007874,-2.8709535598754883, 0.35793110728263855
244,375649642,0.6099641,-0.15823632,-0.7717532,-0.085453026,9.659401893615723,-0.5661952495574951,-1.842098355293274,-1.152430534362793,-3.1222007274627686, 0.3223550319671631
245,375666309,0.6100192,-0.15821488,-0.7717076,-0.08551149,9.642082214355469,-0.5866407752037048,-1.8226563930511475,-0.6109908819198608,-3.2416841983795166, 0.15698662400245667
246,375682976,0.6100518,-0.15825202,-0.77166367,-0.08560625,9.665519714355469,-0.5544723868370056,-1.802306056022644,-0.19639818370342255,-3.423675537109375, 0.08123708516359329
247,375699643,0.6100738,-0.15827022,-0.77163124,-0.08570785,9.683308601379395,-0.5836474299430847,-1.8383692502975464,-0.2506330609321594,-3.506877899169922, -0.044284358620643616
248,375716310,0.61009556,-0.15826386,-0.771608,-0.08577472,9.684322357177734,-0.5673537850379944,-1.8338053226470947,0.2562998831272125,-3.58208966255188, -0.09040003269910812
249,375732977,0.6101148,-0.15818015,-0.7716134,-0.08574298,9.664559364318848,-0.5687892436981201,-1.8464382886886597,0.760217010974884,-3.757293939590454, -0.03583217039704323
250,375749644,0.6101225,-0.15817519,-0.7716069,-0.08575595,9.66404914855957,-0.5382699966430664,-1.8348697423934937,1.2498806715011597,-3.837038993835449, -0.062238872051239014
251,375766311,0.6101317,-0.1581244,-0.77160877,-0.08576752,9.656695365905762,-0.5387307405471802,-1.8669177293777466,0.8912004232406616,-3.8030638694763184, -0.17189966142177582
252,375782978,0.6101532,-0.15797716,-0.7716264,-0.085727744,9.657514572143555,-0.5478460192680359,-1.8851679563522339,0.3968111574649811,-3.722498893737793, -0.1791224181652069
253,375799645,0.6102007,-0.15788764,-0.77160865,-0.0857136,9.659940719604492,-0.5532444715499878,-1.8999598026275635,0.5261552333831787,-3.4754767417907715, -0.05004721134901047
254,375816312,0.61025345,-0.1577917,-0.77158946,-0.08568773,9.658187866210938,-0.553180456161499,-1.909165859222412,0.7431076169013977,-3.456164836883545, -0.059856876730918884
255,375832979,0.61031485,-0.15784928,-0.7715191,-0.08577665,9.65964412689209,-0.5320981740951538,-1.8967207670211792,1.1869757175445557,-3.2698962688446045, -0.09325583279132843
256,375849646,0.61038166,-0.15798756,-0.7714207,-0.08593191,9.673958778381348,-0.5210480690002441,-1.8783904314041138,0.6605579257011414,-3.1082162857055664, 0.05028412863612175
257,375866313,0.61046714,-0.15804552,-0.77132976,-0.08603526,9.664546966552734,-0.5406702756881714,-1.8616275787353516,0.28387194871902466,-2.984814167022705, 0.09542650729417801
258,375882980,0.61055535,-0.1581237,-0.77123064,-0.086154506,9.669219017028809,-0.5583281517028809,-1.8681559562683105,0.3959531784057617,-2.946894645690918, 0.0752309039235115
259,375899647,0.6106489,-0.15814365,-0.77114534,-0.08621701,9.669551849365234,-0.5536807179450989,-1.868701696395874,0.5366181135177612,-2.9776811599731445, 0.09353117644786835
260,375916314,0.6107369,-0.15821666,-0.7710483,-0.08632757,9.654451370239258,-0.5299758315086365,-1.8883612155914307,0.4871983528137207,-2.9614169597625732, 0.07853493839502335
261,375932981,0.61082804,-0.15836309,-0.7709254,-0.08651314,9.659993171691895,-0.5300132036209106,-1.8841387033462524,0.05344730615615845,-2.81559157371521, 0.11489217728376389
262,375949648,0.61090434,-0.15860663,-0.7707869,-0.086760886,9.653517723083496,-0.5431796908378601,-1.8747754096984863,0.03514702990651131,-2.863832950592041, 0.1944580376148224
263,375966315,0.6110081,-0.15861563,-0.7706979,-0.08680418,9.656586647033691,-0.5403907895088196,-1.8906612396240234,0.14403940737247467,-2.8794305324554443, 0.2576061189174652
264,375982982,0.6110944,-0.15869612,-0.7706,-0.08691907,9.656503677368164,-0.5331205725669861,-1.8747931718826294,0.08592420071363449,-2.938455104827881, 0.18270178139209747
265,375999649,0.6111887,-0.15874006,-0.7705075,-0.086995296,9.676597595214844,-0.5388495922088623,-1.8397902250289917,0.14106833934783936,-2.9166715145111084, 0.2292272299528122
266,376016316,0.6112693,-0.15879312,-0.7704247,-0.087064765,9.664712905883789,-0.5643956065177917,-1.838598608970642,0.37131378054618835,-3.0583486557006836, 0.2238486260175705
267,376032983,0.6113528,-0.15871882,-0.77037716,-0.087035716,9.685324668884277,-0.5539267063140869,-1.854021430015564,0.5018743872642517,-3.1604275703430176, 0.15574441850185394
268,376049650,0.6114181,-0.15870556,-0.770327,-0.08704657,9.664911270141602,-0.5283895134925842,-1.8670850992202759,0.7344248294830322,-3.2838680744171143, 0.13324366509914398
269,376066317,0.6114633,-0.15882033,-0.7702531,-0.087171815,9.65261459350586,-0.5562247633934021,-1.8590030670166016,0.45928049087524414,-3.298992395401001, 0.12462498247623444
270,376082984,0.6115267,-0.15882057,-0.7701994,-0.08720126,9.653215408325195,-0.5676913261413574,-1.8594478368759155,0.7995068430900574,-3.2795395851135254, 0.07329714298248291
271,376099651,0.61158156,-0.15873598,-0.7701792,-0.08714864,9.672657012939453,-0.5516132116317749,-1.8558955192565918,1.0721540451049805,-3.4685616493225098, 0.05191054195165634
272,376116318,0.61162853,-0.15862219,-0.77017456,-0.08706794,9.66471004486084,-0.5393648743629456,-1.8581571578979492,1.060718059539795,-3.5685791969299316, 0.06260384619235992
273,376132985,0.61167055,-0.15848848,-0.7701807,-0.086962365,9.6535062789917,-0.5601980686187744,-1.8739455938339233,0.9723029732704163,-3.6353771686553955, 0.1214362159371376
274,376149652,0.6116864,-0.15854885,-0.7701496,-0.08701655,9.667247772216797,-0.5613428950309753,-1.8811368942260742,1.2842273712158203,-3.685565948486328, 0.017909681424498558
275,376166319,0.6117091,-0.15848233,-0.77015024,-0.08697143,9.669845581054688,-0.5265269875526428,-1.8794540166854858,1.2642494440078735,-3.7424771785736084, -0.00320158782415092
276,376182986,0.61173487,-0.15850288,-0.7701216,-0.08700611,9.65038776397705,-0.5417351126670837,-1.899977684020996,1.1078964471817017,-3.6067800521850586, 0.0014279079623520374
277,376199653,0.6117851,-0.15844908,-0.77009994,-0.08694293,9.667794227600098,-0.5337914824485779,-1.9142978191375732,1.5278041362762451,-3.5384719371795654, 0.13467799127101898
278,376216320,0.6118311,-0.15848154,-0.7700551,-0.08695738,9.65640926361084,-0.5394591093063354,-1.9104491472244263,1.211512804031372,-3.455576181411743, 0.17561990022659302
279,376232987,0.6118946,-0.15845582,-0.77001333,-0.08692649,9.649907112121582,-0.539013683795929,-1.9177857637405396,0.976656973361969,-3.3409204483032227, 0.23951074481010437
280,376249654,0.6119641,-0.15859786,-0.769915,-0.08705032,9.652182579040527,-0.5419018864631653,-1.9048984050750732,0.632217526435852,-3.07559871673584, 0.25676092505455017
281,376266321,0.6120455,-0.15873352,-0.76980734,-0.087181635,9.658641815185547,-0.5540836453437805,-1.9184364080429077,0.4275720417499542,-2.9463443756103516, 0.2569018006324768
282,376282988,0.61215013,-0.15875284,-0.769718,-0.08720044,9.691864967346191,-0.5512505173683167,-1.9053120613098145,0.5238758325576782,-2.8836569786071777, 0.34926119446754456
283,376299655,0.6122505,-0.15886444,-0.76960427,-0.08729715,9.67102336883545,-0.545647144317627,-1.8788501024246216,0.35059306025505066,-2.812838077545166, 0.3824424743652344
284,376316322,0.6123588,-0.15887052,-0.7695161,-0.087303534,9.664639472961426,-0.5476502180099487,-1.8636177778244019,0.43013325333595276,-2.8552911281585693, 0.3822374939918518
285,376332989,0.6124558,-0.15882029,-0.76945204,-0.08728025,9.655616760253906,-0.5610411167144775,-1.8898625373840332,0.4854183495044708,-2.9917173385620117, 0.25778546929359436
286,376349656,0.61254054,-0.15880318,-0.7693873,-0.08728599,9.62922477722168,-0.5691606402397156,-1.873404622077942,0.6155948638916016,-3.0667624473571777, 0.20104049146175385
287,376366323,0.61263216,-0.15876728,-0.76932305,-0.08727572,9.659394264221191,-0.5505015254020691,-1.9006850719451904,0.6051833033561707,-3.0252184867858887, 0.21052999794483185
288,376382990,0.61270213,-0.15891828,-0.7692185,-0.08742979,9.659453392028809,-0.534603476524353,-1.9177789688110352,0.2680817246437073,-2.986133575439453, 0.224360853433609
289,376399657,0.6128074,-0.15890375,-0.76913536,-0.087450184,9.678267478942871,-0.5414690375328064,-1.8948216438293457,0.3517199754714966,-2.844264507293701, 0.22615376114845276
290,376416324,0.61290175,-0.15901709,-0.76902276,-0.08757374,9.667638778686523,-0.5452933311462402,-1.878068208694458,0.3426915407180786,-2.809828519821167, 0.2372056096792221
291,376432991,0.6130167,-0.15907669,-0.76891077,-0.08764437,9.674057960510254,-0.5508347153663635,-1.8764585256576538,0.3776400089263916,-2.694673538208008, 0.30447736382484436
292,376449658,0.613132,-0.15907393,-0.76881725,-0.08766223,9.663143157958984,-0.567039966583252,-1.896342396736145,0.4006146788597107,-2.75514554977417, 0.2992139756679535
293,376466325,0.6132436,-0.15910506,-0.7687153,-0.08771936,9.659623146057129,-0.5525338053703308,-1.8917820453643799,0.3915349543094635,-2.7356159687042236, 0.23685985803604126
294,376482992,0.61334485,-0.15921259,-0.7685986,-0.08783896,9.646489143371582,-0.5553481578826904,-1.8874412775039673,0.4294929504394531,-2.747525453567505, 0.22041647136211395
295,376499659,0.6134505,-0.15921213,-0.76851,-0.08787744,9.665122985839844,-0.5421140789985657,-1.868338942527771,0.4180568754673004,-2.8044626712799072, 0.17955143749713898
296,376516326,0.6135503,-0.15922758,-0.76842237,-0.08791929,9.649382591247559,-0.5464261770248413,-1.8624508380889893,0.36362990736961365,-2.8450844287872314, 0.23417052626609802
297,376532993,0.61364764,-0.15919405,-0.76834935,-0.08793919,9.65449047088623,-0.5641342401504517,-1.8560764789581299,0.2260768860578537,-2.8821327686309814, 0.15744765102863312
298,376549660,0.6137238,-0.15922531,-0.7682767,-0.087986514,9.652734756469727,-0.5648447275161743,-1.8744392395019531,0.4703580439090729,-3.045311689376831, 0.21237409114837646
299,376566327,0.6138181,-0.15921955,-0.76819855,-0.088020466,9.667316436767578,-0.5624677538871765,-1.8817120790481567,0.6048887372016907,-2.909064769744873, 0.115404412150383
300,376582994,0.61390555,-0.15919812,-0.76812893,-0.08805746,9.668935775756836,-0.547947108745575,-1.8739664554595947,0.7158685922622681,-2.969305992126465, -0.0057884701527655125
301,376599661,0.61398876,-0.15919377,-0.7680578,-0.088104695,9.646896362304688,-0.5337311625480652,-1.8838129043579102,0.3925338387489319,-2.9694724082946777, 0.08333732932806015
302,376616328,0.61406493,-0.15932722,-0.76795006,-0.08827245,9.640443801879883,-0.5561100244522095,-1.866980791091919,0.24336546659469604,-2.8694164752960205, 0.08751219511032104
303,376632995,0.6141651,-0.15925856,-0.767886,-0.08825675,9.669278144836426,-0.5600636601448059,-1.8763253688812256,0.47654348611831665,-2.8981409072875977, 0.12671242654323578
304,376649662,0.6142567,-0.15926518,-0.7678055,-0.08830671,9.65627670288086,-0.5625826716423035,-1.8410230875015259,0.4481261968612671,-2.887576103210449, 0.1173509880900383
305,376666329,0.6143376,-0.15923212,-0.7677453,-0.08832701,9.675551414489746,-0.5627110004425049,-1.830543875694275,0.5070098042488098,-3.0191099643707275, 0.0625782310962677
306,376682996,0.614397,-0.15934968,-0.7676568,-0.088472284,9.684699058532715,-0.568300187587738,-1.8545632362365723,0.5459796190261841,-3.052739381790161, 0.0426899716258049
307,376699663,0.6144535,-0.15935713,-0.7676065,-0.088502005,9.67249584197998,-0.561189591884613,-1.8849339485168457,0.8279623985290527,-3.2352676391601562, 0.08577051758766174
308,376716330,0.61453086,-0.15929091,-0.76756173,-0.08847247,9.650672912597656,-0.55133056640625,-1.8796123266220093,0.7002062797546387,-3.116732358932495, 0.1285565346479416
309,376732997,0.6146117,-0.15928172,-0.76749414,-0.0885143,9.652433395385742,-0.5574600696563721,-1.868991732597351,0.5082904696464539,-2.9819459915161133, 0.054190076887607574
310,376749664,0.6146956,-0.1592803,-0.767421,-0.08856815,9.666679382324219,-0.5538102984428406,-1.8760342597961426,0.4849572479724884,-2.934690237045288, 0.03823335841298103
311,376766331,0.6147788,-0.15934387,-0.76733005,-0.0886635,9.66341781616211,-0.5684935450553894,-1.8722602128982544,0.6619154214859009,-2.8977441787719727, 0.07006993889808655
312,376782998,0.6148766,-0.15931521,-0.7672576,-0.088663965,9.669707298278809,-0.5417143702507019,-1.8667051792144775,0.9496740102767944,-2.9034299850463867, 0.11172900348901749
313,376799665,0.61498135,-0.15925851,-0.7671865,-0.08865425,9.678796768188477,-0.5330706238746643,-1.8773596286773682,0.4678351581096649,-2.8227245807647705, 0.1594838798046112
314,376816332,0.6150857,-0.1592204,-0.76711017,-0.088660195,9.652423858642578,-0.5519513487815857,-1.888173222541809,0.31316009163856506,-2.793564558029175, 0.19453486800193787
315,376832999,0.6151986,-0.15913652,-0.7670402,-0.08863151,9.670034408569336,-0.5577546954154968,-1.8792093992233276,0.31036829948425293,-2.7573864459991455, 0.18158763647079468
316,376849666,0.61528695,-0.15927665,-0.7669226,-0.08878445,9.673503875732422,-0.5454455018043518,-1.8859033584594727,0.4404295086860657,-2.7514312267303467, 0.17602966725826263
317,376866333,0.61541015,-0.15920776,-0.7668408,-0.08876031,9.65375804901123,-0.5511494278907776,-1.8738439083099365,0.1638636589050293,-2.6468420028686523, 0.2756759226322174
318,376883000,0.6155324,-0.15908235,-0.76677525,-0.08870486,9.648120880126953,-0.5610422492027283,-1.8804584741592407,0.11090940237045288,-2.688091516494751, 0.19400981068611145
319,376899667,0.61563945,-0.15908076,-0.7666825,-0.08876637,9.661674499511719,-0.5652056336402893,-1.8686391115188599,0.04102513939142227,-2.665539026260376, 0.1313098967075348
320,376916334,0.61574703,-0.15905307,-0.76659894,-0.0887911,9.659567832946777,-0.547788679599762,-1.8528556823730469,0.19107715785503387,-2.7122185230255127, 0.1695624738931656
321,376933001,0.61583364,-0.15909295,-0.7665123,-0.088866994,9.66971206665039,-0.5576669573783875,-1.8445346355438232,0.03635082021355629,-2.819305181503296, 0.20969757437705994
322,376949668,0.6159362,-0.15900923,-0.76645184,-0.08882767,9.670462608337402,-0.5564398169517517,-1.8579767942428589,0.4648769199848175,-2.8488240242004395, 0.1875426024198532
323,376966335,0.6160141,-0.15912004,-0.76635015,-0.088966444,9.660440444946289,-0.5646723508834839,-1.8405314683914185,0.4846370816230774,-2.8391036987304688, 0.09020152688026428
324,376983002,0.616087,-0.15914156,-0.76627815,-0.08904288,9.670685768127441,-0.5533670783042908,-1.8717986345291138,0.41169214248657227,-2.9536564350128174, 0.021341780200600624
325,376999669,0.6161673,-0.15911359,-0.76621413,-0.08908855,9.65404224395752,-0.5581743717193604,-1.873046636581421,0.19918358325958252,-2.911139726638794, 0.012697496451437473
326,377016336,0.6162538,-0.15909384,-0.7661446,-0.08912396,9.660116195678711,-0.5799811482429504,-1.8684301376342773,0.42206525802612305,-2.8800199031829834, 0.06583104282617569
327,377033003,0.6163365,-0.15906715,-0.7660804,-0.08915099,9.660269737243652,-0.5597169399261475,-1.8449848890304565,0.6439736485481262,-2.9328973293304443, 0.02202051877975464
328,377049670,0.6163991,-0.15914136,-0.7660027,-0.08925342,9.67005729675293,-0.5247785449028015,-1.8529369831085205,0.5841808915138245,-3.0075457096099854, 0.06416621804237366
329,377066337,0.61645234,-0.15916441,-0.76594806,-0.08931261,9.663016319274902,-0.5516988039016724,-1.8361749649047852,0.41342097520828247,-3.1299612522125244, 0.0842977985739708
330,377083004,0.6165058,-0.15915753,-0.76590204,-0.08935149,9.661260604858398,-0.567927896976471,-1.8519445657730103,0.6380059719085693,-3.1653456687927246, 0.0052826195023953915
331,377099671,0.6165535,-0.15911429,-0.7658713,-0.08936292,9.650601387023926,-0.5633922219276428,-1.8559887409210205,0.7261263728141785,-3.252697467803955, -0.04639740660786629
332,377116338,0.6165995,-0.15908277,-0.7658378,-0.08938932,9.660531044006348,-0.5531156063079834,-1.8592205047607422,0.4231538474559784,-3.2266366481781006, -0.008529028855264187
333,377133005,0.61664367,-0.15908542,-0.76579535,-0.08944213,9.679792404174805,-0.5454999208450317,-1.8929888010025024,0.49184703826904297,-3.209770679473877, -0.009476698003709316
334,377149672,0.61670244,-0.15905634,-0.7657529,-0.08945232,9.651728630065918,-0.5480009317398071,-1.8702430725097656,0.6446011662483215,-3.1414103507995605, 0.05915892869234085
335,377166339,0.616766,-0.15908298,-0.7656888,-0.08951567,9.659913063049316,-0.5361838340759277,-1.8696329593658447,0.6407721638679504,-3.029047727584839, 0.04414989426732063
336,377183006,0.61683375,-0.15909044,-0.76562726,-0.0895621,9.664965629577637,-0.5311956405639648,-1.8569254875183105,0.3154396116733551,-2.9915504455566406, 0.11960490792989731
337,377199673,0.61690664,-0.1590755,-0.7655684,-0.0895905,9.669294357299805,-0.564556896686554,-1.8684492111206055,0.2669931650161743,-2.963402271270752, 0.13179655373096466
338,377216340,0.6169814,-0.15909225,-0.76549995,-0.08962932,9.677109718322754,-0.5479904413223267,-1.8534209728240967,0.6942002177238464,-2.956063985824585, 0.13453711569309235
339,377233007,0.61705714,-0.15905617,-0.76544714,-0.08962432,9.678028106689453,-0.5550522208213806,-1.854857325553894,0.6829178333282471,-3.0000669956207275, 0.1256239116191864
340,377249674,0.6171048,-0.15908104,-0.76539814,-0.08966917,9.668486595153809,-0.54271399974823,-1.8548792600631714,0.6393505930900574,-3.1749370098114014, 0.11002574861049652
341,377266341,0.617159,-0.15913159,-0.76533526,-0.08974286,9.642348289489746,-0.5738093852996826,-1.881576657295227,0.5417150855064392,-3.072960615158081, 0.10343049466609955
342,377283008,0.61720246,-0.15910955,-0.76530427,-0.089748085,9.636419296264648,-0.555762767791748,-1.8707283735275269,0.6769628524780273,-3.2591135501861572, 0.08373431116342545
343,377299675,0.61725724,-0.15911022,-0.7652586,-0.089759715,9.671161651611328,-0.5450235605239868,-1.8655532598495483,0.8255292177200317,-3.156278371810913, 0.1383533924818039
344,377316342,0.61730343,-0.15915953,-0.7652008,-0.08984646,9.676531791687012,-0.535889744758606,-1.8497666120529175,0.4418254792690277,-3.109778881072998, 0.03417374566197395
345,377333009,0.6173712,-0.15916638,-0.7651415,-0.08987515,9.690458297729492,-0.5230549573898315,-1.8595317602157593,0.36812493205070496,-2.9888737201690674, 0.19377928972244263
346,377349676,0.6174434,-0.15917656,-0.7650805,-0.08987982,9.683975219726562,-0.5437264442443848,-1.8705366849899292,0.5343001484870911,-2.9871580600738525, 0.31143122911453247
347,377366343,0.61752594,-0.15914135,-0.76502687,-0.0898317,9.658498764038086,-0.5646138191223145,-1.860697627067566,0.7026523947715759,-2.971021890640259, 0.3590964674949646
348,377383010,0.6175986,-0.15919253,-0.7649533,-0.089868166,9.648263931274414,-0.5660071969032288,-1.8619835376739502,0.9069008827209473,-2.959329843521118, 0.2596679627895355
349,377399677,0.617652,-0.15921837,-0.7649,-0.08990829,9.656656265258789,-0.5600099563598633,-1.8298226594924927,0.5434439778327942,-3.0973057746887207, 0.1615201085805893
350,377416344,0.617708,-0.15917334,-0.76486766,-0.08987847,9.665141105651855,-0.5579009652137756,-1.8478552103042603,0.822673499584198,-3.178805112838745, 0.15154394507408142
351,377433011,0.61775535,-0.15919094,-0.76482373,-0.08989614,9.660148620605469,-0.5196550488471985,-1.8695588111877441,0.5354015231132507,-3.1741435527801514, 0.2352590709924698
352,377449678,0.61779606,-0.15928018,-0.7647615,-0.08998769,9.668038368225098,-0.5753889679908752,-1.8790408372879028,0.4372151792049408,-3.1284244060516357, 0.18786272406578064
353,377466345,0.6178472,-0.15934573,-0.7647006,-0.090038754,9.658926963806152,-0.5639520883560181,-1.8889538049697876,0.8209574818611145,-3.1094071865081787, 0.22206850349903107
354,377483012,0.6179129,-0.15935515,-0.7646428,-0.09006198,9.665348052978516,-0.5430353283882141,-1.8764972686767578,0.6205637454986572,-3.0011167526245117, 0.18052472174167633
355,377499679,0.6179732,-0.15933923,-0.7645931,-0.09009787,9.657034873962402,-0.5575444102287292,-1.8886460065841675,0.24645182490348816,-3.006124258041382, 0.0693143680691719
356,377516346,0.6180287,-0.15934782,-0.7645418,-0.090137325,9.668821334838867,-0.5775042772293091,-1.8569616079330444,0.6027116775512695,-3.0613839626312256, 0.0781891793012619
357,377533013,0.6180914,-0.15932962,-0.76449406,-0.09014409,9.658825874328613,-0.565456211566925,-1.857723593711853,0.6084105372428894,-3.0378074645996094, 0.13171972334384918
358,377549680,0.61816776,-0.15921292,-0.7644652,-0.090071246,9.651013374328613,-0.5780729055404663,-1.8684110641479492,0.6784867644309998,-3.020595073699951, 0.10959034413099289
359,377566347,0.61824036,-0.15916337,-0.76441747,-0.090065554,9.656085014343262,-0.5390490293502808,-1.8659218549728394,0.6882964968681335,-2.9653103351593018, 0.05173124745488167
360,377583014,0.6182969,-0.15922311,-0.7643499,-0.09014586,9.654382705688477,-0.5326892137527466,-1.8538097143173218,0.30477190017700195,-2.9704201221466064, 0.1642734557390213
361,377599681,0.6183547,-0.15933813,-0.7642648,-0.09026675,9.671099662780762,-0.5415998101234436,-1.8599298000335693,0.1648881435394287,-2.8964760303497314, 0.2289327085018158
362,377616348,0.61843663,-0.15927282,-0.7642141,-0.09025088,9.665064811706543,-0.5674315690994263,-1.8466593027114868,0.3222781717777252,-2.8672008514404297, 0.12564949691295624
363,377633015,0.61849385,-0.15931815,-0.7641521,-0.0903034,9.668203353881836,-0.5680996775627136,-1.8710991144180298,0.643679141998291,-3.0122714042663574, 0.1759144514799118
364,377649682,0.6185686,-0.15926597,-0.7641037,-0.09029364,9.671585083007812,-0.5662045478820801,-1.8596880435943604,0.5206741690635681,-2.9283769130706787, 0.10371223092079163
365,377666349,0.6186184,-0.15931515,-0.76404434,-0.090367265,9.641573905944824,-0.5535779595375061,-1.859687089920044,0.48176851868629456,-3.033862590789795, 0.10182970017194748
366,377683016,0.61867154,-0.15929408,-0.7640048,-0.09037567,9.676295280456543,-0.5560137033462524,-1.8466668128967285,0.40637752413749695,-3.0826165676116943, 0.136637344956398
367,377699683,0.61870855,-0.15935776,-0.76395434,-0.090437144,9.69255256652832,-0.538308322429657,-1.8590742349624634,0.7990970015525818,-3.1749117374420166, 0.14156778156757355
368,377716350,0.6187757,-0.15928468,-0.7639213,-0.090383895,9.679279327392578,-0.5415573716163635,-1.8599122762680054,1.0479371547698975,-3.070488452911377, 0.10947507619857788
369,377733017,0.61880904,-0.15932652,-0.7638792,-0.090438336,9.6444091796875,-0.5577760934829712,-1.8716306686401367,0.7866749167442322,-3.209744930267334, 0.0740014910697937
370,377749684,0.61886716,-0.15930702,-0.7638334,-0.09046147,9.679070472717285,-0.5610329508781433,-1.8672945499420166,0.6130208373069763,-3.0203518867492676, 0.03197105601429939
371,377766351,0.61890805,-0.15936857,-0.7637777,-0.09054325,9.66795539855957,-0.5294685959815979,-1.8687500953674316,0.38537511229515076,-3.0786852836608887, 0.11728697270154953
372,377783018,0.6189651,-0.15932932,-0.7637422,-0.090521984,9.637187004089355,-0.5668753981590271,-1.8598819971084595,0.4844578504562378,-3.072845458984375, 0.1982230842113495
373,377799685,0.6190104,-0.1593208,-0.7637089,-0.09050771,9.664950370788574,-0.5673612952232361,-1.8569159507751465,0.9483934640884399,-3.1903817653656006, 0.18907934427261353
374,377816352,0.6190441,-0.15926905,-0.7636978,-0.09046293,9.667245864868164,-0.5802142024040222,-1.851402759552002,1.078992486000061,-3.3377444744110107, 0.10247000306844711
375,377833019,0.61905676,-0.15927753,-0.7636818,-0.09049652,9.654828071594238,-0.5327702164649963,-1.8305752277374268,0.7157788872718811,-3.3964486122131348, 0.020086759701371193
376,377849686,0.61905986,-0.15926363,-0.76367974,-0.09051614,9.657325744628906,-0.533591091632843,-1.8629571199417114,0.4062366187572479,-3.4768853187561035, 0.032227177172899246
377,377866353,0.61907065,-0.15923215,-0.7636776,-0.09051655,9.658899307250977,-0.5602514743804932,-1.8695929050445557,0.2754197418689728,-3.4250452518463135, 0.09029116481542587
378,377883020,0.619091,-0.159198,-0.7636689,-0.09051102,9.662153244018555,-0.5417040586471558,-1.897517204284668,0.8077028393745422,-3.3770341873168945, 0.011993146501481533
379,377899687,0.61913276,-0.15918827,-0.7636352,-0.090526834,9.677218437194824,-0.5399357080459595,-1.8924572467803955,0.6036208271980286,-3.1471221446990967, 0.09126445651054382
380,377916354,0.6191808,-0.15918665,-0.76359195,-0.090566464,9.661964416503906,-0.5453582406044006,-1.8768953084945679,0.5259888172149658,-3.053494691848755, 0.02999887242913246
381,377933021,0.61922914,-0.15931284,-0.76350904,-0.09071311,9.65796947479248,-0.5444769263267517,-1.8782309293746948,0.2986120581626892,-2.8973729610443115, 0.10275175422430038
382,377949688,0.6193153,-0.159283,-0.7634442,-0.09072245,9.675251960754395,-0.5609892010688782,-1.8685388565063477,0.30210819840431213,-2.7395215034484863, 0.16470886766910553
383,377966355,0.6194157,-0.15934199,-0.7633391,-0.09081756,9.678122520446777,-0.5543761849403381,-1.8875855207443237,0.29931640625,-2.5028984546661377, 0.15309350192546844
384,377983022,0.6195555,-0.15926512,-0.76325125,-0.09073681,9.628653526306152,-0.5902106761932373,-1.8979963064193726,1.2227568626403809,-2.4361393451690674, 0.3195376694202423
385,377999689,0.61970717,-0.159153,-0.7631686,-0.09059322,9.662910461425781,-0.5662392973899841,-1.8566780090332031,2.186549663543701,-2.4670917987823486, 0.3084729313850403
386,378016356,0.619953,-0.15888673,-0.76306385,-0.09026164,9.641471862792969,-0.5877106785774231,-1.8575834035873413,3.2662789821624756,-1.9479484558105469, 0.5096479058265686
387,378033023,0.6201947,-0.15871441,-0.7629322,-0.09001621,9.609539031982422,-0.535068154335022,-1.848202109336853,2.452653169631958,-1.819705843925476, 0.6548463702201843
388,378049690,0.62039036,-0.15866567,-0.76280093,-0.08986639,9.640877723693848,-0.5441951155662537,-1.8071013689041138,1.8514717817306519,-2.060208559036255, 0.7705901265144348
389,378066357,0.6205698,-0.15856887,-0.76269764,-0.089675054,9.717230796813965,-0.5773781538009644,-1.818590760231018,2.0736494064331055,-2.2666730880737305, 0.6965054273605347
390,378083024,0.6207292,-0.1584697,-0.7626134,-0.08946313,9.73180103302002,-0.5459611415863037,-1.8600645065307617,2.4547016620635986,-2.489515781402588, 0.6843520998954773
391,378099691,0.62088376,-0.15822105,-0.7625775,-0.08913534,9.672314643859863,-0.5654786825180054,-1.8706632852554321,2.5640556812286377,-2.6817779541015625, 0.5715410113334656
392,378116358,0.6214246,-0.15828168,-0.76213086,-0.089078546,9.965545654296875,-0.5260598063468933,-1.5143818855285645,-0.40369459986686707,1.230133056640625, 1.798581600189209
393,378133025,0.6229819,-0.15931971,-0.7605387,-0.08995483,9.76827621459961,-0.6116669774055481,-1.4350392818450928,-7.8239426612854,11.78540325164795, 4.557226181030273
394,378149692,0.6245875,-0.16047724,-0.7588432,-0.091075584,9.522065162658691,-0.6996005177497864,-1.7100943326950073,-10.774836540222168,12.739289283752441, 4.477840423583984
395,378166359,0.62567496,-0.16168953,-0.75754935,-0.09222976,9.582884788513184,-0.6355259418487549,-1.4786738157272339,-11.736248016357422,8.331350326538086, 3.8776700496673584
396,378183026,0.62648726,-0.16332114,-0.7563424,-0.09373494,9.652623176574707,-0.6152409911155701,-1.3462456464767456,-17.08730125427246,6.739419937133789, 4.547520637512207
397,378199693,0.6271644,-0.16559577,-0.7550081,-0.09594717,9.301820755004883,-0.6005251407623291,-1.8530293703079224,-23.37531089782715,6.9357991218566895, 4.802679061889648
398,378216360,0.6268324,-0.16689649,-0.7548396,-0.09718107,9.103804588317871,-0.7350510358810425,-2.09043550491333,-14.662027359008789,-3.78130841255188, 1.9998345375061035
399,378233027,0.62596256,-0.16747464,-0.75537026,-0.097667366,9.449773788452148,-0.5485013723373413,-1.6810240745544434,-8.261265754699707,-9.920534133911133, 0.4013960659503937
400,378249694,0.62472534,-0.16812801,-0.756178,-0.09821431,9.610515594482422,-0.5781612992286682,-1.6279270648956299,-8.602659225463867,-13.03277587890625, -0.1364261507987976
401,378266361,0.62328714,-0.16862556,-0.75720763,-0.09856652,9.719768524169922,-0.6530132293701172,-1.734165072441101,-7.1901326179504395,-15.13955307006836, -0.4330471456050873
402,378283028,0.6219008,-0.16897257,-0.7582579,-0.098655775,9.773749351501465,-0.6952127814292908,-1.8957605361938477,-3.077624559402466,-15.286723136901855, -0.4462248384952545
403,378299695,0.62070835,-0.16883188,-0.7593344,-0.098123975,9.752375602722168,-0.67680823802948,-1.962694525718689,2.0981104373931885,-14.74941635131836, -0.1575566530227661
404,378316362,0.6196724,-0.16852748,-0.7603593,-0.09725441,9.72305965423584,-0.6882548332214355,-1.9440956115722656,6.776364326477051,-14.11622142791748, 0.18932285904884338
405,378333029,0.6188154,-0.16774577,-0.761424,-0.09572205,9.689519882202148,-0.6391493678092957,-1.8585797548294067,11.708147048950195,-13.746248245239258, 0.7578228712081909
406,378349696,0.618056,-0.16691053,-0.76245165,-0.09389049,9.646286964416504,-0.3641614615917206,-1.8758292198181152,14.566389083862305,-13.448515892028809, 1.655011534690857
407,378366363,0.6173338,-0.16621372,-0.7634124,-0.09205139,9.674492835998535,-0.19427411258220673,-1.9445340633392334,13.558682441711426,-13.036240577697754, 2.6230831146240234
408,378383030,0.61658335,-0.1661013,-0.76420736,-0.09067746,9.705793380737305,-0.15758231282234192,-1.9729758501052856,9.353747367858887,-12.375185012817383, 3.718935489654541
409,378399697,0.6158851,-0.16655657,-0.76478934,-0.08967718,9.731504440307617,-0.246730238199234,-1.9611670970916748,5.373144149780273,-11.156118392944336, 5.2974467277526855
410,378416364,0.6152772,-0.16751228,-0.7651494,-0.08899532,9.77107048034668,-0.1841629147529602,-1.901536464691162,1.614004135131836,-9.691887855529785, 6.867003440856934
411,378433031,0.6147708,-0.16900183,-0.7652657,-0.08867867,9.757757186889648,-0.38457822799682617,-1.914228916168213,-2.06644606590271,-8.076584815979004, 8.368907928466797
412,378449698,0.6143712,-0.17050613,-0.76529974,-0.088273905,9.715576171875,-0.4565465748310089,-1.8988900184631348,-2.80363130569458,-7.19384241104126, 9.250408172607422
413,378466365,0.61407876,-0.17188066,-0.7653279,-0.08739439,9.720500946044922,-0.3280180096626282,-2.0747780799865723,-0.02031088061630726,-7.057057857513428, 10.736023902893066
414,378483032,0.61392397,-0.17342143,-0.76522475,-0.086333245,9.665105819702148,-0.4644101560115814,-2.150804042816162,1.5419944524765015,-6.193897724151611, 12.33464241027832
415,378499699,0.61385804,-0.17520253,-0.7650019,-0.08517358,9.576891899108887,-0.3580569326877594,-2.123591661453247,1.2270734310150146,-5.497745037078857, 14.18057918548584
416,378516366,0.61389357,-0.17696103,-0.76474094,-0.08361189,9.6069974899292,-0.7484038472175598,-2.0462188720703125,2.127591371536255,-5.153190612792969, 16.183969497680664
417,378533033,0.6139976,-0.17843083,-0.7645467,-0.081473105,9.618896484375,-1.0054371356964111,-2.0115907192230225,6.902419567108154,-5.651346683502197, 16.964086532592773
418,378549700,0.6140605,-0.17925861,-0.7646093,-0.078542575,9.427570343017578,-1.2057732343673706,-2.095886707305908,13.190826416015625,-7.498937129974365, 16.739700317382812
419,378566367,0.61403286,-0.1794181,-0.7649437,-0.07506004,9.297401428222656,-1.301572322845459,-2.2156591415405273,18.56915283203125,-9.402251243591309, 15.25684642791748
420,378583034,0.6138184,-0.1792858,-0.7654924,-0.07145046,9.317893028259277,-1.193095326423645,-2.0262291431427,20.098304748535156,-11.261113166809082, 13.951484680175781
421,378599701,0.61357266,-0.1794885,-0.76592594,-0.068338126,9.469287872314453,-1.1969647407531738,-1.8421576023101807,15.971299171447754,-10.48910140991211, 13.74167251586914
422,378616368,0.61338,-0.18025033,-0.76609904,-0.06608332,9.773876190185547,-1.5071790218353271,-1.6904981136322021,9.050724983215332,-8.318937301635742, 13.411112785339355
423,378633035,0.6130445,-0.18101832,-0.7663339,-0.06435255,9.883323669433594,-1.5539555549621582,-1.9373282194137573,6.116400718688965,-8.692560195922852, 11.085103034973145
424,378649702,0.61238694,-0.18185753,-0.7667451,-0.06334311,9.645602226257324,-1.4206959009170532,-2.0083603858947754,1.6933270692825317,-10.270095825195312, 8.05118465423584
425,378666369,0.6113089,-0.18285367,-0.7674069,-0.06287217,9.37436294555664,-1.5867561101913452,-1.9552843570709229,-2.226961374282837,-12.937662124633789, 6.111033916473389
426,378683036,0.60999966,-0.18355586,-0.7683392,-0.062150523,9.303768157958984,-1.6676806211471558,-2.455073118209839,0.15369555354118347,-15.4833402633667, 5.1663618087768555
427,378699703,0.60886925,-0.1834038,-0.76941866,-0.06030206,9.556941032409668,-1.5235849618911743,-2.5655758380889893,9.974359512329102,-16.204010009765625, 5.263178825378418
428,378716370,0.6079843,-0.18289188,-0.770413,-0.058049936,9.634162902832031,-1.3148300647735596,-2.4944992065429688,13.889793395996094,-14.901554107666016, 5.255240440368652
429,378733037,0.60717624,-0.18217428,-0.77139854,-0.055621278,9.705609321594238,-1.2235790491104126,-2.3377819061279297,15.777289390563965,-14.591605186462402, 4.947747707366943
430,378749704,0.60628986,-0.18160579,-0.7723808,-0.05347664,9.752805709838867,-1.2008147239685059,-2.2739617824554443,13.551372528076172,-14.692659378051758, 4.530925750732422
431,378766371,0.6054646,-0.18146805,-0.77316433,-0.05195227,9.543991088867188,-1.3746027946472168,-2.2778592109680176,8.46434497833252,-12.922795295715332, 4.508549690246582
432,378783038,0.60479045,-0.18160507,-0.77373254,-0.05085679,9.47961139678955,-1.3928371667861938,-2.2385005950927734,5.152054309844971,-10.785627365112305, 4.50656270980835
433,378799705,0.6040835,-0.1819183,-0.774268,-0.049983274,9.567130088806152,-1.3513720035552979,-1.9963808059692383,3.1863040924072266,-10.609002113342285, 4.550001621246338
434,378816372,0.6032504,-0.18275192,-0.7747387,-0.04970681,9.48974609375,-1.1655391454696655,-1.9156346321105957,-2.3352770805358887,-10.449063301086426, 4.878843307495117
435,378833039,0.60207015,-0.1842822,-0.77526444,-0.050166186,9.455301284790039,-1.2558190822601318,-1.769782543182373,-9.5619478225708,-11.846410751342773, 5.352566719055176
436,378849706,0.6004919,-0.18602806,-0.77602863,-0.050817925,9.270708084106445,-1.5030754804611206,-2.014103412628174,-11.902942657470703,-14.795940399169922, 5.266151428222656
437,378866373,0.5985252,-0.18726228,-0.77724516,-0.050899003,9.388099670410156,-1.3878268003463745,-2.1722002029418945,-7.086263656616211,-19.29143714904785, 4.174063205718994
438,378883040,0.5961127,-0.18824866,-0.77887017,-0.05072935,9.353105545043945,-1.117676854133606,-2.183652400970459,-5.1580376625061035,-23.59425163269043, 3.19848895072937
439,378899707,0.5932038,-0.18916163,-0.780896,-0.050286353,9.380541801452637,-1.2457629442214966,-2.2596559524536133,-3.895164728164673,-28.228069305419922, 3.2377426624298096
440,378916374,0.59008676,-0.19005321,-0.78308344,-0.049577005,9.383851051330566,-1.2055768966674805,-2.5194573402404785,-2.592283010482788,-30.347774505615234, 3.9295709133148193
441,378933041,0.5868081,-0.1910881,-0.78533584,-0.04888363,9.349881172180176,-1.3705952167510986,-2.693399667739868,-3.447571277618408,-31.509855270385742, 4.499507904052734
442,378949708,0.5833795,-0.1921415,-0.787668,-0.048264567,9.338703155517578,-1.471039056777954,-2.79477596282959,-4.093155384063721,-32.54851150512695, 4.145155429840088
443,378966375,0.57981986,-0.19321749,-0.79005945,-0.047772344,9.394852638244629,-1.4833917617797852,-2.824333667755127,-5.023746967315674,-33.33479690551758, 3.6354236602783203
444,378983042,0.57620764,-0.19438063,-0.7924347,-0.047416557,9.462868690490723,-1.2408822774887085,-2.9305965900421143,-6.187387466430664,-33.40293884277344, 3.567690372467041
445,378999709,0.5724286,-0.1959057,-0.7947909,-0.047477216,9.559098243713379,-1.1941759586334229,-2.966045379638672,-10.117740631103516,-33.798885345458984, 3.863417625427246
446,379016376,0.56847453,-0.19779505,-0.7971309,-0.047919825,9.61276626586914,-1.2722722291946411,-3.0136899948120117,-13.877886772155762,-34.297813415527344, 4.318328857421875
447,379033043,0.5643418,-0.19985428,-0.7995148,-0.048505984,9.650299072265625,-1.4951401948928833,-3.0355210304260254,-15.55593204498291,-35.312442779541016, 4.570950031280518
448,379049710,0.55996597,-0.20210814,-0.80197364,-0.049283296,9.548611640930176,-1.29542875289917,-3.161574363708496,-17.670995712280273,-36.74668884277344, 4.712693691253662
449,379066377,0.5553124,-0.20463578,-0.80449504,-0.050403025,9.509620666503906,-1.3556444644927979,-3.102372884750366,-20.97747802734375,-38.14078140258789, 4.722738265991211
450,379083044,0.5504116,-0.20712209,-0.80715823,-0.051411673,9.448832511901855,-1.5098909139633179,-3.2004122734069824,-20.503881454467773,-40.19778060913086, 4.631622791290283
451,379099711,0.5452449,-0.20946276,-0.8099944,-0.05236973,9.529940605163574,-1.5811229944229126,-3.2519140243530273,-19.990291595458984,-42.35519027709961, 3.670731544494629
452,379116378,0.539738,-0.2115711,-0.81308156,-0.053095583,9.617632865905762,-1.7566745281219482,-3.28228759765625,-18.227134704589844,-45.44927215576172, 2.758517265319824
453,379133045,0.5337829,-0.21348917,-0.8164714,-0.053598877,9.726951599121094,-1.463485836982727,-3.4506261348724365,-16.821149826049805,-49.34204864501953, 1.9101433753967285
454,379149712,0.52742666,-0.21523248,-0.820105,-0.05407222,9.64819049835205,-1.3235214948654175,-3.596456527709961,-16.510969161987305,-52.47831726074219, 0.5313859581947327
455,379166379,0.52075285,-0.21667184,-0.8239681,-0.054279953,9.654828071594238,-1.4517120122909546,-3.72064208984375,-14.294934272766113,-55.391448974609375, -0.676810622215271
456,379183046,0.5136595,-0.21767694,-0.82815295,-0.054160856,9.81109619140625,-1.6712414026260376,-3.7306628227233887,-11.393534660339355,-59.256038665771484, -2.60396146774292
457,379199713,0.5060722,-0.2181704,-0.8327163,-0.053629987,10.021980285644531,-1.335659146308899,-3.5967164039611816,-7.841917991638184,-63.84514617919922, -4.817371845245361
458,379216380,0.49785954,-0.21844243,-0.83758026,-0.053650536,11.09584903717041,-1.5334750413894653,-3.5111923217773438,-11.054678916931152,-67.58438873291016, -8.6839017868042
459,379233047,0.48916486,-0.21780007,-0.84289604,-0.052983172,11.149914741516113,-1.3556894063949585,-3.447082757949829,-4.520970821380615,-72.63629150390625, -12.450353622436523
460,379249714,0.4797633,-0.21747977,-0.8483559,-0.053123847,11.54403305053711,-0.6744241118431091,-3.224637269973755,-11.291680335998535,-76.16368103027344, -13.77216911315918
461,379266381,0.46961427,-0.21754779,-0.8539519,-0.053867392,11.902427673339844,-0.760213315486908,-2.9790616035461426,-17.15029525756836,-80.26101684570312, -13.96120834350586
462,379283048,0.45854002,-0.21824247,-0.8596584,-0.055666104,12.362855911254883,-0.4152349829673767,-2.100125789642334,-26.706356048583984,-84.76348114013672, -14.189969062805176
463,379299715,0.44627476,-0.21960716,-0.86554193,-0.058727562,12.745057106018066,-0.0418500155210495,-1.770261526107788,-37.99452209472656,-90.80228424072266, -14.924540519714355
464,379316382,0.43310055,-0.22181402,-0.87133414,-0.06324208,12.63896369934082,-0.1037408709526062,-2.1522250175476074,-50.62491226196289,-94.168701171875, -14.593666076660156
465,379333049,0.41971546,-0.2242273,-0.87684125,-0.068633795,12.449563026428223,-0.12126168608665466,-1.7728185653686523,-56.929718017578125,-93.42334747314453, -15.62686538696289
466,379349716,0.40633366,-0.22585636,-0.88223624,-0.0744373,12.013453483581543,0.15510860085487366,-1.8382501602172852,-57.18619155883789,-92.1712417602539, -21.375652313232422
467,379366383,0.39300033,-0.22603877,-0.88778186,-0.07937753,12.085101127624512,-0.5499374270439148,-2.071225166320801,-47.739776611328125,-92.9906005859375, -27.95498275756836
468,379383050,0.3802149,-0.22392479,-0.89361274,-0.08216337,12.125646591186523,-0.2264988124370575,-1.268879771232605,-27.365737915039062,-92.6054916381836, -36.3089599609375
469,379399717,0.36941046,-0.2199253,-0.8990708,-0.08270964,11.898489952087402,-0.21697279810905457,-0.188407763838768,-5.820119380950928,-81.94698333740234, -40.35041046142578
470,379416384,0.36021736,-0.21673246,-0.9034472,-0.08398694,9.27140998840332,-1.5752817392349243,-1.9125652313232422,-10.549619674682617,-68.70903778076172, -34.672115325927734
471,379433051,0.34968555,-0.21327135,-0.9085296,-0.082521394,8.54436206817627,-3.737964153289795,-8.051379203796387,5.564455509185791,-82.77488708496094, -31.388784408569336
472,379449718,0.34202212,-0.21142729,-0.9119291,-0.08188361,9.203696250915527,-3.341038227081299,-3.9771738052368164,-0.2739829421043396,-60.51032638549805, -19.221965789794922
473,379466385,0.34064502,-0.21177238,-0.9123037,-0.08255596,9.548051834106445,-4.1971821784973145,4.5668416023254395,-6.2352495193481445,-13.362360000610352, -0.6778661608695984
474,379483052,0.34428418,-0.20894548,-0.9121226,-0.07643799,6.795867443084717,0.04665122181177139,-0.57471764087677,50.727787017822266,11.17271900177002, -1.04681396484375
475,379499719,0.34982833,-0.21153872,-0.90871936,-0.08426625,8.450264930725098,2.1058740615844727,0.8972049355506897,-48.51854705810547,47.87641143798828, 5.563931465148926
476,379516386,0.35832494,-0.21857552,-0.9020686,-0.10050037,7.862982749938965,1.0433889627456665,1.2136069536209106,-109.2997055053711,83.70238494873047, 19.520828247070312
477,379533053,0.37122452,-0.22597094,-0.89277864,-0.118642755,7.9609785079956055,1.5037471055984497,0.6704150438308716,-117.22628021240234,120.05987548828125, 23.99577522277832
478,379549720,0.38787955,-0.23448394,-0.8804814,-0.13899317,8.40788745880127,1.6163506507873535,-0.17108622193336487,-130.25108337402344,153.24781799316406, 32.895694732666016
479,379566387,0.40793133,-0.2435606,-0.8654648,-0.15887439,9.017597198486328,0.8575561046600342,-1.4375170469284058,-126.03627014160156,179.72146606445312, 45.126441955566406
480,379583054,0.43115625,-0.25182432,-0.8485282,-0.1751826,9.526062965393066,-0.15073491632938385,-2.3061470985412598,-99.2828369140625,198.8578643798828, 56.92604064941406
481,379599721,0.45805284,-0.25677466,-0.8309509,-0.18378031,10.139692306518555,-0.7899466156959534,-3.493819236755371,-38.90046691894531,212.7915496826172, 65.93058013916016
482,379616388,0.48782182,-0.2577181,-0.81320447,-0.18522923,11.005578994750977,-0.15235519409179688,-4.210656642913818,19.40294075012207,222.16632080078125, 69.45570373535156
483,379633055,0.5189523,-0.25538406,-0.79516953,-0.18213493,11.513520240783691,0.9439217448234558,-4.488248825073242,57.830345153808594,226.86737060546875, 68.62960815429688
484,379649722,0.5505002,-0.2506562,-0.7762041,-0.17784326,11.799503326416016,2.0380282402038574,-4.482481956481934,72.47857666015625,233.37278747558594, 62.01853561401367
485,379666389,0.5816831,-0.24490976,-0.7557201,-0.17478845,11.878168106079102,2.545485019683838,-4.376804828643799,67.24222564697266,240.5732879638672, 54.141822814941406
486,379683056,0.6118119,-0.23970291,-0.73329085,-0.1746808,12.096951484680176,2.4140219688415527,-4.478353023529053,45.65221405029297,247.23658752441406, 47.238494873046875
487,379699723,0.64060575,-0.23515065,-0.7092943,-0.17672034,12.551955223083496,1.5151538848876953,-5.050106525421143,27.984119415283203,249.92306518554688, 42.54646301269531
488,379716390,0.6679901,-0.23029353,-0.6844908,-0.17951727,12.674936294555664,0.9713876247406006,-5.527633190155029,22.367952346801758,248.29666137695312, 37.35606002807617
489,379733057,0.69380075,-0.2244551,-0.6596095,-0.1821423,13.002949714660645,0.6101244688034058,-5.791170597076416,25.094554901123047,242.3076629638672, 31.73950958251953
490,379749724,0.71763974,-0.21679862,-0.63573873,-0.18392403,12.90426254272461,0.09414519369602203,-6.378711700439453,35.81795883178711,229.65696716308594, 23.51767921447754
491,379766391,0.73925513,-0.2067026,-0.6140443,-0.1836455,12.360893249511719,-0.7123066186904907,-6.851248264312744,56.30245590209961,209.36805725097656, 16.992664337158203
492,379783058,0.7585476,-0.19390824,-0.59543765,-0.1801647,11.62064266204834,-1.071790099143982,-7.069314479827881,84.14811706542969,182.88919067382812, 14.581604957580566
493,379799725,0.7745008,-0.18119939,-0.5801335,-0.17538758,10.319568634033203,-0.6625495553016663,-7.805931091308594,88.6557846069336,150.3313446044922, 13.175115585327148
494,379816392,0.78624487,-0.17041911,-0.5687763,-0.17108472,9.247261047363281,-0.7004687190055847,-8.144804000854492,76.01643371582031,110.96505737304688, 8.369298934936523
495,379833059,0.79388654,-0.16133083,-0.56180954,-0.16759077,8.507885932922363,-0.2042054831981659,-7.821375370025635,64.07450103759766,70.32193756103516, 0.6546878218650818
496,379849726,0.7971941,-0.15676117,-0.55878085,-0.16634777,7.813872814178467,0.12283208966255188,-7.685644149780273,30.45601463317871,29.537689208984375, -3.530797004699707
497,379866393,0.7964347,-0.15798089,-0.5592044,-0.16740543,7.695952892303467,-0.6496259570121765,-7.4180827140808105,-10.540388107299805,-8.999616622924805, -2.2660467624664307
498,379883060,0.79262793,-0.16162767,-0.5631841,-0.16864578,7.779241561889648,-1.556031584739685,-7.030860424041748,-23.738048553466797,-42.6469841003418, -1.3129948377609253
499,379899727,0.7868714,-0.1647134,-0.57030064,-0.16870216,8.097627639770508,-1.8063502311706543,-6.17671537399292,-14.610590934753418,-67.83406066894531, -2.7948670387268066
500,379916394,0.77990425,-0.1703317,-0.57790744,-0.16958693,9.881688117980957,-3.334461212158203,-0.9637223482131958,-32.351226806640625,-77.12879943847656, 0.6779783964157104
501,379933061,0.77538174,-0.17768833,-0.58188504,-0.169174,12.179520606994629,-9.863266944885254,9.052143096923828,-37.87202072143555,-51.45479202270508, 21.61580467224121
502,379949728,0.77175254,-0.16825658,-0.592234,-0.15920796,10.516435623168945,0.12819159030914307,-0.03359473496675491,98.37216186523438,-74.04889678955078, -1.4522408246994019
503,379966395,0.76438046,-0.1656297,-0.60373104,-0.15426764,14.106505393981934,1.9603171348571777,1.5096197128295898,38.720882415771484,-96.98230743408203, -5.820223808288574
504,379983062,0.7554875,-0.16537267,-0.6155356,-0.15167965,12.228191375732422,2.8324649333953857,1.2358967065811157,15.0882568359375,-104.72430419921875, -10.276058197021484
505,379999729,0.7459119,-0.1680956,-0.6268262,-0.14982982,10.683712005615234,0.39607682824134827,0.6724585890769958,-4.8347601890563965,-107.1954345703125, -1.589985728263855
506,380016396,0.73678714,-0.17200822,-0.6369085,-0.14800647,9.13576889038086,0.28931450843811035,-0.5873433351516724,-11.775349617004395,-100.23538970947266, 5.272813320159912
507,380033063,0.72808784,-0.17653157,-0.6457808,-0.14728314,9.894587516784668,-1.1466641426086426,-1.5466433763504028,-20.413965225219727,-91.54425811767578, 4.246352195739746
508,380049730,0.72039574,-0.17848699,-0.6545291,-0.14410004,10.705479621887207,-2.186110734939575,-2.338841676712036,4.46171760559082,-86.81102752685547, 6.323618412017822
509,380066397,0.7133625,-0.17889899,-0.6628913,-0.14030224,10.513052940368652,0.4788845479488373,-1.3853274583816528,15.30147647857666,-81.13151550292969, 3.5361552238464355
510,380083064,0.70607734,-0.18170631,-0.6702925,-0.13836932,10.125748634338379,-1.4261772632598877,-1.8950693607330322,-6.182807922363281,-77.56780242919922, 6.255734920501709
511,380099731,0.6993543,-0.18330714,-0.6775678,-0.13492446,10.14897346496582,-1.13142991065979,-1.6552648544311523,7.225496768951416,-75.09058380126953, 8.721923828125
512,380116398,0.69314003,-0.1843639,-0.68437994,-0.13111688,10.296812057495117,-1.0429059267044067,-0.8763132095336914,11.743515014648438,-70.43555450439453, 8.983709335327148
513,380133065,0.6874849,-0.1846792,-0.6908005,-0.12670283,10.205768585205078,-0.5952228307723999,-0.8797425627708435,18.488101959228516,-66.03582000732422, 9.383684158325195
514,380149732,0.68199277,-0.18571858,-0.69655883,-0.12329317,10.459879875183105,-0.4410051703453064,-0.9141135215759277,9.923887252807617,-61.48648452758789, 9.059460639953613
515,380166399,0.67682385,-0.18716283,-0.701674,-0.12055751,10.219311714172363,-0.7855952382087708,-1.3400696516036987,4.664978504180908,-56.40589904785156, 8.936816215515137
516,380183066,0.67216545,-0.18857954,-0.70618254,-0.11806202,10.179681777954102,-1.0135294198989868,-1.500293254852295,3.788877248764038,-50.78681564331055, 8.890579223632812
517,380199733,0.6681223,-0.18969636,-0.71015966,-0.115334496,10.07008171081543,-1.193483829498291,-1.582313060760498,6.668977737426758,-45.399959564208984, 9.694385528564453
518,380216400,0.6647799,-0.18993913,-0.7137635,-0.11195244,9.964174270629883,-1.313957691192627,-1.6176365613937378,14.496967315673828,-40.42449951171875, 9.474156379699707
519,380233067,0.6619673,-0.18946618,-0.71709484,-0.10806458,9.963665008544922,-1.217436671257019,-1.3180346488952637,20.254262924194336,-36.641700744628906, 9.081868171691895
520,380249734,0.65941733,-0.18870191,-0.7202416,-0.1039872,9.863694190979004,-0.9399089217185974,-1.1384267807006836,22.593610763549805,-34.52603530883789, 8.959731101989746
521,380266401,0.6567636,-0.18867368,-0.7231139,-0.100851744,9.830385208129883,-0.88506680727005,-1.0043030977249146,14.114757537841797,-33.08615493774414, 8.638890266418457
522,380283068,0.6538486,-0.18906844,-0.72596383,-0.09855386,9.720611572265625,-0.8252506256103516,-1.0155351161956787,8.433919906616211,-33.575016021728516, 6.722664833068848
523,380299735,0.65050715,-0.19004631,-0.72888285,-0.097229205,9.695934295654297,-0.7839044332504272,-0.8877109885215759,0.44738540053367615,-35.149139404296875, 4.881078720092773
524,380316402,0.64679855,-0.1910827,-0.73204976,-0.09614159,9.660099983215332,-0.9425266981124878,-0.9106132388114929,-1.3170499801635742,-37.83392333984375, 3.5467169284820557
525,380333069,0.6426851,-0.19236942,-0.7354201,-0.09543707,9.51849365234375,-1.1567515134811401,-1.0278390645980835,-4.756100654602051,-40.44441604614258, 2.568962574005127
526,380349736,0.63827,-0.19318596,-0.73918617,-0.09431477,9.408271789550781,-1.3695852756500244,-1.1053069829940796,-0.7059420943260193,-43.96712875366211, 1.3163801431655884
527,380366403,0.6334634,-0.19363543,-0.74335486,-0.0930266,9.439931869506836,-1.4052764177322388,-1.1732081174850464,1.4880521297454834,-47.711936950683594, -0.6111623048782349
528,380383070,0.6282171,-0.19368725,-0.7479677,-0.0915086,9.441473007202148,-1.239279866218567,-1.3783601522445679,4.092519283294678,-51.94929885864258, -2.516535520553589
529,380399737,0.6224453,-0.19365732,-0.7529603,-0.09005713,9.432700157165527,-1.077489972114563,-1.4088386297225952,3.641648054122925,-56.1562385559082, -4.060248374938965
530,380416404,0.61618674,-0.19334263,-0.75838345,-0.08825047,9.495152473449707,-1.012546420097351,-1.7027883529663086,6.317206382751465,-60.819549560546875, -4.8895039558410645
531,380433071,0.60953563,-0.19272815,-0.76416427,-0.085883826,9.463233947753906,-0.9303649663925171,-1.9581406116485596,10.202033042907715,-64.94817352294922, -4.793374538421631
532,380449738,0.6025853,-0.1922609,-0.7700386,-0.083475254,9.59685230255127,-0.8346872925758362,-2.194427728652954,9.463592529296875,-67.05726623535156, -4.143715858459473
533,380466405,0.5954852,-0.19213906,-0.77580535,-0.081283145,9.689687728881836,-0.9984412789344788,-2.496389627456665,6.627206802368164,-67.31866455078125, -3.1540496349334717
534,380483072,0.58836234,-0.19241911,-0.7813428,-0.07942892,9.608160018920898,-0.8938778042793274,-2.784670829772949,3.020699977874756,-66.28106689453125, -2.10288667678833
535,380499739,0.58132005,-0.19300663,-0.78661424,-0.0778117,9.603224754333496,-0.9635164737701416,-3.1051061153411865,0.46533194184303284,-64.6275405883789, -1.0130996704101562
536,380516406,0.57438916,-0.19368039,-0.7916592,-0.076430365,9.753235816955566,-0.9656923413276672,-3.1042943000793457,-1.1289724111557007,-62.853614807128906, -1.1289340257644653
537,380533073,0.5676053,-0.19371112,-0.7967106,-0.074520715,9.806478500366211,-1.6070120334625244,-3.114126205444336,4.485800266265869,-62.44672775268555, -2.473388910293579
538,380549740,0.5607003,-0.19294995,-0.80197525,-0.07226483,9.75013542175293,-1.7734956741333008,-2.8724730014801025,9.419869422912598,-64.0000228881836, -5.807470798492432
539,380566407,0.5533034,-0.19174749,-0.80757123,-0.07012936,9.887121200561523,-2.118600845336914,-2.7139174938201904,9.967726707458496,-67.61479949951172, -9.391322135925293
540,380583074,0.54508764,-0.19044304,-0.8135688,-0.06868529,10.384788513183594,-1.7346601486206055,-2.447894811630249,5.628993034362793,-72.73307037353516, -13.515084266662598
541,380599741,0.535802,-0.18948352,-0.81998444,-0.06810868,10.98323917388916,-1.3623820543289185,-2.4412479400634766,-1.7208415269851685,-79.31796264648438, -15.890766143798828
542,380616408,0.52540684,-0.18876517,-0.82684267,-0.06817348,11.154643058776855,-0.7225597500801086,-3.0629286766052246,-7.464694023132324,-86.4893798828125, -17.990497589111328
543,380633075,0.51403517,-0.18828933,-0.8339999,-0.06899351,11.570574760437012,-0.5304463505744934,-2.838254451751709,-13.761595726013184,-92.26215362548828, -20.183931350708008
544,380649742,0.501747,-0.18736649,-0.84158874,-0.069805995,12.852027893066406,-0.8081285953521729,-2.723555326461792,-13.119848251342773,-98.84850311279297, -23.71190071105957
545,380666409,0.4883073,-0.18572439,-0.8497931,-0.07010596,13.802264213562012,-0.7911246418952942,-2.0386953353881836,-8.860847473144531,-107.96318054199219, -27.450336456298828
546,380683076,0.47307912,-0.18392359,-0.85872376,-0.07044737,15.269414901733398,-0.848388135433197,-0.7054153084754944,-10.504395484924316,-120.73875427246094, -30.305086135864258
547,380699743,0.45581767,-0.18246369,-0.86830455,-0.070605464,16.623397827148438,-0.6027328372001648,0.20270243287086487,-12.787652015686035,-135.2803192138672, -29.50198745727539
548,380716410,0.43665805,-0.18258862,-0.877861,-0.073156185,17.11836814880371,0.17401839792728424,1.2195947170257568,-34.43279266357422,-144.33460998535156, -28.429780960083008
549,380733077,0.4161498,-0.18513921,-0.88665366,-0.07993226,17.066116333007812,0.10553503036499023,1.844191551208496,-69.29661560058594,-146.13111877441406, -26.193218231201172
550,380749744,0.39527953,-0.18942368,-0.89421594,-0.09083852,14.85423469543457,-0.14996455609798431,1.0796209573745728,-100.57485961914062,-140.5484161376953, -26.076431274414062
551,380766411,0.37539914,-0.1927661,-0.90092736,-0.10123115,12.043550491333008,-0.5094371438026428,-2.064019203186035,-94.09561920166016,-132.25479125976562, -28.751522064208984
552,380783078,0.35862565,-0.19518852,-0.9060542,-0.11115727,11.35095500946045,-1.1988710165023804,-1.1642324924468994,-85.8134536743164,-108.90644836425781, -28.990116119384766
553,380799745,0.3480444,-0.19607738,-0.90897864,-0.11906915,10.140422821044922,-0.04268702492117882,1.3195886611938477,-62.85596466064453,-66.44166564941406, -25.895814895629883
554,380816412,0.3369985,-0.19779305,-0.9111481,-0.1308434,5.031278610229492,-1.331032633781433,-8.034493446350098,-90.21678924560547,-63.02598190307617, -29.34092903137207
555,380833079,0.32931644,-0.20221615,-0.91035455,-0.14803666,5.257615566253662,-4.591930866241455,-6.629144668579102,-128.5363311767578,-30.137479782104492, -17.890666961669922
556,380849746,0.33201447,-0.2105685,-0.90544873,-0.15997177,8.996917724609375,-11.928617477416992,6.719358921051025,-94.2845230102539,32.848052978515625, 34.87638473510742
557,380866413,0.34743437,-0.20199172,-0.90607655,-0.13234337,3.8496475219726562,-3.887624979019165,-0.28520745038986206,215.17691040039062,60.73795700073242, 25.76190185546875
558,380883080,0.36512706,-0.19487287,-0.90322846,-0.11351565,7.36796760559082,3.4087650775909424,-0.5402842164039612,156.83706665039062,94.0909423828125, 20.719955444335938
559,380899747,0.38361144,-0.19757661,-0.8949405,-0.113526314,8.518453598022461,4.732120037078857,-0.8108829259872437,11.997767448425293,130.22842407226562, 42.346954345703125
560,380916414,0.4033785,-0.20532358,-0.8827307,-0.12615673,8.749576568603516,2.5007219314575195,-0.24506345391273499,-80.27305603027344,161.67648315429688, 46.43266296386719
561,380933081,0.42595762,-0.21269822,-0.8684896,-0.13800818,8.038629531860352,0.894869863986969,-1.3854765892028809,-72.30140686035156,183.60023498535156, 51.641231536865234
562,380949748,0.45135668,-0.21931568,-0.85222864,-0.14793594,8.602567672729492,1.4820246696472168,-1.9821467399597168,-56.38726806640625,204.2657928466797, 58.38190460205078
563,380966415,0.47884908,-0.22498922,-0.83420897,-0.1554985,9.55152702331543,0.0982370376586914,-2.913060426712036,-38.2278938293457,219.38917541503906, 64.97369384765625
564,380983082,0.5085821,-0.22743048,-0.81548285,-0.15687087,9.91786003112793,-0.5233042240142822,-3.4958901405334473,10.63767147064209,228.45228576660156, 70.30310821533203
565,380999749,0.5402092,-0.2262329,-0.7959232,-0.15329674,10.34545612335205,-0.12263067066669464,-3.817019462585449,53.166465759277344,238.18777465820312, 70.54623413085938
566,381016416,0.5729353,-0.2229895,-0.7747804,-0.1474349,11.238672256469727,0.37434396147727966,-3.9736876487731934,73.3306655883789,248.6942901611328, 71.474853515625
567,381033083,0.6058938,-0.21871977,-0.75181013,-0.1408434,12.133291244506836,0.640166163444519,-3.91621470451355,79.7679672241211,257.06634521484375, 71.92774963378906
568,381049750,0.6384593,-0.21340376,-0.72715694,-0.1344321,13.10600471496582,1.2083756923675537,-3.984083890914917,80.97484588623047,263.3421936035156, 67.92720794677734
569,381066417,0.66944724,-0.20870279,-0.70081365,-0.13093765,14.27430534362793,2.1122372150421143,-3.7896478176116943,59.81050491333008,266.5942077636719, 59.22663497924805
570,381083084,0.69761586,-0.20702554,-0.6730434,-0.13223417,14.50583267211914,1.5814831256866455,-3.906461477279663,17.46611785888672,263.738525390625, 51.262149810791016
571,381099751,0.72303486,-0.20634681,-0.64531404,-0.1349535,14.469398498535156,0.28172755241394043,-4.431384086608887,2.2123541831970215,251.9417266845703, 46.50627136230469
572,381116418,0.74591786,-0.2041473,-0.61909676,-0.13656704,13.985694885253906,-0.3305138051509857,-4.8247175216674805,12.484390258789062,233.02586364746094, 40.759910583496094
573,381133085,0.76637584,-0.19841951,-0.59558785,-0.13628615,13.295126914978027,0.3491407632827759,-4.871487617492676,37.789485931396484,209.4788055419922, 29.37994384765625
574,381149752,0.7829609,-0.19084994,-0.5761636,-0.13632755,11.452109336853027,0.17279428243637085,-5.212231159210205,44.7171745300293,174.2746124267578, 10.940994262695312
575,381166419,0.79667455,-0.18022199,-0.561268,-0.13345088,9.638932228088379,0.3187594711780548,-6.360154628753662,73.22156524658203,137.57798767089844, 5.906006813049316
576,381183086,0.8064307,-0.17396939,-0.54969025,-0.13132323,8.837385177612305,1.7567695379257202,-5.893111228942871,44.50236892700195,101.06791687011719, 10.94924545288086
577,381199753,0.8116434,-0.17478877,-0.54138595,-0.13261184,8.265558242797852,0.2092670053243637,-6.273951530456543,-10.098905563354492,63.470611572265625, 10.72457504272461
578,381216420,0.8138561,-0.17503993,-0.53764504,-0.13393196,8.012412071228027,-0.4880819618701935,-6.350769996643066,-6.487035274505615,27.42034339904785, 0.2169465571641922
579,381233087,0.8135289,-0.17561811,-0.5375506,-0.13553278,7.8541717529296875,-0.3566102087497711,-5.749279975891113,-9.050148010253906,-2.3109323978424072, -6.871045112609863
580,381249754,0.8105621,-0.1806825,-0.53952485,-0.13876979,8.22766399383545,-1.4279718399047852,-5.151228427886963,-41.446372985839844,-25.81938362121582, -4.398980140686035
581,381266421,0.80560213,-0.18804185,-0.5436208,-0.14185588,8.156877517700195,-2.693047046661377,-5.054824352264404,-54.12445068359375,-47.39567947387695, 0.4170912504196167
582,381283088,0.7994655,-0.19462174,-0.54995847,-0.14326146,8.149051666259766,-3.24293851852417,-4.488907814025879,-42.855987548828125,-65.60408020019531, 2.7633047103881836
583,381299755,0.79235256,-0.20183015,-0.5575082,-0.14362334,9.454866409301758,-5.04482364654541,-2.720033884048462,-42.47182083129883,-77.95822143554688, 8.2879056930542
584,381316422,0.7857573,-0.20811635,-0.56534195,-0.14022334,9.982337951660156,-10.784966468811035,1.1190179586410522,-22.02374839782715,-81.81983947753906, 25.355918884277344
585,381333089,0.7815506,-0.19800097,-0.5775384,-0.1281588,12.671603202819824,-1.0205522775650024,3.96283221244812,107.90087890625,-92.6935043334961, 4.447584629058838
586,381349756,0.7756774,-0.18583712,-0.5914993,-0.11797697,13.594005584716797,4.765186786651611,1.8549137115478516,110.71712493896484,-104.43147277832031, -17.67508316040039
587,381366423,0.7670074,-0.17973149,-0.6056673,-0.11208995,13.666976928710938,5.985507965087891,1.8081474304199219,57.52631378173828,-116.33319091796875, -18.459318161010742
588,381383090,0.75644225,-0.18204357,-0.61856383,-0.10970433,11.82787799835205,1.6279401779174805,1.2585428953170776,-4.774448871612549,-119.6806411743164, -1.7402915954589844
589,381399757,0.7456251,-0.1876165,-0.6301301,-0.10853804,9.635942459106445,-0.9956588745117188,-0.5930260419845581,-28.23910140991211,-114.7671890258789, 7.26951789855957
590,381416424,0.73512423,-0.19336148,-0.6406528,-0.108482875,9.71070671081543,-3.0140457153320312,-1.467624545097351,-34.304466247558594,-106.73942565917969, 3.9012367725372314
591,381433091,0.72572327,-0.19476813,-0.651335,-0.10561558,9.831928253173828,-4.031584739685059,-3.001272678375244,1.5940725803375244,-103.19931030273438, -0.3910565972328186
592,381449758,0.7160455,-0.19434606,-0.66280454,-0.10099402,10.742655754089355,-2.9835386276245117,-5.007092475891113,18.777658462524414,-109.38334655761719, -1.0911868810653687
593,381466425,0.70670146,-0.19511484,-0.6728684,-0.098754324,10.368447303771973,-0.3774416148662567,-1.2450090646743774,1.5318905115127563,-98.57410430908203, -5.285221099853516
594,381483092,0.6983937,-0.19376007,-0.6825868,-0.09369998,10.30482292175293,-0.7276302576065063,-1.2669869661331177,26.02721405029297,-94.43475341796875, -0.26442161202430725
595,381499759,0.6911297,-0.19326565,-0.69078326,-0.08836047,10.960736274719238,0.21131186187267303,-0.885400116443634,23.64491844177246,-83.16256713867188, 7.842861175537109
596,381516426,0.68410313,-0.1964433,-0.69714075,-0.086072296,10.91533374786377,0.16029193997383118,-1.2655128240585327,-9.09776496887207,-71.47309112548828, 13.375161170959473
597,381533093,0.67745876,-0.2024341,-0.70182806,-0.086651064,10.636162757873535,-1.419751763343811,-1.6233527660369873,-36.54315948486328,-59.58052062988281, 15.86079216003418
598,381549760,0.6716289,-0.20859642,-0.70541424,-0.08828333,10.068014144897461,-2.024918556213379,-1.8739328384399414,-41.94744873046875,-49.159523010253906, 13.800137519836426
599,381566427,0.6662076,-0.2145425,-0.70846015,-0.09068747,9.859538078308105,-1.6969376802444458,-1.7657203674316406,-44.43394470214844,-43.44483184814453, 10.209090232849121
600,381583094,0.6609841,-0.21983916,-0.7114026,-0.09315603,9.839662551879883,-2.1072750091552734,-1.4026944637298584,-41.5459098815918,-41.509193420410156, 7.027257919311523
601,381599761,0.6561702,-0.22363035,-0.7145081,-0.09438876,9.78087043762207,-2.0238137245178223,-1.5892091989517212,-27.935834884643555,-41.15386962890625, 5.29441499710083
602,381616428,0.65152496,-0.2269669,-0.7175468,-0.09554346,9.571073532104492,-1.8536195755004883,-1.4006919860839844,-25.285568237304688,-39.85092544555664, 3.624232053756714
603,381633095,0.6466862,-0.2305857,-0.7205328,-0.097266376,9.524412155151367,-1.6891968250274658,-1.5045918226242065,-29.69045066833496,-39.870113372802734, 2.4260494709014893
604,381649762,0.6418164,-0.23469031,-0.723226,-0.09968634,9.365928649902344,-1.9980432987213135,-1.3060853481292725,-35.54922866821289,-37.947021484375, 2.1757619380950928
605,381666429,0.6369185,-0.23849477,-0.725987,-0.101975046,9.322758674621582,-1.7987159490585327,-1.5757935047149658,-33.57155990600586,-38.395668029785156, 1.1335835456848145
606,381683096,0.6320602,-0.2416328,-0.7289592,-0.103598475,9.30322551727295,-1.5114134550094604,-1.7029826641082764,-27.119855880737305,-39.748802185058594, 0.4012453854084015
607,381699763,0.62697375,-0.2444913,-0.7321966,-0.104961365,9.32251262664795,-1.401157021522522,-1.7466213703155518,-24.789793014526367,-42.28327178955078, -0.4711111783981323
608,381716430,0.6216511,-0.24711181,-0.73568773,-0.10606732,9.318225860595703,-1.4466842412948608,-1.7194421291351318,-22.684768676757812,-44.82811737060547, -1.1580884456634521
609,381733097,0.6160456,-0.24954173,-0.7394392,-0.1069922,9.277565002441406,-1.6931381225585938,-1.7433385848999023,-21.24550437927246,-47.54363250732422, -1.9970284700393677
610,381749764,0.6101666,-0.2516334,-0.7434959,-0.10766695,9.363290786743164,-1.8208616971969604,-1.8175673484802246,-18.78691291809082,-50.41068649291992, -3.382831573486328
611,381766431,0.60406107,-0.25325683,-0.7478946,-0.10782401,9.510493278503418,-1.7726483345031738,-1.952139973640442,-14.31549072265625,-53.55644226074219, -4.365565776824951
612,381783098,0.59763443,-0.2547536,-0.75255734,-0.10766649,9.539471626281738,-1.5816447734832764,-2.065122127532959,-12.536898612976074,-56.760650634765625, -4.408689498901367
613,381799765,0.5910041,-0.25601268,-0.75744385,-0.10701102,9.305468559265137,-1.6284363269805908,-2.5144474506378174,-9.174445152282715,-59.434635162353516, -4.136299133300781
614,381816432,0.5842765,-0.2569012,-0.7625119,-0.105826765,9.290167808532715,-1.333403468132019,-2.7373318672180176,-4.953306198120117,-61.33988571166992, -4.309598922729492
615,381833099,0.5774948,-0.25746855,-0.76771325,-0.10405485,9.05681324005127,-1.3660026788711548,-2.982757806777954,-0.581083357334137,-62.965362548828125, -3.908053398132324
616,381849766,0.5707019,-0.25750262,-0.7731043,-0.10150041,8.975278854370117,-1.320469617843628,-3.1014153957366943,5.7822113037109375,-64.78361511230469, -3.9605765342712402
617,381866433,0.56390774,-0.2569356,-0.7786893,-0.09816365,9.27842903137207,-1.2143276929855347,-3.149071216583252,12.431766510009766,-66.51806640625, -4.430147171020508
618,381883100,0.55691147,-0.25622556,-0.78435576,-0.09479022,9.424490928649902,-0.9818942546844482,-3.266282081604004,12.880465507507324,-67.88611602783203, -5.334370136260986
619,381899767,0.5495722,-0.25546348,-0.79011536,-0.09180072,9.529009819030762,-1.487616777420044,-3.2681751251220703,10.466076850891113,-69.38525390625, -7.472521781921387
620,381916434,0.54203844,-0.2540581,-0.7961316,-0.08845465,9.584504127502441,-2.1174678802490234,-3.305436849594116,14.653199195861816,-71.63528442382812, -10.193538665771484
621,381933101,0.5341417,-0.2525432,-0.8022658,-0.08535224,9.817886352539062,-2.118169069290161,-3.238617181777954,13.163971900939941,-73.5721664428711, -12.130496978759766
622,381949768,0.52559215,-0.2515468,-0.80841255,-0.083350144,10.223474502563477,-1.815877914428711,-3.2963240146636963,4.063354015350342,-75.61710357666016, -13.718307495117188
623,381966435,0.51637447,-0.25094467,-0.8146342,-0.08219523,10.616507530212402,-1.2379223108291626,-3.449003219604492,-3.1842293739318848,-78.36819458007812, -15.101984024047852
624,381983102,0.5065418,-0.25014594,-0.8211581,-0.08088661,10.806530952453613,-0.7349262237548828,-3.6219732761383057,-2.516345262527466,-83.04528045654297, -16.52568244934082
625,381999769,0.49613044,-0.24878663,-0.82810825,-0.07872435,11.046506881713867,-0.6760628819465637,-3.4695868492126465,3.497790813446045,-88.95849609375, -17.770963668823242
626,382016436,0.48504582,-0.24698865,-0.8354496,-0.075843945,11.243978500366211,-0.8217635154724121,-3.1388158798217773,8.143181800842285,-95.12439727783203, -18.850881576538086
627,382033103,0.47304544,-0.24537392,-0.8429765,-0.07356067,12.123130798339844,-0.8034883737564087,-2.852764129638672,2.6434624195098877,-100.09492492675781, -20.581432342529297
628,382049770,0.45997405,-0.24387202,-0.850694,-0.07259993,13.064545631408691,-0.9014397263526917,-3.1058149337768555,-7.099618911743164,-104.75885772705078, -25.09140968322754
629,382066437,0.44600746,-0.24253558,-0.8584366,-0.07308531,13.028888702392578,-0.3568084239959717,-2.4235546588897705,-17.569795608520508,-107.74502563476562, -29.18393325805664
630,382083104,0.43141508,-0.24194178,-0.86584526,-0.075220466,13.281739234924316,-0.4130480885505676,-1.82007896900177,-30.795408248901367,-108.05103302001953, -29.61615753173828
631,382099771,0.41647136,-0.24184969,-0.872868,-0.07850218,13.873513221740723,-0.08706925809383392,-1.5917036533355713,-39.893348693847656,-107.3675765991211, -29.56907844543457
632,382116438,0.40131605,-0.2413861,-0.87968004,-0.082716554,14.497420310974121,0.6787211894989014,-0.7632764577865601,-44.8916015625,-106.30218505859375, -34.23221206665039
633,382133105,0.38608006,-0.23974764,-0.88653374,-0.086729705,14.444619178771973,0.28122764825820923,-1.1529438495635986,-40.540252685546875,-106.59253692626953, -40.896705627441406
634,382149772,0.37098265,-0.23710392,-0.89325595,-0.09082019,14.433724403381348,-0.4235284626483917,0.09042090177536011,-38.19093322753906,-104.69416809082031, -46.930076599121094
635,382166439,0.35741928,-0.23255049,-0.89977604,-0.09260503,13.722930908203125,-1.0692743062973022,0.7010387778282166,-16.782804489135742,-97.34678649902344, -51.49174118041992
636,382183106,0.34734896,-0.22707263,-0.9050978,-0.092658065,12.731712341308594,-1.831699252128601,1.4994714260101318,1.024556040763855,-74.99626159667969, -48.81620788574219
637,382199773,0.33670014,-0.22194612,-0.91061956,-0.09025375,9.299372673034668,-3.776282548904419,-4.698215484619141,14.701567649841309,-83.15967559814453, -41.44611358642578
638,382216440,0.32804346,-0.21816191,-0.91497517,-0.08726094,8.349754333496094,-4.784895420074463,-8.927245140075684,17.588502883911133,-69.7234115600586, -28.67022132873535
639,382233107,0.324631,-0.22066092,-0.91509086,-0.09237364,12.61639404296875,-5.372245788574219,7.402670383453369,-42.26064682006836,-18.77836036682129, 2.071730852127075
640,382249774,0.33000413,-0.21750477,-0.9149475,-0.08161449,5.6097540855407715,-1.6350340843200684,0.9824626445770264,83.37566375732422,16.551782608032227, 7.881275177001953
641,382266441,0.33772585,-0.21752596,-0.91197455,-0.08322919,8.342937469482422,2.0215489864349365,0.21582546830177307,0.24733807146549225,54.4575309753418, 5.3425774574279785
642,382283108,0.34748018,-0.22502214,-0.9050524,-0.09748535,8.107625961303711,0.7839529514312744,0.0880485475063324,-95.59600067138672,90.99417114257812, 29.930360794067383
643,382299775,0.36196622,-0.23255925,-0.8956472,-0.11275454,7.638521671295166,0.8748268485069275,0.22429567575454712,-96.34383392333984,127.90538787841797, 34.77324295043945
644,382316442,0.3810822,-0.23966797,-0.8836097,-0.12872623,8.057418823242188,1.3605118989944458,0.08059723675251007,-94.24459075927734,164.4220733642578, 38.18061828613281
645,382333109,0.40456298,-0.24667874,-0.8685676,-0.14515427,8.334087371826172,1.5468109846115112,-0.9945059418678284,-92.22969818115234,199.65444946289062, 45.201560974121094
646,382349776,0.43136853,-0.2531095,-0.8509078,-0.1606662,9.161516189575195,0.6600884795188904,-2.5739316940307617,-82.11845397949219,225.8212127685547, 52.04161834716797
647,382366443,0.46163508,-0.25738558,-0.8313423,-0.17180425,9.963042259216309,-0.5373660922050476,-3.741563558578491,-46.21651840209961,246.49636840820312, 59.54597854614258
648,382383110,0.49493355,-0.25733775,-0.8112189,-0.17533661,10.344749450683594,-1.320181131362915,-4.291493892669678,15.699087142944336,257.2504577636719, 63.53740692138672
649,382399777,0.5305782,-0.2519874,-0.7910097,-0.17115405,11.647651672363281,-0.9489479064941406,-5.0223002433776855,80.83565521240234,263.3828430175781, 63.19728088378906
650,382416444,0.56717247,-0.24232689,-0.770096,-0.1629308,12.548726081848145,-0.012424498796463013,-5.519518852233887,119.36300659179688,269.2047119140625, 56.840091705322266
651,382433111,0.6032188,-0.23023744,-0.7478011,-0.15463535,13.286581039428711,0.5723263025283813,-5.886743068695068,126.76184844970703,274.3007507324219, 45.95438766479492
652,382449778,0.6372454,-0.21821295,-0.7238916,-0.14927642,13.816057205200195,1.1995347738265991,-5.757174015045166,106.47350311279297,275.1993103027344, 34.524845123291016
653,382466445,0.6683207,-0.20848782,-0.69840765,-0.14868769,13.95205020904541,0.9738509058952332,-5.919491291046143,66.59925842285156,272.21026611328125, 24.4100341796875
654,382483112,0.69666857,-0.2008417,-0.67192715,-0.1510972,13.980219841003418,-0.3490292429924011,-6.729742527008057,37.71249771118164,265.8766784667969, 19.262475967407227
655,382499779,0.722445,-0.19342402,-0.645878,-0.15330689,13.558690071105957,-1.5592100620269775,-7.500097274780273,34.44091033935547,251.43325805664062, 18.010765075683594
656,382516446,0.7454389,-0.18554066,-0.6216086,-0.15329446,12.568717002868652,-1.8786509037017822,-7.842606067657471,44.796600341796875,227.7888946533203, 21.67988395690918
657,382533113,0.765111,-0.17804824,-0.5999988,-0.15134805,11.442499160766602,-1.2859388589859009,-7.743137359619141,49.62556076049805,197.10166931152344, 26.367280960083008
658,382549780,0.78107256,-0.17084828,-0.5818924,-0.14879107,10.581718444824219,-0.3470686674118042,-7.6744279861450195,49.71098709106445,162.33497619628906, 22.635311126708984
659,382566447,0.7930991,-0.16443105,-0.5676732,-0.14732271,9.877459526062012,0.39248836040496826,-7.403888702392578,40.50577163696289,126.22054290771484, 11.32987117767334
660,382583114,0.80103886,-0.16143656,-0.55714804,-0.14785711,8.849431991577148,0.24833530187606812,-7.065305709838867,13.146292686462402,88.95195770263672, 5.456051826477051
661,382599781,0.80544096,-0.16213225,-0.55011904,-0.14949246,7.909709930419922,-0.675163984298706,-6.7381696701049805,-11.765509605407715,53.64387512207031, 6.053785800933838
662,382616448,0.8074393,-0.16335349,-0.5465698,-0.15039773,7.562497615814209,-1.255578637123108,-6.07004451751709,-11.014857292175293,23.957979202270508, 5.735421180725098
663,382633115,0.8078351,-0.164663,-0.5454851,-0.15078285,7.578203201293945,-0.5458213090896606,-4.842449188232422,-8.798272132873535,3.602932929992676, 4.528499603271484
664,382649782,0.8067433,-0.16801018,-0.5457615,-0.15193138,8.103692054748535,-0.8889700174331665,-3.735407829284668,-23.249624252319336,-10.762763977050781, 4.848489284515381
665,382666449,0.8045379,-0.17251962,-0.5473059,-0.15301315,8.151890754699707,-1.5138702392578125,-3.582890272140503,-29.405715942382812,-23.248062133789062, 6.95241641998291
666,382683116,0.8014679,-0.17638332,-0.5506295,-0.15279415,8.219924926757812,-2.344142436981201,-3.9499318599700928,-20.08966827392578,-37.1898307800293, 8.6970853805542
667,382699783,0.79756683,-0.17900597,-0.55600315,-0.15068293,9.616721153259277,-2.9992990493774414,-3.073446750640869,-4.939024448394775,-52.60769271850586, 11.062053680419922
668,382716450,0.7928885,-0.18593307,-0.56095314,-0.14862455,11.829663276672363,-8.188079833984375,4.581849098205566,-30.136194229125977,-57.63533020019531, 26.93896484375
669,382733117,0.7893597,-0.1796688,-0.56994176,-0.14070465,12.96781063079834,-1.297552466392517,6.829484939575195,69.98674011230469,-69.23944091796875, 4.008325576782227
670,382749784,0.7843613,-0.17101899,-0.58134604,-0.13254385,12.9105863571167,3.4466445446014404,3.3725485801696777,84.39751434326172,-86.11334228515625, -8.440075874328613
671,382766451,0.77760047,-0.1646877,-0.5937493,-0.12521288,11.611771583557129,3.5677576065063477,-0.6001194715499878,67.40899658203125,-99.68514251708984, -6.415912628173828
672,382783118,0.7689224,-0.16179031,-0.6070389,-0.11868842,11.987255096435547,1.6698540449142456,-0.3409469723701477,44.346248626708984,-114.28715515136719, 0.6486183404922485
673,382799785,0.75965124,-0.16155477,-0.6198397,-0.11238157,10.432857513427734,-0.3959198594093323,0.2725422978401184,28.305349349975586,-116.10150909423828, 10.675179481506348
674,382816452,0.750948,-0.16074614,-0.63185394,-0.104878165,9.31811237335205,-2.5345282554626465,-1.449145793914795,36.42184829711914,-110.45758056640625, 15.79604721069336
675,382833119,0.7425192,-0.16038798,-0.64279747,-0.09875849,10.226827621459961,-2.020071268081665,-1.6208117008209229,27.617345809936523,-102.52666473388672, 11.981507301330566
676,382849786,0.7338802,-0.16170244,-0.6528685,-0.095057346,10.393391609191895,-1.248031497001648,-1.663740634918213,7.56596040725708,-97.46485900878906, 7.844045639038086
677,382866453,0.7242308,-0.16636316,-0.66247,-0.09459092,10.029768943786621,-1.9262688159942627,-3.910580635070801,-25.268447875976562,-98.21643829345703, 6.403669357299805
678,382883120,0.7147767,-0.17213048,-0.6711643,-0.09489422,11.143776893615723,-1.0332554578781128,-1.036929965019226,-34.64974594116211,-92.63800048828125, 8.774504661560059
679,382899787,0.70654565,-0.17471302,-0.67956585,-0.09197547,9.882710456848145,-1.0994236469268799,-1.0841200351715088,-2.8724403381347656,-87.29044342041016, 11.058347702026367
680,382916454,0.6991564,-0.17606458,-0.6874702,-0.086988695,10.433694839477539,-0.15571801364421844,-0.679977536201477,13.467445373535156,-82.64691162109375, 16.482765197753906
681,382933121,0.6924521,-0.17950724,-0.6937439,-0.08371012,11.156411170959473,-0.2516857087612152,-0.7585675716400146,-4.805392742156982,-70.75476837158203, 20.541784286499023
682,382949788,0.6862839,-0.18645187,-0.6979486,-0.08437331,10.702810287475586,-0.8213653564453125,-0.9969183802604675,-40.80641174316406,-55.50117492675781, 21.345651626586914
683,382966455,0.68041044,-0.19522032,-0.70086265,-0.087882176,9.884421348571777,-1.5476961135864258,-1.3698326349258423,-63.438961029052734,-45.41071701049805, 18.500146865844727
