PacketCounter,SampleTimeFine,Quat_W,Quat_X,Quat_Y,Quat_Z,Acc_X,Acc_Y,Acc_Z,Gyr_X,Gyr_Y,Gyr_Z 
1,240055457,0.117176965,0.6713787,-0.047829255,0.7302279,0,0,0,0,0, 0
2,240072124,0.11764599,0.67199266,-0.04808843,0.7295704,9.797125816345215,0.8914770483970642,0.8839354515075684,0.488914430141449,-3.550419807434082, 0.16669385135173798
3,240088791,0.11788919,0.67263407,-0.04813158,0.728937,9.790356636047363,0.9012234210968018,0.8852865695953369,0.7101697325706482,-3.405285358428955, 0.2418927550315857
4,240105458,0.11823519,0.67315143,-0.04826365,0.72839427,9.789669036865234,0.8929833173751831,0.8960630893707275,0.5668538808822632,-3.307291269302368, 0.26101264357566833
5,240122125,0.11867076,0.67352784,-0.048560206,0.7279557,9.787939071655273,0.875340461730957,0.9223660230636597,0.2837182581424713,-3.2211427688598633, 0.24965336918830872
6,240138792,0.11910298,0.67378265,-0.04895434,0.7276228,9.802946090698242,0.8502030968666077,0.9215601682662964,0.1708046793937683,-3.2271230220794678, 0.21694597601890564
7,240155459,0.11945066,0.67398995,-0.049363233,0.7273463,9.776104927062988,0.8501130938529968,0.9106534123420715,0.2563510835170746,-3.232156276702881, 0.09477338194847107
8,240172126,0.11976324,0.6741919,-0.04979305,0.7270783,9.783315658569336,0.8791558742523193,0.899231493473053,0.35305190086364746,-3.299299955368042, 0.12681487202644348
9,240188793,0.1202048,0.67438287,-0.050308865,0.7267928,9.782805442810059,0.9034847021102905,0.9656698703765869,-0.24725215137004852,-3.2628014087677, 0.03353342413902283
10,240205460,0.12080379,0.674374,-0.050923742,0.7266589,9.822975158691406,1.0172899961471558,1.3317992687225342,-6.4479594230651855,-2.407939910888672, -0.29139572381973267
11,240222127,0.12340472,0.67356634,-0.053188656,0.72680855,9.761249542236328,1.0555951595306396,1.264037847518921,-22.883644104003906,0.35503751039505005, -1.3238075971603394
12,240238794,0.12582184,0.6726216,-0.055043783,0.72713083,9.766225814819336,0.8307343125343323,0.69195955991745,-21.32322120666504,1.2410333156585693, -1.6851006746292114
13,240255461,0.12732601,0.67206967,-0.05619356,0.72729164,9.76616096496582,0.7597849369049072,0.7120822668075562,-13.36872386932373,0.5484002232551575, -1.1703346967697144
14,240272128,0.12811847,0.67191195,-0.056842934,0.7272476,9.757452964782715,0.8158197999000549,0.8464733958244324,-7.224088191986084,-1.0561012029647827, -0.7877569794654846
15,240288795,0.12838541,0.67200446,-0.057098184,0.7270952,9.786492347717285,0.8410021662712097,0.9080145955085754,-3.840970516204834,-2.3434858322143555, -0.4908546507358551
16,240305462,0.12866308,0.6722196,-0.057404403,0.726823,9.786458969116211,0.8635428547859192,0.9294624328613281,-1.685648798942566,-3.1669209003448486, -0.33288830518722534
17,240322129,0.12875532,0.6725322,-0.05756253,0.72650486,9.780961990356445,0.8572996854782104,0.9118748307228088,-0.02976195514202118,-3.735727071762085, -0.18539752066135406
18,240338796,0.12858704,0.6729229,-0.0575039,0.7261774,9.785322189331055,0.8855222463607788,0.9421671032905579,1.1867836713790894,-4.106253623962402, -0.04539851099252701
19,240355463,0.12830809,0.67334914,-0.057352334,0.7258434,9.79205322265625,0.8946813344955444,0.9635698199272156,1.8704251050949097,-4.302754878997803, 0.06238614022731781
20,240372130,0.12814926,0.67379576,-0.05732518,0.72545934,9.807350158691406,0.8788504004478455,0.9816980361938477,2.654609441757202,-4.560802936553955, 0.19424033164978027
21,240388797,0.12771006,0.67429024,-0.057057153,0.72509813,9.791925430297852,0.8806173205375671,0.9578307271003723,3.621821880340576,-4.793583393096924, 0.3478653132915497
22,240405464,0.12746225,0.6747975,-0.056981932,0.72467583,9.786001205444336,0.9055163860321045,0.9077826142311096,4.183034420013428,-5.042629241943359, 0.4429524540901184
23,240422131,0.12691836,0.67534506,-0.05666002,0.7242862,9.77581787109375,0.8814805746078491,0.8772091269493103,4.551909446716309,-5.175124168395996, 0.6301429867744446
24,240438798,0.12635206,0.67589074,-0.056334093,0.72390145,9.783357620239258,0.8689780235290527,0.8669393658638,5.163795471191406,-5.066025733947754, 0.774393618106842
25,240455465,0.12596248,0.67643577,-0.056180242,0.7234722,9.773075103759766,0.8764054179191589,0.8878490328788757,5.916194915771484,-5.101051330566406, 0.845187246799469
26,240472132,0.1252804,0.6770041,-0.055733092,0.7230935,9.787931442260742,0.8837839961051941,0.9010751843452454,6.667325019836426,-5.030142307281494, 0.8058587908744812
27,240488799,0.12449377,0.6775764,-0.05517262,0.72273624,9.802034378051758,0.8805776238441467,0.9629855155944824,7.008321762084961,-4.9740777015686035, 0.767119824886322
28,240505466,0.12380755,0.6781213,-0.05468277,0.72238016,9.797418594360352,0.8797459006309509,0.938785195350647,6.6390886306762695,-4.874021530151367, 0.6482000350952148
29,240522133,0.12314029,0.6786528,-0.05419577,0.72203165,9.772214889526367,0.9230000972747803,0.9416258335113525,6.819849967956543,-4.782890319824219, 0.6042229533195496
30,240538800,0.12250157,0.6791378,-0.05373004,0.7217192,9.780848503112793,0.9112367033958435,0.9103372693061829,5.912238597869873,-4.489472389221191, 0.5927612781524658
31,240555467,0.12225325,0.6795311,-0.053636495,0.721398,9.789555549621582,0.9377045631408691,0.9943358302116394,3.8190135955810547,-4.117664337158203, 0.5563398599624634
32,240572134,0.12204249,0.6798354,-0.053578194,0.7211513,9.807390213012695,0.9013189077377319,0.8734622001647949,1.9801241159439087,-3.536191463470459, 0.5539706349372864
33,240588801,0.12199132,0.6800957,-0.053650316,0.720909,9.8007230758667,0.9015806317329407,0.8896165490150452,1.760751485824585,-3.2360494136810303, 0.4820374548435211
34,240605468,0.12171269,0.680325,-0.05352656,0.72074896,9.784193992614746,0.9266577363014221,0.9350571632385254,0.7408409714698792,-2.8945424556732178, 0.5672892928123474
35,240622135,0.12178739,0.68047607,-0.053730797,0.7205784,9.774827003479004,0.8974029421806335,0.8998348116874695,-0.5229856967926025,-2.540369749069214, 0.5297154188156128
36,240638802,0.122040205,0.68059826,-0.054071773,0.72039473,9.773933410644531,0.9001718163490295,0.8644681572914124,-1.2583647966384888,-2.4442968368530273, 0.34294766187667847
37,240655469,0.1221897,0.6807297,-0.0543118,0.7202271,9.799478530883789,0.8716475963592529,0.894467294216156,-1.0238804817199707,-2.4286346435546875, 0.3437800705432892
38,240672136,0.122402765,0.68088406,-0.05461326,0.72002214,9.797159194946289,0.8894151449203491,0.9046443104743958,-0.3312106430530548,-2.633382558822632, 0.3538842499256134
39,240688803,0.12236807,0.68107635,-0.05469297,0.7198402,9.789356231689453,0.8856630921363831,0.944159209728241,0.41210198402404785,-2.764263391494751, 0.4412236213684082
40,240705470,0.12234783,0.6812933,-0.05479487,0.7196306,9.804178237915039,0.8916913270950317,0.9563024044036865,0.8955543637275696,-2.992216110229492, 0.48153790831565857
41,240722137,0.12227293,0.6815341,-0.05485876,0.7194103,9.798550605773926,0.9035016894340515,0.9168619513511658,0.7378185987472534,-3.22310209274292, 0.5171908140182495
42,240738804,0.12217287,0.6817822,-0.054909576,0.7191884,9.810787200927734,0.8868781328201294,0.9036029577255249,1.0605002641677856,-3.2602016925811768, 0.5880099534988403
43,240755471,0.12205186,0.6820408,-0.054953113,0.71896034,9.792511940002441,0.9073419570922852,0.9025157690048218,1.2789381742477417,-3.340369939804077, 0.6518624424934387
44,240772138,0.121813424,0.6822965,-0.054899864,0.7187622,9.781695365905762,0.902136504650116,0.889529287815094,1.188141107559204,-3.250469207763672, 0.7370886206626892
45,240788805,0.12194443,0.68252087,-0.055222813,0.71850216,9.79765510559082,0.8887040615081787,0.8996613025665283,0.992857038974762,-3.2601377964019775, 0.8578909039497375
46,240805472,0.12194662,0.682748,-0.055425927,0.7182703,9.802617073059082,0.8833886384963989,0.9036423563957214,1.1783699989318848,-3.184568166732788, 0.8883061408996582
47,240822139,0.121791236,0.6830056,-0.055468526,0.71804863,9.783116340637207,0.8815591931343079,0.9413650631904602,1.2714592218399048,-3.3463761806488037, 0.8161807060241699
48,240838806,0.12170939,0.68328124,-0.05558891,0.71779084,9.80173397064209,0.8665226101875305,0.9167686104774475,1.7695238590240479,-3.5498056411743164, 0.8570970296859741
49,240855473,0.12128891,0.6835999,-0.05536634,0.71757585,9.784652709960938,0.8783591389656067,0.9413056969642639,2.4229676723480225,-3.6468002796173096, 0.7705901861190796
50,240872140,0.12115207,0.68390614,-0.055469356,0.71729904,9.790437698364258,0.8991985321044922,0.8887531161308289,2.2187066078186035,-3.812079429626465, 1.0203139781951904
51,240888807,0.12095692,0.684209,-0.05551205,0.7170399,9.79239559173584,0.9088708162307739,0.9175666570663452,2.4446616172790527,-3.7195661067962646, 1.021031141281128
52,240905474,0.12140604,0.6844674,-0.05618978,0.7166646,9.788016319274902,0.9019819498062134,0.9161755442619324,2.101682186126709,-3.8289830684661865, 1.0947957038879395
53,240922141,0.12143633,0.6847299,-0.056501042,0.71638393,9.774418830871582,0.8706586956977844,0.9288339018821716,1.5379337072372437,-3.6498351097106934, 1.261047601699829
54,240938808,0.12178334,0.6848911,-0.057082254,0.7161249,9.8075532913208,0.9261059761047363,1.083013653755188,-1.6204004287719727,-3.1883459091186523, 1.0126686096191406
55,240955475,0.1226198,0.6848607,-0.058104612,0.715929,9.807422637939453,0.9097484350204468,1.0226000547409058,-6.405326843261719,-2.1789748668670654, 0.8053529858589172
56,240972142,0.123572834,0.6847577,-0.059190728,0.71577454,9.779927253723145,0.8645876049995422,0.8600860238075256,-8.332032203674316,-1.7484514713287354, 0.5426116585731506
57,240988809,0.12422725,0.6847394,-0.06001469,0.71561015,9.77862548828125,0.8407672047615051,0.8532150387763977,-5.560056686401367,-2.108924388885498, 0.7332340478897095
58,241005476,0.12455132,0.68481976,-0.060540866,0.7154326,9.798892974853516,0.829853355884552,0.8646310567855835,-2.704291820526123,-2.5555970668792725, 0.8852198719978333
59,241022143,0.12490184,0.6849704,-0.06111118,0.71517885,9.796440124511719,0.8301540017127991,0.9161014556884766,-0.46575412154197693,-3.0719614028930664, 0.9988632202148438
60,241038810,0.12486503,0.68518436,-0.061320294,0.7149623,9.825333595275879,0.8528693914413452,0.9171231389045715,0.5156028866767883,-3.296201229095459, 1.0583103895187378
61,241055477,0.12488054,0.6854183,-0.06161846,0.71470964,9.803936004638672,0.8471962213516235,0.9034799337387085,1.3425090312957764,-3.5009872913360596, 1.2587298154830933
62,241072144,0.124671705,0.68567055,-0.061715353,0.71449566,9.79580307006836,0.8696948289871216,0.8755466938018799,1.76100754737854,-3.4769749641418457, 1.349501132965088
63,241088811,0.12439402,0.68590146,-0.06177956,0.714317,9.801898002624512,0.8509541749954224,0.9051386713981628,1.4104338884353638,-3.2796809673309326, 1.5345146656036377
64,241105478,0.1241468,0.68613154,-0.06188347,0.71413,9.806450843811035,0.8364443778991699,0.8979885578155518,1.6127358675003052,-3.300055980682373, 1.5943204164505005
65,241122145,0.12398278,0.6863546,-0.062069204,0.713928,9.802191734313965,0.8535811901092529,0.9392226338386536,1.8288683891296387,-3.2954962253570557, 1.6103408336639404
66,241138812,0.12378559,0.6866114,-0.062232286,0.7137009,9.790990829467773,0.8507382869720459,0.9735978245735168,2.012293815612793,-3.598482131958008, 1.625503659248352
67,241155479,0.12347954,0.6869157,-0.06229017,0.7134563,9.788351058959961,0.843046247959137,0.9093963503837585,2.1187918186187744,-3.9677021503448486, 1.5858041048049927
68,241172146,0.12327489,0.68721914,-0.062458515,0.71318454,9.797444343566895,0.8247055411338806,0.8913753628730774,2.4795079231262207,-4.041146278381348, 1.6570968627929688
69,241188813,0.122948855,0.68752885,-0.06252038,0.71293694,9.816191673278809,0.8139390349388123,0.8964327573776245,2.705963134765625,-4.001972198486328, 1.7213976383209229
70,241205480,0.12255913,0.6878323,-0.06252001,0.7127114,9.801809310913086,0.8322229385375977,0.8850590586662292,3.2536520957946777,-3.8581438064575195, 1.759752869606018
71,241222147,0.12226003,0.6881069,-0.062655106,0.71248573,9.789331436157227,0.8642964959144592,0.9032912254333496,3.2888951301574707,-3.712381601333618, 2.021655559539795
72,241238814,0.122060925,0.6883747,-0.06291088,0.71223855,9.812938690185547,0.8286333680152893,0.9107357263565063,3.249221086502075,-3.7720978260040283, 2.137348175048828
73,241255481,0.12163897,0.68865407,-0.06294545,0.7120376,9.806730270385742,0.799983024597168,0.9342066645622253,3.2794055938720703,-3.704071044921875, 2.1250154972076416
74,241272148,0.12127537,0.68893135,-0.0630107,0.7118256,9.820972442626953,0.7954255938529968,0.9400217533111572,3.2740397453308105,-3.731719493865967, 1.994505763053894
75,241288815,0.12080347,0.68922937,-0.06296738,0.71162105,9.812148094177246,0.7874277830123901,0.9521505236625671,3.1748416423797607,-3.8648157119750977, 1.9560483694076538
76,241305482,0.1204738,0.6895241,-0.06302141,0.7113866,9.801966667175293,0.7756802439689636,0.897253692150116,3.035726308822632,-3.9515531063079834, 1.7424513101577759
77,241322149,0.12012229,0.68981683,-0.06305079,0.71115965,9.802745819091797,0.76408851146698,0.858547031879425,2.901797294616699,-3.939387559890747, 1.723101019859314
78,241338816,0.119806334,0.6900913,-0.06311256,0.71094114,9.807923316955566,0.7878984212875366,0.8716939687728882,3.282120704650879,-3.7808191776275635, 1.741119623184204
79,241355483,0.11939488,0.6903697,-0.06308042,0.71074295,9.801834106445312,0.8191760182380676,0.8807279467582703,3.4159088134765625,-3.741516590118408, 1.7489187717437744
80,241372150,0.11904935,0.69063455,-0.0631449,0.7105378,9.782703399658203,0.8131570816040039,0.8928723931312561,2.9072911739349365,-3.7520172595977783, 1.9056298732757568
81,241388817,0.11880351,0.6908778,-0.06328595,0.71033,9.795746803283691,0.7866470217704773,0.8959640264511108,2.839186668395996,-3.6385276317596436, 1.8189562559127808
82,241405484,0.11852159,0.6911142,-0.06337067,0.71013945,9.793983459472656,0.8023012280464172,0.8792855143547058,2.6036014556884766,-3.5636489391326904, 1.7219995260238647
83,241422151,0.11827002,0.6913486,-0.063466124,0.7099447,9.792130470275879,0.7468158006668091,0.8510649800300598,2.1592979431152344,-3.604539394378662, 1.618806004524231
84,241438818,0.118070535,0.691569,-0.063610494,0.7097503,9.763213157653809,0.7773290276527405,0.864187479019165,1.8973952531814575,-3.5505475997924805, 1.6106740236282349
85,241455485,0.11791138,0.6917803,-0.063759446,0.70955753,9.786819458007812,0.7423856854438782,0.8710492849349976,1.5306085348129272,-3.5141260623931885, 1.435700535774231
86,241472152,0.11777088,0.69198793,-0.06387862,0.7093678,9.778327941894531,0.7616764903068542,0.8993501663208008,1.6999856233596802,-3.45835542678833, 1.2115256786346436
87,241488819,0.117774576,0.6921951,-0.06415334,0.70913994,9.791083335876465,0.7696473598480225,0.9255581498146057,0.9144439697265625,-3.672400712966919, 1.2432470321655273
88,241505486,0.11772238,0.6924185,-0.06435329,0.7089125,9.798575401306152,0.7570757269859314,0.8926072120666504,0.7627142667770386,-3.796186685562134, 1.1271830797195435
89,241522153,0.11784233,0.69263107,-0.06471323,0.70865214,9.798404693603516,0.7573210000991821,0.8895395398139954,0.9753764271736145,-3.844978094100952, 1.0841662883758545
90,241538820,0.117762655,0.69286096,-0.06489279,0.70842415,9.788534164428711,0.7838890552520752,0.8602880835533142,0.8194206357002258,-3.882692813873291, 1.157213807106018
91,241555487,0.117682695,0.6930827,-0.06506902,0.7082043,9.786968231201172,0.7350542545318604,0.8382948040962219,0.9165696501731873,-3.8162026405334473, 1.1585456132888794
92,241572154,0.11756345,0.69328976,-0.06519969,0.7080095,9.793719291687012,0.7273509502410889,0.8609129786491394,1.3122605085372925,-3.624722480773926, 1.1601465940475464
93,241588821,0.11749597,0.69348663,-0.0653522,0.70781374,9.790420532226562,0.7354124188423157,0.8888497352600098,1.598469614982605,-3.550663709640503, 1.0322880744934082
94,241605488,0.11740759,0.6936833,-0.065472774,0.7076245,9.810635566711426,0.7221527695655823,0.9153512120246887,0.9850068688392639,-3.585893392562866, 0.9651826024055481
95,241622155,0.117384724,0.6938772,-0.06562407,0.70742416,9.808444023132324,0.7154775857925415,0.8864327073097229,0.8382460474967957,-3.625093460083008, 0.7918742895126343
96,241638822,0.11742694,0.69407064,-0.065816276,0.70720947,9.807262420654297,0.7489163279533386,0.8865107297897339,0.8417167067527771,-3.684413194656372, 0.6706750392913818
97,241655489,0.11738361,0.694281,-0.065947056,0.706998,9.793538093566895,0.7408626675605774,0.8831480741500854,0.9492387771606445,-3.805778980255127, 0.7765579223632812
98,241672156,0.11736644,0.6944904,-0.06607544,0.7067832,9.806456565856934,0.7498973608016968,0.8919281363487244,0.9501993060112,-3.8190972805023193, 0.6407082080841064
99,241688823,0.117336966,0.6947102,-0.0661841,0.70656186,9.808345794677734,0.7585231065750122,0.9051185846328735,0.7339000105857849,-3.9431395530700684, 0.5878307819366455
100,241705490,0.117391005,0.69492894,-0.06636777,0.70632046,9.812819480895996,0.7558026909828186,0.8618817329406738,0.24605479836463928,-4.064018249511719, 0.534171998500824
101,241722157,0.11738972,0.69513327,-0.06649883,0.7061073,9.80864143371582,0.7190335988998413,0.8548077344894409,0.350106418132782,-3.894386053085327, 0.5728729367256165
102,241738824,0.11733503,0.6953382,-0.066544,0.70591027,9.800834655761719,0.7344620227813721,0.819812536239624,0.3526805341243744,-3.844095468521118, 0.42383262515068054
103,241755491,0.11737053,0.6955165,-0.06668536,0.70571536,9.797648429870605,0.7083036303520203,0.8327677249908447,0.5135666728019714,-3.6892404556274414, 0.4838303327560425
104,241772158,0.1174036,0.69568515,-0.06676618,0.70553595,9.79825210571289,0.7190009355545044,0.8442448973655701,0.5781363248825073,-3.5596020221710205, 0.21734298765659332
105,241788825,0.11746744,0.6958544,-0.0668595,0.7053495,9.812055587768555,0.7241660952568054,0.8600755929946899,0.5480926036834717,-3.6046416759490967, 0.1257135421037674
106,241805492,0.11749012,0.69604075,-0.06691127,0.705157,9.794841766357422,0.7180924415588379,0.8381037712097168,0.6798186898231506,-3.7456271648406982, 0.10959034413099289
107,241822159,0.11754174,0.6962231,-0.067001894,0.70495975,9.796940803527832,0.740302562713623,0.8572601079940796,0.7755462527275085,-3.7622501850128174, 0.16089259088039398
108,241838826,0.11753981,0.6964094,-0.06702903,0.7047734,9.789690971374512,0.7522940039634705,0.791506826877594,0.8449567556381226,-3.7632875442504883, 0.11727416515350342
109,241855493,0.11763444,0.69657123,-0.06715282,0.70458585,9.783520698547363,0.7534967660903931,0.808514416217804,0.8634232878684998,-3.640064001083374, 0.13884003460407257
110,241872160,0.11768095,0.696718,-0.067214,0.7044272,9.790279388427734,0.7426044344902039,0.806101381778717,0.7390480637550354,-3.467114210128784, 0.09755237400531769
111,241888827,0.117721565,0.6968537,-0.06726436,0.70428115,9.794120788574219,0.738055944442749,0.8344667553901672,0.7721525430679321,-3.3722450733184814, 0.09319821745157242
112,241905494,0.117776535,0.69697815,-0.06731941,0.7041436,9.805977821350098,0.7359790205955505,0.8654261231422424,0.5906864404678345,-3.3068044185638428, 0.05520176887512207
113,241922161,0.117817506,0.69709104,-0.06734616,0.70402247,9.812004089355469,0.7221946120262146,0.8502649664878845,0.44633328914642334,-3.20729923248291, 0.0008516222587786615
114,241938828,0.11786772,0.69720954,-0.06737592,0.7038939,9.801495552062988,0.7393222451210022,0.849583089351654,0.6421296000480652,-3.2769784927368164, -0.029992468655109406
115,241955495,0.117940836,0.6973208,-0.06741974,0.70376724,9.793511390686035,0.7597797513008118,0.8279528617858887,0.7493058443069458,-3.2406210899353027, -0.062213245779275894
116,241972162,0.11799771,0.6974365,-0.06744807,0.7036403,9.808345794677734,0.7431632876396179,0.8580180406570435,0.8895226120948792,-3.2846622467041016, -0.057705413550138474
117,241988829,0.1180269,0.6975597,-0.0674548,0.70351267,9.799050331115723,0.7611130475997925,0.8670504689216614,0.9612381458282471,-3.358734130859375, -0.030248597264289856
118,242005496,0.11809121,0.697675,-0.06751773,0.70338154,9.791293144226074,0.7821016311645508,0.8954585194587708,0.6892697215080261,-3.3836424350738525, 0.0741039365530014
119,242022163,0.11811775,0.6978004,-0.06754902,0.70324963,9.826681137084961,0.765533447265625,0.8648966550827026,0.48705747723579407,-3.494788646697998, 0.0997934639453888
120,242038830,0.118194215,0.6979173,-0.067614295,0.7031144,9.819822311401367,0.7571291923522949,0.8166078925132751,0.5245545506477356,-3.471968173980713, 0.031983859837055206
121,242055497,0.11818437,0.69804204,-0.067620955,0.70299166,9.81805419921875,0.7614988088607788,0.8504665493965149,0.8194206953048706,-3.4957494735717773, 0.17148342728614807
122,242072164,0.11819488,0.69815516,-0.067640945,0.7028757,9.816900253295898,0.7726192474365234,0.8539267778396606,0.8157964944839478,-3.425532102584839, 0.15150552988052368
123,242088831,0.118223995,0.69826263,-0.067680344,0.70276016,9.814607620239258,0.7653464078903198,0.8777352571487427,0.8195231556892395,-3.4170796871185303, 0.16500340402126312
124,242105498,0.11826338,0.6983859,-0.067754984,0.70262384,9.81419849395752,0.7714267373085022,0.8943411111831665,0.9143670201301575,-3.627372980117798, 0.2618066370487213
125,242122165,0.1183387,0.6985067,-0.0678852,0.70247865,9.812345504760742,0.7962183952331543,0.8714615702629089,0.8475562334060669,-3.6902518272399902, 0.3606332242488861
126,242138832,0.11846084,0.6986167,-0.06806492,0.7023312,9.823617935180664,0.7834233045578003,0.8761042356491089,0.3073972165584564,-3.7012786865234375, 0.3782035708427429
127,242155499,0.11853693,0.69872653,-0.068229556,0.702193,9.829191207885742,0.7684019207954407,0.8289638757705688,0.04705693572759628,-3.733524799346924, 0.5344410538673401
128,242172166,0.11860236,0.6988139,-0.06840052,0.70207846,9.811983108520508,0.7631571292877197,0.8340070247650146,0.38974207639694214,-3.5269200801849365, 0.6493908166885376
129,242188833,0.118636094,0.69888705,-0.0685662,0.70198363,9.804582595825195,0.7753040790557861,0.800420343875885,0.4099632799625397,-3.4099721908569336, 0.8037712574005127
130,242205500,0.1186453,0.69895613,-0.06869939,0.7019003,9.810602188110352,0.7449012398719788,0.8296037316322327,0.4497397840023041,-3.359131097793579, 0.7853941917419434
131,242222167,0.11864164,0.6990156,-0.06882233,0.70182955,9.801074028015137,0.7183661460876465,0.8066303133964539,0.5619361996650696,-3.278066635131836, 0.8114166855812073
132,242238834,0.11870179,0.6990817,-0.06900787,0.7017354,9.805488586425781,0.76807701587677,0.872602105140686,0.8033487200737,-3.410907030105591, 0.7856118679046631
133,242255501,0.118701674,0.6991631,-0.06913278,0.7016421,9.80935287475586,0.7657370567321777,0.8628284931182861,0.7133073210716248,-3.534949779510498, 0.7775312066078186
134,242272168,0.11860486,0.69927126,-0.069173865,0.70154667,9.819376945495605,0.8145672082901001,0.8877584934234619,0.5684674978256226,-3.7494306564331055, 0.8255422711372375
135,242288835,0.11854209,0.6993675,-0.06928457,0.70145047,9.840192794799805,0.7696462869644165,0.8249285817146301,0.6429620981216431,-3.727698802947998, 1.0138083696365356
136,242305502,0.11840437,0.699452,-0.06934825,0.7013833,9.826498031616211,0.7588728070259094,0.7889608144760132,0.9118825793266296,-3.5761990547180176, 1.1803805828094482
137,242322169,0.11829349,0.69951296,-0.06946268,0.7013297,9.810948371887207,0.7497552633285522,0.7942101955413818,1.1625924110412598,-3.40730881690979, 1.325258731842041
138,242338836,0.11821609,0.6995563,-0.06964308,0.7012816,9.810938835144043,0.7485007047653198,0.8009508848190308,0.8048471212387085,-3.349398612976074, 1.4957624673843384
139,242355503,0.11817789,0.69957125,-0.06985298,0.7012522,9.796258926391602,0.7366346716880798,0.8129057288169861,0.8899196982383728,-3.1239044666290283, 1.481854796409607
140,242372170,0.11810361,0.6995993,-0.070034854,0.70121855,9.799592971801758,0.7228686809539795,0.8255429267883301,0.8337638974189758,-3.2524802684783936, 1.5098621845245361
141,242388837,0.11801469,0.69964105,-0.07020228,0.7011753,9.810970306396484,0.7074374556541443,0.8657944202423096,0.7198769450187683,-3.401904582977295, 1.5009618997573853
142,242405504,0.11801171,0.6996839,-0.07045692,0.70110744,9.797601699829102,0.7258943915367126,0.8396632671356201,0.32060062885284424,-3.551687717437744, 1.4955192804336548
143,242422171,0.11797556,0.6997518,-0.07067314,0.7010241,9.789058685302734,0.7111780047416687,0.848509669303894,-0.046294961124658585,-3.807776689529419, 1.4363667964935303
144,242438838,0.117956705,0.69981056,-0.07092073,0.7009434,9.80716609954834,0.7070906162261963,0.8428866267204285,0.24280202388763428,-3.761737823486328, 1.5109765529632568
145,242455505,0.11787706,0.69988257,-0.071132064,0.7008636,9.79845905303955,0.7236279249191284,0.8004266619682312,0.4645439088344574,-3.8633551597595215, 1.6272196769714355
146,242472172,0.117715575,0.6999578,-0.07129127,0.70079947,9.828105926513672,0.7181784510612488,0.8183326721191406,0.6011748909950256,-3.8576700687408447, 1.783982276916504
147,242488839,0.117591105,0.70002043,-0.07150581,0.70073587,9.813961029052734,0.7028221487998962,0.8294442296028137,0.5600664615631104,-3.81900691986084, 1.8845375776290894
148,242505506,0.117557466,0.70006335,-0.07181658,0.70066696,9.806855201721191,0.6808987259864807,0.81630539894104,0.7038049697875977,-3.7427451610565186, 1.9189482927322388
149,242522173,0.11745578,0.70011413,-0.07204082,0.70061004,9.794474601745605,0.713914692401886,0.8154991269111633,0.46307119727134705,-3.77276349067688, 1.832902431488037
150,242538840,0.117378965,0.7001819,-0.07227513,0.7005312,9.78256607055664,0.718320906162262,0.8221358060836792,-0.16531717777252197,-4.006748199462891, 1.7423614263534546
151,242555507,0.117347874,0.70026857,-0.07256744,0.7004196,9.806792259216309,0.7128269076347351,0.8613627552986145,-0.2249051332473755,-4.279639720916748, 1.7646318674087524
152,242572174,0.117285885,0.7003907,-0.07283555,0.7002799,9.811171531677246,0.7164656519889832,0.8762799501419067,-0.2142118215560913,-4.62339973449707, 1.7609691619873047
153,242588841,0.1172547,0.7005503,-0.07318523,0.7000891,9.835822105407715,0.6970040202140808,0.8441839218139648,-0.5351133942604065,-5.1163554191589355, 1.9471098184585571
154,242605508,0.1172416,0.7007289,-0.07357459,0.6998716,9.844770431518555,0.665466845035553,0.8267209529876709,-0.3983031213283539,-5.359982967376709, 2.023973226547241
155,242622175,0.11711679,0.7009457,-0.07387845,0.6996435,9.817825317382812,0.6669330596923828,0.8337424993515015,-0.16287118196487427,-5.650034427642822, 2.123171329498291
156,242638842,0.117039375,0.70119065,-0.07427104,0.69936925,9.786349296569824,0.6759513020515442,0.8490225076675415,-0.7713650465011597,-6.077805519104004, 2.2718276977539062
157,242655509,0.116878666,0.7015036,-0.07456816,0.69905066,9.812150955200195,0.6588403582572937,0.8454492092132568,-0.829070508480072,-6.664682865142822, 2.1471452713012695
158,242672176,0.116750106,0.70189154,-0.074942745,0.6986426,9.804107666015625,0.6472363471984863,0.852645754814148,-1.0510172843933105,-7.5127692222595215, 2.254385232925415
159,242688843,0.11671739,0.7023468,-0.075429074,0.6981379,9.836389541625977,0.6460107564926147,0.8982083201408386,-1.1392019987106323,-8.318034172058105, 2.221524715423584
160,242705510,0.1165371,0.7029134,-0.07590035,0.69754654,9.828678131103516,0.6626268625259399,0.8870159983634949,-1.2037075757980347,-9.414475440979004, 2.7366089820861816
161,242722177,0.11625064,0.7036448,-0.07633133,0.6968094,9.829450607299805,0.7108572125434875,0.9767887592315674,-0.6685557961463928,-10.974778175354004, 2.8545048236846924
162,242738844,0.11609977,0.70455486,-0.07696625,0.69584453,9.847285270690918,0.7047222256660461,1.0352522134780884,-1.5561646223068237,-13.019943237304688, 2.919766426086426
163,242755511,0.11574284,0.7057003,-0.07745572,0.6946881,9.851319313049316,0.6117295622825623,1.0048826932907104,-1.5712124109268188,-15.200958251953125, 2.9563934803009033
164,242772178,0.11535273,0.70707226,-0.07802221,0.693293,9.899728775024414,0.5333637595176697,0.9721927046775818,-1.1072251796722412,-17.523855209350586, 3.1832199096679688
165,242788845,0.11485003,0.7086744,-0.078534916,0.69168085,9.917645454406738,0.5931674838066101,0.9353229403495789,-0.5523002743721008,-19.745986938476562, 3.1772022247314453
166,242805512,0.11438867,0.7104389,-0.07914718,0.689875,9.951712608337402,0.5847954154014587,0.8160876035690308,-0.4952864348888397,-21.51875114440918, 3.2228448390960693
167,242822179,0.114148214,0.7123114,-0.08002608,0.6878799,10.0235013961792,0.5652788877487183,0.7073727250099182,-1.2093315124511719,-22.982498168945312, 3.256500720977783
168,242838846,0.11383043,0.7142543,-0.08078156,0.6858264,9.982129096984863,0.4387090802192688,0.5516013503074646,-0.8544797301292419,-23.609590530395508, 2.9557435512542725
169,242855513,0.11295995,0.71630174,-0.080994464,0.6838071,9.919652938842773,0.5523478388786316,0.424142062664032,-0.6993946433067322,-24.108041763305664, 3.0570549964904785
170,242872180,0.112087555,0.7183414,-0.08116167,0.6817881,9.947171211242676,0.6114389300346375,0.27716055512428284,-0.5812174677848816,-24.06519317626953, 2.8655996322631836
171,242888847,0.11108391,0.7203362,-0.08131187,0.6798268,9.85743236541748,0.630600094795227,0.22611379623413086,0.46765682101249695,-23.64206886291504, 3.444434642791748
172,242905514,0.1103453,0.7221931,-0.08177025,0.6779195,9.908567428588867,0.6436541676521301,0.2650408148765564,0.39084410667419434,-22.704328536987305, 3.705901861190796
173,242922181,0.10947576,0.7239634,-0.08222581,0.6761148,9.871822357177734,0.6096882224082947,0.06673984229564667,1.3370940685272217,-21.868505477905273, 4.427271842956543
174,242938848,0.108601384,0.7255898,-0.08274418,0.6744469,9.937491416931152,0.5657137632369995,-0.14232762157917023,1.269501805305481,-20.569002151489258, 4.944430828094482
175,242955515,0.107674904,0.72706246,-0.08325573,0.6729449,9.924834251403809,0.5919138193130493,-0.1658337116241455,1.6969653367996216,-19.045642852783203, 5.363556385040283
176,242972182,0.10684346,0.7284092,-0.083868854,0.67154354,9.939502716064453,0.5023359656333923,-0.09533722698688507,1.9941366910934448,-17.926658630371094, 5.496537208557129
177,242988849,0.105990335,0.7296926,-0.0844306,0.6702138,9.882025718688965,0.39099738001823425,-0.05898742005228996,2.3357977867126465,-17.260175704956055, 5.430570602416992
178,243005516,0.10510827,0.7309684,-0.0849151,0.66889983,9.847282409667969,0.3720560073852539,-0.08047522604465485,2.839932918548584,-17.12093162536621, 5.189362525939941
179,243022183,0.10429566,0.73228526,-0.08540878,0.6675225,9.867724418640137,0.4477786123752594,-0.0015858989208936691,2.438363790512085,-17.608713150024414, 4.843488693237305
180,243038850,0.104200505,0.7336088,-0.08621264,0.66597897,9.929059982299805,0.7036101818084717,0.1757764369249344,-2.686826467514038,-18.298784255981445, 2.9892420768737793
181,243055517,0.104457185,0.73498553,-0.08720403,0.66428953,10.115346908569336,0.526897668838501,0.08353039622306824,-5.366341590881348,-19.238609313964844, 2.2006139755249023
182,243072184,0.10462303,0.7364927,-0.088165045,0.6624648,10.176454544067383,0.41363993287086487,0.1764196902513504,-4.754364490509033,-20.582244873046875, 2.2882227897644043
183,243088851,0.10457507,0.7381647,-0.08911536,0.6604814,10.15281867980957,0.3762238919734955,0.2001875340938568,-3.599116086959839,-22.298736572265625, 2.989231586456299
184,243105518,0.1043835,0.7400475,-0.09009713,0.65826756,10.298955917358398,0.39231768250465393,0.15849074721336365,-3.0012640953063965,-24.579740524291992, 3.5009753704071045
185,243122185,0.103996366,0.74219024,-0.09115472,0.65576607,10.513724327087402,0.3617698848247528,0.3474266529083252,-2.3401238918304443,-27.438798904418945, 4.4000372886657715
186,243138852,0.103250034,0.7446985,-0.09233483,0.6528689,10.745169639587402,0.36476239562034607,0.6733590960502625,-1.0456677675247192,-31.478822708129883, 6.127610683441162
187,243155519,0.10220267,0.7476151,-0.09375856,0.6494889,10.94719409942627,0.5426819920539856,0.8136168122291565,-0.6146180629730225,-36.23101043701172, 8.120256423950195
188,243172186,0.10078702,0.7509284,-0.09529542,0.6456527,11.05727481842041,0.5575217604637146,0.786072850227356,0.7580829858779907,-40.760135650634766, 9.777650833129883
189,243188853,0.09902062,0.754613,-0.096908465,0.64137614,11.156537055969238,0.6182582378387451,0.6499980688095093,2.1992318630218506,-45.063838958740234, 11.190357208251953
190,243205520,0.097813666,0.7583467,-0.09928909,0.6367768,11.2633638381958,1.007037878036499,1.3940179347991943,-4.270864009857178,-47.20372772216797, 12.466400146484375
191,243222187,0.10236348,0.760289,-0.10566414,0.63270664,11.193868637084961,1.6474734544754028,2.002300262451172,-52.61393737792969,-35.506591796875, 9.680479049682617
192,243238854,0.10574197,0.7624295,-0.110237606,0.6287828,10.561529159545898,1.5700725317001343,-0.7302341461181641,-38.394615173339844,-35.37264633178711, 5.3486809730529785
193,243255521,0.10633379,0.7665449,-0.113660514,0.62304384,10.174478530883789,2.0145397186279297,-1.0423569679260254,-18.742008209228516,-54.73356628417969, 8.590185165405273
194,243272188,0.1067334,0.77116567,-0.11721337,0.6165813,9.85081672668457,1.862688660621643,-1.6282756328582764,-18.467294692993164,-60.97372817993164, 9.249489784240723
195,243288855,0.106757715,0.7757417,-0.120550334,0.61016005,9.161243438720703,1.238070011138916,-2.2553420066833496,-15.545602798461914,-60.70062255859375, 9.829184532165527
196,243305522,0.10618594,0.77984464,-0.123141415,0.60448587,8.890634536743164,0.978859007358551,-2.1181650161743164,-8.956541061401367,-54.633811950683594, 9.331328392028809
197,243322189,0.10571218,0.7822632,-0.12536742,0.60097617,8.747157096862793,-0.11125469952821732,0.6636196374893188,-7.355748176574707,-35.64643478393555, 10.002610206604004
198,243338856,0.10385761,0.7828403,-0.12535714,0.60055006,7.782108306884766,-0.8754830956459045,2.2014946937561035,10.62346076965332,-11.1356840133667, 7.492843151092529
199,243355523,0.101234585,0.781807,-0.123546235,0.60271525,7.587091445922852,-0.43483641743659973,1.6836367845535278,23.263179779052734,9.901220321655273, 4.17470645904541
200,243372190,0.1009666,0.77871794,-0.1219142,0.6070759,7.732173442840576,-0.03663822263479233,2.2988662719726562,10.288616180419922,31.947195053100586, -1.3597962856292725
201,243388857,0.10355553,0.7737985,-0.12089969,0.61310315,7.73100471496582,-0.36259353160858154,1.9037402868270874,-7.457040786743164,50.294837951660156, -7.291542053222656
202,243405524,0.10917812,0.7671552,-0.1207962,0.6204525,8.22794246673584,-0.48910605907440186,1.8083992004394531,-27.56387710571289,66.31544494628906, -12.900653839111328
203,243422191,0.117535524,0.75887567,-0.12148963,0.6289146,8.575464248657227,-0.549176812171936,1.6559617519378662,-45.6851692199707,80.69218444824219, -18.241310119628906
204,243438858,0.12859088,0.7490022,-0.1232221,0.6381821,8.902985572814941,-0.5005589723587036,1.3785463571548462,-64.85503387451172,93.07266998291016, -22.603286743164062
205,243455525,0.14189789,0.73761004,-0.12610695,0.647992,9.243324279785156,-0.5686398148536682,1.036406397819519,-82.3695068359375,103.31745910644531, -24.903778076171875
206,243472192,0.15674067,0.7247626,-0.1300515,0.6582084,9.7154541015625,-0.5323061943054199,0.7051246762275696,-95.91830444335938,112.0931625366211, -24.860441207885742
207,243488859,0.1720826,0.7106222,-0.13476107,0.66876227,10.266491889953613,-0.43630412220954895,0.4794255197048187,-102.92778778076172,119.21815490722656, -21.946531295776367
208,243505526,0.18685094,0.69544333,-0.1396845,0.67965716,10.66002368927002,-0.28129327297210693,0.3166229724884033,-101.98619842529297,124.87688446044922, -17.05747413635254
209,243522193,0.19963875,0.6798483,-0.14400066,0.69080734,10.980660438537598,-0.604518473148346,0.18608051538467407,-89.9328384399414,126.95236206054688, -10.120138168334961
210,243538860,0.20885463,0.6646504,-0.14666297,0.70221776,11.3921480178833,-0.3630104959011078,0.107914999127388,-68.71866607666016,124.7687759399414, -1.3037413358688354
211,243555527,0.21547744,0.64986193,-0.14833282,0.7136151,11.754517555236816,-0.21688897907733917,-0.014252066612243652,-52.2778434753418,121.57709503173828, 5.913127422332764
212,243572194,0.21972069,0.6358805,-0.1494006,0.72460914,11.517413139343262,-0.21054886281490326,-0.24973206222057343,-30.958280563354492,114.87740325927734, 14.17190933227539
213,243588861,0.22095907,0.6234677,-0.14867754,0.735092,11.075187683105469,0.106486015021801,-0.672990620136261,-3.8557751178741455,104.76634979248047, 19.501707077026367
214,243605528,0.2188815,0.61323214,-0.14547683,0.74489856,10.533843040466309,0.636219322681427,-1.8720275163650513,20.335966110229492,91.08203125, 21.507427215576172
215,243622195,0.21404581,0.60609174,-0.14035457,0.7530857,10.371671676635742,0.748482346534729,-2.514956474304199,44.82725143432617,68.7600326538086, 22.054779052734375
216,243638862,0.20761476,0.60214436,-0.13344891,0.7592824,9.745431900024414,1.633887767791748,-2.186659336090088,63.46428298950195,45.27719497680664, 16.947092056274414
217,243655529,0.2014545,0.60062426,-0.12632051,0.76335436,9.293794631958008,2.042443037033081,-2.0703976154327393,64.98783111572266,24.61783218383789, 9.469158172607422
218,243672196,0.19568196,0.6015623,-0.11945171,0.7652207,9.000761032104492,1.9328984022140503,-2.1750259399414062,63.475345611572266,2.821195363998413, 3.4456675052642822
219,243688863,0.19166206,0.60468376,-0.1133837,0.76470095,9.497004508972168,3.5370731353759766,-1.506037712097168,52.95730209350586,-17.933290481567383, -7.356318950653076
220,243705530,0.19006458,0.60883915,-0.110560566,0.7622119,8.708089828491211,2.2302916049957275,1.1274293661117554,25.603885650634766,-33.73026657104492, -9.837339401245117
221,243722197,0.19101526,0.6120156,-0.10928108,0.7596104,10.042457580566406,2.920316219329834,8.307344436645508,5.462985992431641,-29.077177047729492, -16.041309356689453
222,243738864,0.19670035,0.61376756,-0.111971445,0.7563471,9.299406051635742,1.3199595212936401,5.977389335632324,-37.558162689208984,-26.334802627563477, -23.756526947021484
223,243755531,0.2000922,0.61767554,-0.11390677,0.75197434,11.005595207214355,-1.16502845287323,1.0416115522384644,-21.875858306884766,-43.12800216674805, -18.16109848022461
224,243772198,0.20188187,0.6240883,-0.11432704,0.7461147,11.21217155456543,-0.49123314023017883,0.548768937587738,-4.933348178863525,-61.47024154663086, -20.42366600036621
225,243788865,0.20379904,0.6314567,-0.11434303,0.7393607,10.036576271057129,0.3924044072628021,2.2189347743988037,-2.7685554027557373,-69.4380874633789, -24.874494552612305
226,243805532,0.2055111,0.638513,-0.1136176,0.73291034,9.08464527130127,0.8862026929855347,2.0455923080444336,1.7065210342407227,-65.64437103271484, -26.401653289794922
227,243822199,0.20755884,0.6447836,-0.11335563,0.726859,9.121752738952637,0.5777205228805542,1.3768905401229858,-2.8938558101654053,-60.32395935058594, -24.87896156311035
228,243838866,0.20984219,0.6502588,-0.113716334,0.72124773,9.600736618041992,1.3168485164642334,0.9329803586006165,-7.833038806915283,-55.075096130371094, -22.065797805786133
229,243855533,0.21368326,0.65512383,-0.11482186,0.71551967,10.17196273803711,2.303293228149414,-0.45595425367355347,-16.621315002441406,-52.060672760009766, -25.778419494628906
230,243872200,0.21798043,0.65930486,-0.11677156,0.7100466,10.636480331420898,-0.05532632768154144,0.68817538022995,-24.637311935424805,-48.422481536865234, -23.41724967956543
231,243888867,0.2199857,0.6636817,-0.11591582,0.7054761,10.003780364990234,0.48598504066467285,0.6610788106918335,-0.9565911889076233,-43.04576873779297, -23.98955535888672
232,243905534,0.22121587,0.66798705,-0.11384242,0.70135355,10.061141967773438,1.4356588125228882,0.6469627618789673,7.305100917816162,-39.58283615112305, -25.222780227661133
233,243922201,0.2225518,0.67168987,-0.11196112,0.697688,9.948405265808105,1.9767755270004272,0.9915810227394104,3.7952945232391357,-34.9786491394043, -23.791900634765625
234,243938868,0.22463967,0.6746292,-0.11092484,0.6943401,9.852071762084961,2.290813446044922,0.9527949690818787,-2.081106185913086,-30.189620971679688, -22.176084518432617
235,243955535,0.22722465,0.67689115,-0.11045553,0.69136614,9.897570610046387,1.9346269369125366,0.7369881272315979,-7.851771354675293,-25.707197189331055, -20.785917282104492
236,243972202,0.22981033,0.6786503,-0.11010073,0.6888388,9.865304946899414,1.6920827627182007,0.8490893840789795,-8.842376708984375,-21.400978088378906, -19.158987045288086
237,243988869,0.23214518,0.6800134,-0.10941014,0.6868186,9.718775749206543,1.723659634590149,0.9352002143859863,-6.319166660308838,-16.8088321685791, -18.431259155273438
238,244005536,0.23413551,0.6810861,-0.10833423,0.685249,9.833634376525879,1.5604041814804077,0.9046586751937866,-3.007935047149658,-12.973355293273926, -17.661344528198242
239,244022203,0.23573026,0.6819936,-0.10664828,0.684063,9.633735656738281,1.5471582412719727,0.7375685572624207,1.7439390420913696,-9.708430290222168, -17.9149169921875
240,244038870,0.23703787,0.6829704,-0.10466482,0.6829422,9.626667976379395,1.51548433303833,0.9783166646957397,4.6547112464904785,-9.449281692504883, -17.90597915649414
241,244055537,0.23803028,0.6842586,-0.102582164,0.6816222,9.499308586120605,1.951590895652771,1.2901171445846558,6.971155166625977,-11.915791511535645, -17.443817138671875
242,244072204,0.23901676,0.68588287,-0.10091004,0.67989177,9.438594818115234,2.285971164703369,1.5131756067276,5.344502925872803,-16.115629196166992, -16.378225326538086
243,244088871,0.2398957,0.68794435,-0.09967195,0.6776786,9.43940544128418,2.160935640335083,1.3846355676651,4.21530294418335,-21.251750946044922, -14.898456573486328
244,244105538,0.24041894,0.69044113,-0.098544665,0.675114,9.59610652923584,1.821360468864441,1.23772394657135,5.867484092712402,-25.39350700378418, -13.576295852661133
245,244122205,0.24059413,0.6932822,-0.09736558,0.67230546,9.728163719177246,1.7317456007003784,0.9848120212554932,8.171395301818848,-28.3205623626709, -12.841869354248047
246,244138872,0.24037518,0.6963771,-0.09617601,0.66934973,9.962742805480957,1.4247597455978394,0.8302385210990906,10.425378799438477,-30.454187393188477, -11.488547325134277
247,244155539,0.23999788,0.69957787,-0.09480315,0.6663367,10.067270278930664,1.3866301774978638,0.6898359060287476,12.168537139892578,-31.027576446533203, -11.823193550109863
248,244172206,0.2394165,0.70269406,-0.09302003,0.66351223,9.974207878112793,2.0433974266052246,-0.07160733640193939,15.017578125,-29.196504592895508, -12.5191068649292
249,244188873,0.23882604,0.7053606,-0.09112258,0.66115445,9.861854553222656,2.431147336959839,-0.537368893623352,15.138701438903809,-24.68543815612793, -11.970738410949707
250,244205540,0.23786944,0.7076622,-0.088902734,0.6593396,9.878901481628418,2.3172645568847656,-0.3726581335067749,18.11495018005371,-20.05439567565918, -10.730268478393555
251,244222207,0.2371524,0.70963794,-0.08719222,0.6577011,9.79298210144043,2.3263401985168457,-0.019791360944509506,14.21047592163086,-18.377573013305664, -8.837848663330078
252,244238874,0.23670715,0.7115592,-0.08604161,0.65593463,9.59899616241455,2.425185441970825,0.4431079030036926,10.186362266540527,-19.493736267089844, -7.499195098876953
253,244255541,0.23681358,0.713558,-0.085925005,0.6537364,9.335678100585938,3.034715414047241,0.8347232341766357,2.6979386806488037,-23.322101593017578, -5.662774562835693
254,244272208,0.23708524,0.7155755,-0.086455844,0.6513586,9.290907859802246,3.0701656341552734,0.11576420813798904,-1.091129183769226,-25.270750045776367, -3.49379825592041
255,244288875,0.23739491,0.71767527,-0.087450325,0.6487978,9.226656913757324,2.6345772743225098,0.2024860680103302,-3.3282508850097656,-27.270618438720703, -1.6928757429122925
256,244305542,0.23752336,0.720055,-0.0884468,0.6459726,9.455867767333984,2.2827625274658203,0.16077858209609985,-2.143930435180664,-29.94208526611328, -1.4559584856033325
257,244322209,0.23772658,0.7225767,-0.08943282,0.64293945,9.371844291687012,2.4258055686950684,0.14888343214988708,-2.3619351387023926,-31.546266555786133, -2.26381254196167
258,244338876,0.2384363,0.72499716,-0.0907304,0.6397618,9.246944427490234,2.824605941772461,0.06140527501702309,-6.506636142730713,-32.024574279785156, -3.1218152046203613
259,244355543,0.23989366,0.7271206,-0.09254999,0.6365386,9.353742599487305,2.5703423023223877,-0.2110014110803604,-13.04230785369873,-31.34208869934082, -3.6764488220214844
260,244372210,0.24136907,0.7291878,-0.09447391,0.6333253,9.585952758789062,2.1232810020446777,-0.5380207896232605,-13.673755645751953,-31.20696449279785, -3.174528121948242
261,244388877,0.24232382,0.7314347,-0.09603664,0.6301267,9.892338752746582,1.416645884513855,-0.8494660258293152,-9.186362266540527,-31.644031524658203, -2.822568416595459
262,244405544,0.24230184,0.7340313,-0.09671618,0.6270039,9.972793579101562,1.2777572870254517,-0.7329371571540833,0.17729812860488892,-31.935768127441406, -3.1779837608337402
263,244422211,0.24179842,0.73685044,-0.096685566,0.6238887,9.945291519165039,1.6499898433685303,-0.6264944672584534,6.0370192527771,-31.985708236694336, -4.865355968475342
264,244438878,0.24098292,0.73985463,-0.09619359,0.62071663,9.757920265197754,1.905190110206604,-0.5812572240829468,9.863696098327637,-32.507781982421875, -6.107853889465332
265,244455545,0.23992449,0.7431609,-0.0954897,0.6172763,9.650147438049316,2.09313702583313,-0.46011972427368164,12.32521915435791,-34.97399139404297, -6.806467056274414
266,244472212,0.2387728,0.7468297,-0.09485151,0.61338085,9.539264678955078,2.368525981903076,-0.46779653429985046,12.824721336364746,-39.018096923828125, -7.068968772888184
267,244488879,0.23757245,0.75081825,-0.09454611,0.6090095,9.509807586669922,2.4692182540893555,-0.4845953583717346,11.88858413696289,-43.40229415893555, -6.1389851570129395
268,244505546,0.2365726,0.75502783,-0.09488498,0.60412186,9.459111213684082,2.8683526515960693,-0.4830811619758606,8.18550968170166,-47.931087493896484, -4.632044792175293
269,244522213,0.23547222,0.75940543,-0.09550033,0.59894586,9.455695152282715,2.869309902191162,-0.805046796798706,7.6517558097839355,-50.66075897216797, -3.336456298828125
270,244538880,0.2339059,0.76387256,-0.09590203,0.5937927,9.621129035949707,2.581200122833252,-1.360837459564209,11.128729820251465,-50.88288497924805, -2.534426689147949
271,244555547,0.23150434,0.7686849,-0.095863365,0.58850634,9.64943790435791,2.2182137966156006,-1.4341518878936768,17.779813766479492,-52.832496643066406, -1.870080590248108
272,244572214,0.2280222,0.7738503,-0.0954104,0.5831456,10.015512466430664,1.9515974521636963,-1.8468945026397705,25.676895141601562,-54.708984375, -0.040711913257837296
273,244588881,0.22276399,0.7795351,-0.0944671,0.5777347,10.524539947509766,2.115135908126831,-1.504652976989746,37.865055084228516,-57.45222473144531, 4.040195465087891
274,244605548,0.21623015,0.78543735,-0.09333009,0.5723832,10.843300819396973,1.9109013080596924,-1.5351485013961792,45.83858871459961,-58.550315856933594, 8.014878273010254
275,244622215,0.20830356,0.7913775,-0.091994934,0.56733453,11.995888710021973,1.5326043367385864,-1.2259210348129272,54.38285446166992,-57.69477081298828, 12.843350410461426
276,244638882,0.20006625,0.79710764,-0.09065493,0.5624719,12.802942276000977,2.0525689125061035,-0.5287653207778931,55.90147018432617,-56.115596771240234, 14.403175354003906
277,244655549,0.19367123,0.80235904,-0.08997093,0.55732995,13.557124137878418,1.63764488697052,0.0005363598465919495,42.43854522705078,-55.651092529296875, 10.778968811035156
278,244672216,0.18712358,0.8082877,-0.08909487,0.55110604,13.410765647888184,0.9264063239097595,-0.2355058491230011,44.25595474243164,-64.19029235839844, 8.418455123901367
279,244688883,0.17985946,0.81528014,-0.08816997,0.5433186,13.08407974243164,1.0029168128967285,0.5059284567832947,48.82950210571289,-77.42130279541016, 8.154988288879395
280,244705550,0.17199835,0.82289547,-0.08748531,0.53442127,13.22435188293457,1.1880302429199219,1.454179286956787,51.37771224975586,-86.79383087158203, 9.951053619384766
281,244722217,0.1631203,0.83093715,-0.086600415,0.52481985,13.40549087524414,0.8683428168296814,1.9945621490478516,57.956539154052734,-92.92605590820312, 11.451574325561523
282,244738884,0.15498464,0.8387054,-0.08712552,0.5147449,13.050756454467773,0.4487822949886322,2.8039276599884033,48.043087005615234,-96.02178192138672, 16.440378189086914
283,244755551,0.14651433,0.84626955,-0.08734174,0.5047108,12.51991081237793,2.4675281047821045,1.4267483949661255,50.874778747558594,-95.20159149169922, 15.985434532165527
284,244772218,0.13907632,0.8538258,-0.08728417,0.4939846,11.44011116027832,3.906256675720215,-0.937492847442627,45.42050552368164,-98.52249908447266, 10.166316986083984
285,244788885,0.13259932,0.86151266,-0.08758826,0.4822257,11.167264938354492,4.30485200881958,-3.935473680496216,38.09716033935547,-104.92420196533203, 8.054070472717285
286,244805552,0.12792116,0.86933637,-0.089322515,0.4689477,10.871879577636719,3.289156675338745,-4.350143909454346,21.950178146362305,-114.6308364868164, 9.185650825500488
287,244822219,0.12316501,0.87720424,-0.09146019,0.4549487,11.126352310180664,3.9432601928710938,-3.8736419677734375,20.73493003845215,-119.51644134521484, 11.238922119140625
288,244838886,0.12128558,0.88431704,-0.0953771,0.44065467,10.692670822143555,3.6101369857788086,-3.3087055683135986,-2.965306043624878,-118.6929931640625, 13.255026817321777
289,244855553,0.11862391,0.89066935,-0.099246345,0.42753604,9.733879089355469,2.6182687282562256,-2.531599283218384,2.112710475921631,-109.79688262939453, 16.853883743286133
290,244872220,0.116270736,0.89536047,-0.103574164,0.41723287,8.192458152770996,2.9852240085601807,1.1596159934997559,-0.5365632176399231,-87.93180847167969, 22.202890396118164
291,244888887,0.115623616,0.8976154,-0.10823522,0.41134307,7.300806999206543,1.1189327239990234,2.0117857456207275,-10.756890296936035,-52.996055603027344, 24.65828514099121
292,244905554,0.11321373,0.8981542,-0.11145043,0.40997627,6.798142433166504,-0.5865504741668701,3.0340301990509033,6.214145660400391,-20.569650650024414, 25.5902156829834
293,244922221,0.1085144,0.89744633,-0.11240414,0.41252893,5.276576519012451,0.0052438597194850445,1.5044019222259521,28.72971534729004,6.959969520568848, 22.064132690429688
294,244938888,0.10523953,0.89502025,-0.11243897,0.41859415,5.299505710601807,0.31961536407470703,0.9409788250923157,23.957414627075195,35.17954635620117, 16.319345474243164
295,244955555,0.10420675,0.8907317,-0.11181921,0.4280591,5.353388786315918,0.31310027837753296,0.9709384441375732,13.312715530395508,63.57293701171875, 9.759963035583496
296,244972222,0.10557003,0.88450634,-0.11072718,0.44073024,5.78617000579834,0.5105160474777222,0.8799058794975281,1.1007699966430664,90.99774169921875, 3.614166021347046
297,244988889,0.109226994,0.87630653,-0.109707534,0.4562025,6.407290935516357,0.9962131381034851,0.6385712027549744,-12.368012428283691,115.61719512939453, 0.6464120149612427
298,245005556,0.11626304,0.8658499,-0.10956947,0.4741115,6.971230506896973,1.5646800994873047,0.2712189853191376,-35.33994674682617,139.17428588867188, -1.1098276376724243
299,245022223,0.12715955,0.8529875,-0.110937975,0.49389842,7.383138179779053,1.8181430101394653,-0.2806963324546814,-63.72787094116211,159.82086181640625, -1.425828456878662
300,245038890,0.14177068,0.8373431,-0.11416667,0.51548404,8.14925765991211,1.4640262126922607,-0.6067708730697632,-92.87930297851562,180.96563720703125, 0.5221589803695679
301,245055557,0.15816706,0.8188553,-0.11884982,0.53882664,9.231852531433105,0.27155423164367676,-1.0126086473464966,-109.7066421508789,201.09808349609375, 6.432008266448975
302,245072224,0.17199178,0.79813135,-0.12298565,0.5641631,10.212985038757324,-0.5612546801567078,-1.420764446258545,-94.01812744140625,219.0668182373047, 16.75204849243164
303,245088891,0.18172407,0.77577096,-0.12538792,0.5911294,11.168249130249023,-0.6054514050483704,-1.6668834686279297,-65.41722869873047,232.93475341796875, 26.300235748291016
304,245105558,0.1878687,0.7522385,-0.12601198,0.61884063,12.033601760864258,-0.8201767206192017,-1.7376734018325806,-39.905616760253906,240.8363494873047, 33.245033264160156
305,245122225,0.19165522,0.72755754,-0.12575574,0.6466173,12.719415664672852,-0.30832481384277344,-1.3059251308441162,-25.42701530456543,245.26622009277344, 39.73393630981445
306,245138892,0.19449084,0.7012171,-0.12559451,0.67431,13.361112594604492,0.2568466365337372,-1.7382802963256836,-23.38976287841797,251.4442138671875, 45.72360610961914
307,245155559,0.19580424,0.67365956,-0.12483273,0.70161283,13.67266845703125,0.9500306844711304,-1.9886879920959473,-15.270197868347168,254.9377899169922, 50.4078483581543
308,245172226,0.19569233,0.64580345,-0.12238622,0.7277802,14.256451606750488,2.1520307064056396,-2.2395453453063965,-1.9588929414749146,252.4562225341797, 48.236305236816406
309,245188893,0.19681895,0.6180005,-0.11867885,0.75183326,14.94126033782959,4.956933498382568,-3.2151312828063965,-2.895606517791748,245.8776397705078, 33.617835998535156
310,245205560,0.20365229,0.59052354,-0.117336676,0.7720363,14.789255142211914,5.564567565917969,-6.153595447540283,-42.12200927734375,229.67852783203125, 8.811395645141602
311,245222227,0.21035706,0.5686042,-0.116751805,0.78664374,12.61669635772705,1.1720072031021118,-11.40472412109375,-42.40306091308594,176.75070190429688, 0.3590230345726013
312,245238894,0.21143746,0.55683005,-0.11295832,0.79528326,11.094035148620605,4.404351234436035,-13.979229927062988,6.796046733856201,99.22034454345703, 1.4639382362365723
313,245255561,0.21484773,0.55267435,-0.11462684,0.79702705,7.723861217498779,5.4614081382751465,-14.79176139831543,-26.32411766052246,25.592060089111328, -6.223621368408203
314,245272228,0.21862827,0.5557218,-0.11979154,0.79311115,9.320791244506836,2.3473262786865234,-13.637269020080566,-40.77228546142578,-39.7741813659668, -8.913132667541504
315,245288895,0.21897407,0.56717885,-0.11991579,0.78484315,12.669740676879883,0.1552886813879013,-11.56273078918457,8.867770195007324,-97.1052474975586, -22.8907527923584
316,245305562,0.21563832,0.57781196,-0.12039294,0.77790684,12.83320426940918,-3.353487253189087,12.770216941833496,21.169574737548828,-90.70038604736328, 1.005566120147705
317,245322229,0.21744527,0.58529073,-0.11950416,0.7719268,12.157444953918457,-1.0023075342178345,11.194520950317383,4.195925235748291,-63.930870056152344, -27.977012634277344
318,245338896,0.21904507,0.5961132,-0.11920728,0.7631894,13.379189491271973,3.8384523391723633,-8.069450378417969,4.6392927169799805,-93.96729278564453, -31.39299774169922
319,245355563,0.2252535,0.607504,-0.12197632,0.7518786,14.537995338439941,3.8863933086395264,-0.31243953108787537,-31.623035430908203,-108.11674499511719, -47.3055419921875
320,245372230,0.23088638,0.6181881,-0.12389946,0.74106956,9.62229061126709,-1.4642690420150757,-0.06645841896533966,-25.535541534423828,-101.48150634765625, -46.450836181640625
321,245388897,0.23219572,0.62872434,-0.12143352,0.73215103,9.973648071289062,3.1151654720306396,-1.9556605815887451,16.586750030517578,-89.38797760009766, -39.99143600463867
322,245405564,0.235719,0.6359336,-0.12228105,0.7246188,10.952695846557617,2.823199987411499,-0.29814934730529785,-13.830268859863281,-70.04383850097656, -31.792612075805664
323,245422231,0.23678169,0.6414838,-0.12122109,0.7195405,10.184722900390625,1.1469532251358032,0.12568989396095276,5.8006272315979,-50.01466369628906, -22.483503341674805
324,245438898,0.23709363,0.64525425,-0.11925605,0.716388,9.867965698242188,1.4916677474975586,0.43703311681747437,12.296574592590332,-31.870203018188477, -18.15057373046875
325,245455565,0.23770188,0.6483523,-0.11654865,0.7138302,10.445094108581543,0.7667600512504578,0.5040541291236877,14.03087043762207,-24.47465705871582, -21.385391235351562
326,245472232,0.23839845,0.6517768,-0.11376777,0.7109221,10.183492660522461,1.4281784296035767,1.274125099182129,14.251742362976074,-27.45603370666504, -22.99382972717285
327,245488899,0.23934825,0.65548694,-0.11226339,0.70742244,9.345015525817871,2.8278391361236572,2.0018486976623535,6.88549280166626,-33.41679000854492, -19.708452224731445
328,245505566,0.24019903,0.65918934,-0.11191859,0.70373875,9.197072982788086,2.8628990650177,1.917378544807434,1.539837121963501,-36.21924591064453, -14.282599449157715
329,245522233,0.2405549,0.6631673,-0.11144925,0.6999441,9.415243148803711,2.1283936500549316,1.7939023971557617,4.75788688659668,-38.254554748535156, -12.835108757019043
330,245538900,0.24018319,0.66774726,-0.11049302,0.6958572,9.62426471710205,1.5854930877685547,1.6593741178512573,11.194361686706543,-42.25663757324219, -12.495861053466797
331,245555567,0.2391345,0.6730629,-0.10877896,0.69135255,9.227497100830078,2.3168752193450928,1.8733668327331543,18.828569412231445,-46.97591018676758, -13.989714622497559
332,245572234,0.23948678,0.678075,-0.10785209,0.68646085,8.629478454589844,3.3190059661865234,1.1757550239562988,7.819482326507568,-47.5886344909668, -17.411649703979492
333,245588901,0.24125387,0.6824111,-0.10873991,0.68138653,9.430527687072754,2.6598949432373047,0.09228962659835815,-8.586362838745117,-47.200103759765625, -15.414216995239258
334,245605568,0.24372731,0.6862042,-0.111025356,0.6763093,9.881373405456543,1.7081482410430908,0.08989942073822021,-19.350807189941406,-46.46098709106445, -11.760987281799316
335,245622235,0.24503401,0.6901612,-0.11293488,0.67147726,10.361810684204102,1.1716814041137695,-0.32109859585762024,-11.635457992553711,-46.32960891723633, -7.829751491546631
336,245638902,0.24538663,0.69421214,-0.114398666,0.66690946,10.240880966186523,1.4104232788085938,-0.3711281716823578,-4.686582088470459,-45.49810791015625, -5.179105281829834
337,245655569,0.24495678,0.6983701,-0.11555904,0.6625115,10.126404762268066,1.4486684799194336,-0.34977710247039795,0.7538191080093384,-45.28202819824219, -2.845693826675415
338,245672236,0.2438367,0.7027069,-0.11619411,0.65821415,9.882097244262695,1.455291986465454,-0.25155767798423767,6.841579914093018,-45.27768325805664, -2.2037200927734375
339,245688903,0.24199681,0.7073102,-0.116033025,0.6539774,9.828922271728516,1.6232954263687134,-0.07817062735557556,14.417613983154297,-45.43476104736328, -2.9102792739868164
340,245705570,0.23998785,0.7121716,-0.115625024,0.64949864,9.71501350402832,2.0733554363250732,0.19320042431354523,16.587848663330078,-47.50080871582031, -3.963498592376709
341,245722237,0.23860323,0.71705216,-0.11599673,0.6445539,9.536311149597168,2.3446743488311768,-0.15222656726837158,9.711895942687988,-50.66579055786133, -3.717820882797241
342,245738904,0.23734991,0.7219653,-0.117345884,0.63926595,9.498159408569336,2.2888007164001465,-0.3080454170703888,4.514534950256348,-54.00496292114258, -0.06743893772363663
343,245755571,0.23688734,0.7263765,-0.119620875,0.63399726,9.725324630737305,2.0841283798217773,-0.6741430759429932,-4.281972885131836,-52.5812873840332, 1.4906800985336304
344,245772238,0.23589237,0.73070973,-0.12124711,0.62906075,9.754223823547363,1.5760750770568848,-0.7880844473838806,1.3525737524032593,-49.96727752685547, 1.1761775016784668
345,245788905,0.23448414,0.73499453,-0.12223021,0.624388,9.85450553894043,1.5430716276168823,-0.7604524493217468,6.350931167602539,-47.73662567138672, 0.19682878255844116
346,245805572,0.2326442,0.73959315,-0.12284067,0.61950713,9.998756408691406,1.6060991287231445,-0.570867657661438,10.463479042053223,-49.900184631347656, -0.4362010955810547
347,245822239,0.23073311,0.7444061,-0.12338168,0.614328,9.881889343261719,1.4086122512817383,-0.7233139872550964,11.213447570800781,-52.28487014770508, -1.1483311653137207
348,245838906,0.2285723,0.74957025,-0.12369708,0.6087678,10.01037883758545,0.994414746761322,-1.08107590675354,13.67866325378418,-55.57727813720703, -2.1546289920806885
349,245855573,0.22596207,0.7552145,-0.12418683,0.60263586,9.92663860321045,1.8932944536209106,-0.8979523777961731,15.533238410949707,-61.19453430175781, -0.6892986297607422
350,245872240,0.22317444,0.7611292,-0.12525079,0.5959764,9.728340148925781,2.563528537750244,-0.9374157190322876,14.045595169067383,-66.10333251953125, 1.9764676094055176
351,245888907,0.21990761,0.7670977,-0.12592244,0.58936036,9.62942886352539,2.3430428504943848,-1.528929352760315,18.28390884399414,-65.91316986083984, 1.9116929769515991
352,245905574,0.21573311,0.7731872,-0.12548722,0.5830042,10.217340469360352,1.4988200664520264,-1.9119335412979126,27.966161727905273,-64.14830780029297, 0.04226808249950409
353,245922241,0.20986897,0.77997434,-0.12398847,0.5763869,11.814126968383789,0.8029768466949463,-0.5279721021652222,42.021141052246094,-68.21512603759766, 0.16834969818592072
354,245938908,0.20200542,0.7877463,-0.121888176,0.5690282,13.651188850402832,0.7096481323242188,0.40883517265319824,55.915733337402344,-76.94762420654297, 2.9477121829986572
355,245955575,0.19380295,0.79658717,-0.12109791,0.55966496,15.970450401306152,2.0356032848358154,2.0340301990509033,52.43395233154297,-94.11756896972656, 7.677624702453613
356,245972242,0.188872,0.80543846,-0.12444715,0.54782224,18.23695945739746,2.240961790084839,3.3985633850097656,16.543899536132812,-110.57316589355469, 14.444127082824707
357,245988909,0.18484317,0.8151911,-0.12948139,0.533415,17.466569900512695,0.09412629902362823,3.5692508220672607,4.1872053146362305,-129.6449432373047, 16.270111083984375
358,246005576,0.17659988,0.82719207,-0.13278805,0.5166559,17.473690032958984,-0.5752782225608826,4.247147083282471,34.913002014160156,-152.69320678710938, 17.03620719909668
359,246022243,0.16350661,0.83960485,-0.13359699,0.50048107,16.786693572998047,1.7101094722747803,4.2106614112854,72.40737915039062,-152.29623413085938, 20.37541961669922
360,246038910,0.15138535,0.8502755,-0.1336747,0.48605067,13.579108238220215,3.7577693462371826,2.1913022994995117,68.96195220947266,-134.5784149169922, 16.3714542388916
361,246055577,0.1403788,0.85981,-0.13336974,0.47247568,11.13403606414795,3.9934425354003906,-3.050793170928955,63.34193801879883,-124.40003967285156, 12.358899116516113
362,246072244,0.1332502,0.8678578,-0.13405076,0.45945427,10.107916831970215,3.156825065612793,-3.2517142295837402,36.29354476928711,-113.69720458984375, 7.50615930557251
363,246088911,0.12660193,0.87519884,-0.1343135,0.44716778,9.352487564086914,1.931111454963684,-4.905323505401611,34.7872428894043,-106.25727081298828, 4.82930850982666
364,246105578,0.117488116,0.8818223,-0.13438344,0.43649405,9.002252578735352,-0.34561875462532043,-5.324711322784424,51.082523345947266,-96.44988250732422, 13.322649002075195
365,246122245,0.10156685,0.88836956,-0.13123456,0.42809024,4.768136024475098,0.6468383073806763,-5.788146495819092,104.04576110839844,-86.14405059814453, 16.14089012145996
366,246138912,0.085472174,0.8932222,-0.12569374,0.42314267,2.6860716342926025,2.6348512172698975,-0.33422744274139404,114.07625579833984,-58.506675720214844, 5.9949164390563965
367,246155579,0.07259204,0.89542335,-0.11821419,0.4230518,4.026648044586182,3.0352232456207275,1.6691296100616455,102.62399291992188,-17.044729232788086, -10.096966743469238
368,246172246,0.064236894,0.89484364,-0.11281976,0.4270834,3.317089557647705,1.3111416101455688,2.5414023399353027,70.67779541015625,19.045923233032227, -6.082466125488281
369,246188913,0.057170663,0.8924025,-0.10857734,0.4342352,4.349039554595947,0.6888371706008911,1.4190436601638794,60.96800994873047,44.18307113647461, 0.054882705211639404
370,246205580,0.05502253,0.8882556,-0.10584561,0.44358933,5.534717082977295,1.2891682386398315,0.44410616159439087,27.257610321044922,65.85039520263672, -3.21343994140625
371,246222247,0.06165799,0.88214034,-0.10590048,0.45476612,6.210849285125732,1.0883904695510864,0.15735432505607605,-34.29827117919922,88.30877685546875, -10.857071876525879
372,246238914,0.07604925,0.87406397,-0.10840212,0.4674159,6.540554523468018,1.0578445196151733,0.11723683774471283,-88.74845886230469,107.97063446044922, -18.217483520507812
373,246255581,0.097070485,0.8638973,-0.11307002,0.48111767,6.022755146026611,1.818681240081787,-0.09383361041545868,-135.86654663085938,124.80885314941406, -24.40929412841797
374,246272248,0.12382021,0.8511074,-0.12007827,0.49584877,6.088949680328369,1.9330811500549316,-0.9385759830474854,-178.5922393798828,142.48936462402344, -26.74342918395996
375,246288915,0.15320767,0.8352885,-0.1289048,0.5120588,6.728646755218506,0.9312974214553833,-1.5018630027770996,-201.59190368652344,162.1051788330078, -21.34987449645996
376,246305582,0.17981856,0.8169566,-0.13759999,0.53038996,7.924768447875977,0.49191710352897644,-1.6017214059829712,-185.9495391845703,180.8123779296875, -7.883411407470703
377,246322249,0.20239793,0.7962961,-0.145762,0.55109084,8.86609172821045,0.43197253346443176,-1.470767855644226,-161.9899444580078,199.4604034423828, 8.937105178833008
378,246338916,0.218868,0.77416784,-0.15224195,0.5740935,10.319815635681152,-0.8390242457389832,-1.1368238925933838,-121.8950424194336,213.83987426757812, 27.534223556518555
379,246355583,0.2275587,0.7516552,-0.15525493,0.5992724,11.927913665771484,-0.9425439834594727,-0.8486653566360474,-65.10186767578125,224.00765991210938, 43.44439697265625
380,246372250,0.23067814,0.72867566,-0.15545847,0.6258212,12.864985466003418,-0.30356788635253906,-0.9050005674362183,-24.00165557861328,231.45787048339844, 54.50545883178711
381,246388917,0.23006111,0.70495945,-0.15368465,0.6530584,14.02025032043457,0.42875486612319946,-0.7248924970626831,2.792613983154297,237.22219848632812, 62.54744338989258
382,246405584,0.22845973,0.67976356,-0.15151115,0.68027353,15.149148941040039,1.6446809768676758,0.03357493877410889,6.989950180053711,243.36007690429688, 66.55818939208984
383,246422251,0.22679332,0.6530755,-0.14927664,0.70694685,15.642095565795898,1.6177440881729126,0.3268253803253174,4.666354656219482,247.84320068359375, 67.28857421875
384,246438918,0.22387706,0.62609655,-0.14628834,0.73244923,15.649065017700195,2.2415854930877686,0.2319028079509735,12.281160354614258,243.9012451171875, 68.4598159790039
385,246455585,0.21994472,0.60024655,-0.13997783,0.7561313,15.100442886352539,4.3171916007995605,0.09587991237640381,33.28936767578125,234.48583984375, 55.35066223144531
386,246472252,0.21872899,0.5758821,-0.13072897,0.7768059,14.16671085357666,5.054916858673096,-1.2959301471710205,36.6990966796875,221.43148803710938, 23.1522159576416
387,246488919,0.2172021,0.5555415,-0.11857827,0.79381114,13.72513198852539,3.1138460636138916,-3.36757755279541,56.16474151611328,189.5297088623047, 4.223789691925049
388,246505586,0.21449806,0.5418944,-0.105395086,0.80575013,11.617627143859863,2.32489275932312,-5.616580009460449,72.14924621582031,134.28370666503906, -6.294812202453613
389,246522253,0.21172495,0.5350859,-0.09369764,0.8124508,9.82048511505127,3.7142205238342285,-7.4151082038879395,70.44739532470703,74.7159423828125, -13.04452896118164
390,246538920,0.2125665,0.5328989,-0.087993674,0.81430435,9.359331130981445,4.334558963775635,-6.537003517150879,27.253870010375977,24.76275062561035, -21.198368072509766
391,246555587,0.21685007,0.53353333,-0.08851802,0.81270087,9.492929458618164,1.9772499799728394,-5.496737957000732,-18.215551376342773,-10.635507583618164, -24.38482666015625
392,246572254,0.22018886,0.5373524,-0.0891391,0.80921155,9.16161823272705,-0.6056286096572876,-5.556997776031494,-11.703624725341797,-35.99168395996094, -23.495651245117188
393,246588921,0.22181284,0.5440641,-0.08825247,0.8043661,8.386696815490723,-0.4414761960506439,-6.081603527069092,6.560093402862549,-55.79020690917969, -23.36717987060547
394,246605588,0.22294126,0.5521584,-0.08672119,0.7986851,7.720022678375244,0.7784149646759033,-8.220664978027344,13.570294380187988,-65.80603790283203, -25.166404724121094
395,246622255,0.22300257,0.5620914,-0.08455066,0.7919435,7.921637535095215,-0.1576903909444809,-8.918970108032227,23.30190086364746,-79.49654388427734, -24.460620880126953
396,246638922,0.22425449,0.56670064,-0.084965885,0.7882521,14.708476066589355,-1.218110203742981,17.279102325439453,-1.7865747213363647,-41.89815139770508, -13.192371368408203
397,246655589,0.22432095,0.5682601,-0.08445113,0.7871649,10.2396879196167,-12.72097396850586,15.082076072692871,4.716614723205566,-14.58337116241455, -4.617358684539795
398,246672256,0.21703914,0.5793252,-0.075888135,0.7819957,14.814234733581543,3.4710426330566406,-7.24868631362915,89.31916046142578,-73.93608093261719, -8.229098320007324
399,246688923,0.22169925,0.59168833,-0.07744372,0.771205,17.982099533081055,11.01065731048584,-3.9801185131073,-13.679080963134766,-112.07347869873047, -41.1917839050293
400,246705590,0.23249638,0.6023501,-0.08664226,0.75869155,9.402120590209961,-7.014488220214844,6.465456008911133,-82.71903991699219,-118.36444854736328, -44.2804069519043
401,246722257,0.22959343,0.61856186,-0.07978325,0.74719656,6.110157489776611,2.370556354522705,-1.1469969749450684,67.27745056152344,-125.62879180908203, -41.067073822021484
402,246738924,0.23445246,0.6298075,-0.08131896,0.7360448,9.518767356872559,8.062495231628418,0.5854312181472778,-16.52670669555664,-107.62519836425781, -41.960811614990234
403,246755591,0.24193752,0.6365381,-0.08752161,0.7270664,8.529268264770508,3.9258017539978027,0.3365265130996704,-57.58878707885742,-81.40684509277344, -28.947383880615234
404,246772258,0.24891435,0.6415988,-0.09351306,0.71947753,10.988237380981445,1.3113051652908325,0.5664858222007751,-56.253944396972656,-66.92366790771484, -23.98442840576172
405,246788925,0.25211293,0.64735746,-0.09548936,0.7129162,10.848231315612793,-0.05372856184840202,0.23552343249320984,-17.873981475830078,-61.390743255615234, -21.698057174682617
406,246805592,0.25338215,0.6536345,-0.09465782,0.7068234,9.982354164123535,1.6843641996383667,0.6607333421707153,5.6767191886901855,-58.23664474487305, -24.285371780395508
407,246822259,0.2554654,0.6585082,-0.09433079,0.7015742,10.595503807067871,1.7668612003326416,0.6928272843360901,-2.3336219787597656,-47.97041702270508, -23.59288787841797
408,246838926,0.25630593,0.6629967,-0.09255786,0.69726324,10.53741455078125,2.0379798412323,0.41309529542922974,10.195283889770508,-40.127838134765625, -22.250192642211914
409,246855593,0.25603616,0.6669415,-0.08977331,0.6939564,9.95549488067627,2.9886441230773926,-0.00008424371480941772,19.78285026550293,-31.864198684692383, -19.426712036132812
410,246872260,0.2553305,0.6701693,-0.0876378,0.69137484,10.259197235107422,2.9444515705108643,-0.19133567810058594,17.866676330566406,-26.520469665527344, -12.644669532775879
411,246888927,0.25369325,0.67318606,-0.08610088,0.6892365,10.008315086364746,2.1348154544830322,0.5709084868431091,19.207181930541992,-25.07770347595215, -4.548333168029785
412,246905594,0.2510374,0.6764449,-0.08445966,0.6872183,9.989848136901855,1.9875825643539429,0.49174070358276367,24.908586502075195,-26.08936882019043, -0.14161327481269836
413,246922261,0.24735072,0.67995054,-0.08254505,0.68532574,9.696345329284668,2.3203253746032715,0.9104722738265991,31.49346923828125,-26.797012329101562, 3.524962902069092
414,246938928,0.24435438,0.68328893,-0.08130297,0.6832254,9.364047050476074,2.194099187850952,1.46127450466156,24.69672393798828,-27.73534393310547, 3.1566076278686523
415,246955595,0.24237378,0.68667525,-0.08075648,0.6805957,9.327037811279297,1.8799468278884888,1.2307205200195312,16.44578742980957,-31.059120178222656, 0.7359393239021301
416,246972262,0.2403966,0.690824,-0.08003909,0.67717475,9.224058151245117,1.7813524007797241,1.3126521110534668,18.062618255615234,-38.085205078125, -1.8322160243988037
417,246988929,0.23851939,0.695841,-0.07932938,0.67277104,9.107771873474121,2.2350270748138428,1.5345879793167114,18.45102310180664,-46.76420211791992, -4.36715841293335
418,247005596,0.23691915,0.7014199,-0.07877156,0.66758853,9.076425552368164,2.4551806449890137,0.6755930781364441,16.923629760742188,-53.202884674072266, -6.504134654998779
419,247022263,0.23500802,0.70743567,-0.077892855,0.661996,9.123143196105957,2.3777081966400146,0.10723203420639038,20.38764762878418,-56.838253021240234, -7.525544166564941
420,247038930,0.23311159,0.71336585,-0.076900475,0.656395,9.398116111755371,2.6830430030822754,-0.06756331771612167,20.6910400390625,-56.30124282836914, -8.11086368560791
421,247055597,0.23158433,0.71886116,-0.0765781,0.6509556,9.602034568786621,2.5334033966064453,0.018178552389144897,15.247344017028809,-54.4261360168457, -5.997000694274902
422,247072264,0.2301301,0.7242759,-0.07644893,0.64546126,9.655556678771973,2.2673115730285645,0.15703457593917847,13.865509986877441,-54.61231231689453, -5.411538124084473
423,247088931,0.22942221,0.7296249,-0.07705263,0.63959044,9.831831932067871,2.6137959957122803,0.3803771436214447,6.597415447235107,-56.97072982788086, -5.635064601898193
424,247105598,0.22904666,0.7349739,-0.07845173,0.63340056,9.851323127746582,2.032165050506592,-0.43178290128707886,1.2685681581497192,-59.66261672973633, -3.6059677600860596
425,247122265,0.22790791,0.7407763,-0.07989671,0.6268376,9.985840797424316,2.1314635276794434,-0.6167221665382385,5.438506126403809,-64.01283264160156, -0.8854567408561707
426,247138932,0.2276383,0.7461648,-0.08251327,0.6201699,9.987741470336914,2.6709349155426025,-0.9168980121612549,-4.7417988777160645,-64.12652587890625, 1.396956205368042
427,247155599,0.22636347,0.75161546,-0.08404498,0.61381626,10.061548233032227,2.0464601516723633,-1.217049241065979,5.318567752838135,-61.6563720703125, 0.5781824588775635
428,247172266,0.22343817,0.75763977,-0.082830094,0.60761565,10.510221481323242,0.8013997077941895,-1.2071533203125,26.419830322265625,-59.9675178527832, -6.747844696044922
429,247188933,0.21830818,0.7649679,-0.07929178,0.6007315,11.441617965698242,0.6099057793617249,-0.38000500202178955,49.21921920776367,-66.67073059082031, -11.455446243286133
430,247205600,0.21095477,0.77366036,-0.075745285,0.5926301,12.789043426513672,0.8306042551994324,0.4581945538520813,62.32848358154297,-79.93013763427734, -4.913654327392578
431,247222267,0.20188715,0.7835539,-0.073121436,0.5830422,13.995770454406738,1.4830564260482788,1.8005772829055786,68.65787506103516,-95.00241088867188, 4.169034481048584
432,247238934,0.1939579,0.79390323,-0.07267293,0.5716788,16.129457473754883,2.0781307220458984,3.0882537364959717,53.553951263427734,-108.90763854980469, 8.607847213745117
433,247255601,0.18482617,0.8057903,-0.07294795,0.55787086,17.868133544921875,2.740886926651001,4.2311110496521,58.121681213378906,-129.95648193359375, 13.235093116760254
434,247272268,0.17493717,0.8183443,-0.073063046,0.5425602,16.859756469726562,0.344349205493927,4.754918098449707,63.05074691772461,-141.13949584960938, 12.994457244873047
435,247288935,0.16040932,0.8316929,-0.07234099,0.5266146,16.076860427856445,-0.31804361939430237,5.400664329528809,92.92691802978516,-149.1389923095703, 24.390817642211914
436,247305602,0.14835623,0.84440047,-0.073864214,0.5094335,13.934264183044434,3.9377217292785645,4.185585021972656,69.32955932617188,-155.2779541015625, 27.18882942199707
437,247322269,0.14485487,0.8548482,-0.07817799,0.4920771,12.82918930053711,6.023283958435059,-0.999661922454834,7.5415568351745605,-147.00787353515625, 14.417367935180664
438,247338936,0.14507766,0.86402,-0.083037674,0.47489655,11.752608299255371,5.734109878540039,-4.814277172088623,-17.332324981689453,-140.26446533203125, 5.918904781341553
439,247355603,0.14811906,0.87206316,-0.08937843,0.45779735,10.75374698638916,2.8330612182617188,-3.8405590057373047,-39.961669921875,-135.98365783691406, 6.265189170837402
440,247372270,0.14709425,0.8801838,-0.094283015,0.44130528,9.429264068603516,1.15137779712677,-5.380165100097656,-10.59804630279541,-133.6549530029297, 11.020586013793945
441,247388937,0.14114033,0.8881401,-0.097132,0.4264411,8.596323013305664,2.07939076423645,-4.749105453491211,26.347484588623047,-124.43156433105469, 15.27863597869873
442,247405604,0.1361867,0.893454,-0.099759765,0.4162223,5.8616838455200195,3.9774930477142334,2.034280776977539,21.42571449279785,-87.4499282836914, 17.27072525024414
443,247422271,0.13469836,0.8953319,-0.10201658,0.41210416,6.46961784362793,1.9585928916931152,3.7297604084014893,2.212174654006958,-37.48758316040039, 13.166082382202148
444,247438938,0.1330216,0.8945329,-0.10400025,0.41388428,4.822866916656494,-0.15610285103321075,4.105642795562744,5.833794593811035,6.427664279937744, 19.360124588012695
445,247455605,0.12901255,0.89168054,-0.10488353,0.42102408,4.586134433746338,-0.40804004669189453,2.3009462356567383,25.273944854736328,44.483665466308594, 25.588590621948242
446,247472272,0.12582336,0.8865439,-0.1058629,0.432437,5.083618640899658,-0.6281716823577881,1.1784836053848267,21.02520751953125,77.73087310791016, 29.235671997070312
447,247488939,0.12388543,0.8791997,-0.10682356,0.44749206,5.753889083862305,-0.7945022583007812,0.7984349727630615,14.186745643615723,107.36333465576172, 30.152799606323242
448,247505606,0.12464225,0.8696081,-0.108055264,0.46537086,6.065093040466309,-0.2763853073120117,0.477179616689682,-2.7805285453796387,133.03956604003906, 27.54068374633789
449,247522273,0.12912683,0.85754645,-0.11024003,0.48557976,6.160929203033447,0.707870364189148,0.1976119428873062,-28.50479507446289,156.77748107910156, 25.12971305847168
450,247538940,0.13750333,0.84274745,-0.11402906,0.50780606,6.637892246246338,0.5489255785942078,-0.4322432577610016,-57.70600891113281,179.29505920410156, 25.452411651611328
451,247555607,0.14699069,0.8253062,-0.1184758,0.53219086,7.2785563468933105,0.3529464304447174,-0.9503113627433777,-67.24009704589844,201.24819946289062, 29.480289459228516
452,247572274,0.15644282,0.8054976,-0.12339029,0.5580987,7.722784996032715,0.8523215651512146,-1.238781452178955,-69.90458679199219,218.0282745361328, 35.710487365722656
453,247588941,0.16533732,0.78307235,-0.12754814,0.58582675,8.374757766723633,1.8571052551269531,-1.7750178575515747,-65.17361450195312,238.48072814941406, 37.82286071777344
454,247605608,0.17334376,0.7577802,-0.13035828,0.6154088,8.743958473205566,1.972247838973999,-2.9006009101867676,-56.587501525878906,260.7684020996094, 38.77020263671875
455,247622275,0.17935492,0.7309308,-0.13128285,0.6452418,9.683484077453613,1.0993767976760864,-3.0789856910705566,-39.835411071777344,269.14495849609375, 39.09572219848633
456,247638942,0.18180084,0.70337623,-0.12810105,0.67513,11.474308013916016,1.0293673276901245,-2.4065306186676025,-4.515289783477783,274.4253845214844, 34.988746643066406
457,247655609,0.18300705,0.67464685,-0.121575676,0.7046839,13.88520336151123,2.984252452850342,-2.336261034011841,15.248024940490723,281.379638671875, 25.204736709594727
458,247672276,0.18821114,0.6434921,-0.11534956,0.73293173,15.769801139831543,5.423817157745361,-3.800522804260254,-8.895538330078125,290.0863037109375, 7.646605014801025
459,247688943,0.1992377,0.61126745,-0.11275792,0.7575898,16.3469295501709,5.735208034515381,-6.354567050933838,-57.219970703125,279.59405517578125, -9.344765663146973
460,247705610,0.2133136,0.58209956,-0.115376584,0.7761094,14.525151252746582,2.044140338897705,-10.711639404296875,-97.77921295166016,233.22496032714844, -14.051178932189941
461,247722277,0.2177768,0.5628494,-0.11382252,0.78918856,13.467175483703613,1.2873533964157104,-12.716730117797852,-26.82826805114746,157.21702575683594, 4.703829765319824
462,247738944,0.21889143,0.55280864,-0.11271074,0.79610646,9.550680160522461,3.6244304180145264,-14.840356826782227,-7.348824977874756,80.37919616699219, 8.146096229553223
463,247755611,0.21826975,0.5536001,-0.10873348,0.7962803,9.696784973144531,4.2162885665893555,-15.144282341003418,25.95444107055664,-1.2911782264709473, -11.749500274658203
464,247772278,0.212314,0.56203735,-0.102767624,0.7927647,11.9614896774292,2.938627243041992,0.1468171775341034,65.79975891113281,-57.90107727050781, -1.3284002542495728
465,247788945,0.20876615,0.5671451,-0.09734061,0.7907516,15.333539962768555,-5.627102851867676,17.86798095703125,49.74088668823242,-32.960697174072266, -7.798641681671143
466,247805612,0.20362347,0.57892257,-0.09031463,0.7843659,10.087684631347656,0.4630623459815979,-3.591519355773926,71.35710906982422,-85.24420166015625, -16.210140228271484
467,247822279,0.20470676,0.5928217,-0.08879603,0.7738043,15.731139183044434,6.314878940582275,-3.299598455429077,17.228967666625977,-117.04187774658203, -35.04325485229492
468,247838946,0.21475092,0.6055445,-0.09470861,0.7604131,10.116023063659668,-0.003119267523288727,4.222599029541016,-62.258853912353516,-127.1752700805664, -55.61797332763672
469,247855613,0.21704555,0.6209016,-0.092325985,0.7475617,7.044556617736816,2.1957099437713623,0.017923817038536072,17.624906539916992,-131.52304077148438, -50.56939697265625
470,247872280,0.22533551,0.6321031,-0.09667547,0.7350672,10.551897048950195,7.23442268371582,-1.7592556476593018,-48.560386657714844,-114.8537826538086, -49.44927215576172
471,247888947,0.23674011,0.6385844,-0.106740005,0.7244106,12.145837783813477,0.18591266870498657,-1.4598263502120972,-97.09268951416016,-89.72943115234375, -34.25955581665039
472,247905614,0.2392085,0.6459088,-0.10934691,0.71667606,11.600116729736328,-0.3836153745651245,-1.7736282348632812,-17.208097457885742,-75.45907592773438, -18.374935150146484
473,247922281,0.24035512,0.6513157,-0.11003099,0.71127385,10.106173515319824,0.9321398735046387,-0.9780344367027283,-3.2807023525238037,-53.42537307739258, -15.158080101013184
474,247938948,0.2412291,0.6550442,-0.10931177,0.7076558,11.92514419555664,-1.2640119791030884,-0.7731354832649231,3.3657379150390625,-35.07569885253906, -15.901857376098633
475,247955615,0.23919958,0.6589796,-0.104304865,0.70544326,10.601541519165039,0.3293393850326538,0.00027504563331604004,38.68730926513672,-24.787748336791992, -18.968711853027344
476,247972282,0.23824091,0.662231,-0.10006276,0.70333403,9.618927955627441,2.480173110961914,1.3390023708343506,29.064626693725586,-21.47344398498535, -20.06761932373047
477,247988949,0.2390613,0.6648617,-0.09807011,0.7008501,9.063488960266113,3.477283477783203,1.9428457021713257,8.811494827270508,-22.64426040649414, -18.603551864624023
478,248005616,0.24010424,0.66738635,-0.09738593,0.69818443,8.85013198852539,2.9747111797332764,1.7927606105804443,1.197646975517273,-24.984804153442383, -13.890012741088867
479,248022283,0.2407397,0.67018026,-0.09701626,0.695335,9.331938743591309,2.7272720336914062,1.8552707433700562,1.8851583003997803,-27.929595947265625, -10.949834823608398
480,248038950,0.24061602,0.6734815,-0.09630105,0.69228065,9.179828643798828,3.0418710708618164,1.9219213724136353,7.74481725692749,-31.253225326538086, -9.572834968566895
481,248055617,0.23994939,0.6771802,-0.0958759,0.6889551,9.185188293457031,2.971223831176758,1.6345183849334717,9.365245819091797,-35.26099395751953, -6.3346028327941895
482,248072284,0.23961584,0.6809941,-0.09611368,0.685269,9.359480857849121,2.333258867263794,1.0406304597854614,4.634867191314697,-38.37873840332031, -5.47575569152832
483,248088951,0.23998696,0.68488663,-0.09660827,0.681178,9.424593925476074,2.4778642654418945,1.299596905708313,-0.007504565175622702,-40.61113357543945, -8.302738189697266
484,248105618,0.2419101,0.68839735,-0.098610304,0.676657,9.52830696105957,1.892602562904358,0.9364539980888367,-15.284324645996094,-42.320533752441406, -8.916216850280762
485,248122285,0.24385677,0.6920516,-0.100671634,0.6719105,9.931828498840332,0.6421116590499878,0.28246229887008667,-15.581354141235352,-44.15065383911133, -9.2147798538208
486,248138952,0.24522282,0.6961775,-0.10159573,0.66699404,9.915611267089844,0.7249463200569153,0.30254772305488586,-6.895173072814941,-45.635955810546875, -12.577394485473633
487,248155619,0.24601705,0.7005429,-0.10159294,0.6621133,9.701332092285156,1.6184959411621094,-0.06819486618041992,0.5184821486473083,-45.4061164855957, -14.521378517150879
488,248172286,0.246588,0.7047475,-0.10101433,0.6575115,9.741586685180664,2.0895838737487793,-0.5131993293762207,4.135578632354736,-42.5130500793457, -15.701700210571289
489,248188953,0.24672124,0.7087701,-0.09984331,0.6533031,9.726847648620605,2.429054021835327,-0.49306726455688477,8.896930694580078,-39.07679748535156, -15.800283432006836
490,248205620,0.246802,0.71244097,-0.09887458,0.6494157,9.854009628295898,2.6024656295776367,-0.30433008074760437,7.865570068359375,-36.30757522583008, -13.78817367553711
491,248222287,0.24671671,0.7158988,-0.09814223,0.6457462,9.880123138427734,2.298625946044922,-0.5408854484558105,7.411652565002441,-34.80449676513672, -11.367764472961426
492,248238954,0.24632548,0.71922314,-0.09749055,0.64229095,9.976116180419922,2.1174228191375732,-0.3632014989852905,8.476631164550781,-33.50041961669922, -9.159256935119629
493,248255621,0.2454321,0.7225748,-0.096578516,0.6390005,9.992462158203125,2.0246617794036865,-0.32633015513420105,12.266548156738281,-32.70492935180664, -7.972861289978027
494,248272288,0.24406882,0.72603685,-0.09546162,0.63575804,9.851819038391113,2.328068256378174,-0.26918402314186096,15.7200288772583,-32.92439651489258, -6.925706386566162
495,248288955,0.24217929,0.7297979,-0.09419512,0.6323542,9.723203659057617,2.379340410232544,-0.0900048315525055,19.400466918945312,-35.140628814697266, -5.841304302215576
496,248305622,0.23982397,0.7339588,-0.09276703,0.6286361,9.672757148742676,2.4987361431121826,-0.11876067519187927,22.90767478942871,-38.50129699707031, -5.410080909729004
497,248322289,0.23730133,0.7385149,-0.09126831,0.62446296,9.647271156311035,2.0534632205963135,-0.2797296941280365,24.426204681396484,-42.51199722290039, -6.044879913330078
498,248338956,0.2340233,0.7437776,-0.08976142,0.61965394,10.087265014648438,1.4408347606658936,-0.3277275860309601,29.055021286010742,-49.25045394897461, -4.331465244293213
499,248355623,0.22986928,0.74994844,-0.08916266,0.6138304,9.83250904083252,2.4502170085906982,-0.16287267208099365,30.503297805786133,-60.32755661010742, 1.831113338470459
500,248372290,0.22543894,0.7566414,-0.08872525,0.6072883,9.638908386230469,2.5210225582122803,-0.7318742871284485,31.641542434692383,-66.6832046508789, 2.3721976280212402
501,248388957,0.21953309,0.7639627,-0.086996324,0.6004981,9.936522483825684,2.53409743309021,-1.333540439605713,45.542572021484375,-69.51101684570312, 1.0472968816757202
502,248405624,0.21261717,0.7715604,-0.08422306,0.5936287,10.199800491333008,1.745324969291687,-0.9964459538459778,55.53491973876953,-70.10366821289062, -0.5536853075027466
503,248422291,0.20454048,0.77943647,-0.080792636,0.58661294,11.229679107666016,1.2845507860183716,-0.539491593837738,64.7013931274414,-71.75066375732422, 0.30585774779319763
504,248438958,0.1963684,0.7875058,-0.07864807,0.5788686,12.656020164489746,2.223259449005127,0.8743641376495361,59.897891998291016,-78.33505249023438, 6.421164512634277
505,248455625,0.1919967,0.7951181,-0.0796626,0.56971806,13.39311695098877,2.8857052326202393,1.638701319694519,25.39100456237793,-86.41841888427734, 6.733983516693115
506,248472292,0.18939981,0.8032256,-0.08272527,0.55867076,15.738055229187012,2.8921451568603516,2.18459415435791,7.314873218536377,-100.56175231933594, 8.198274612426758
507,248488959,0.18698202,0.81215256,-0.08686617,0.5458025,17.06112289428711,1.3383467197418213,2.9000635147094727,2.254427433013916,-115.20221710205078, 10.612014770507812
508,248505626,0.18086919,0.8223938,-0.08988301,0.5318609,15.566290855407715,-0.45071443915367126,3.27638578414917,28.18377685546875,-127.05620574951172, 15.987998962402344
509,248522293,0.17066035,0.83387077,-0.09158597,0.51686245,14.509900093078613,-0.673444926738739,4.532111167907715,57.04487609863281,-138.6267547607422, 21.390838623046875
510,248538960,0.15772611,0.84612364,-0.092965,0.50055486,14.578527450561523,-0.24609777331352234,4.374173641204834,73.92039489746094,-150.42930603027344, 27.13364028930664
511,248555627,0.14402713,0.85823655,-0.09456802,0.4834701,14.795875549316406,2.8402812480926514,2.3121280670166016,76.96170806884766,-155.4119873046875, 30.268939971923828
512,248572294,0.13426414,0.8692778,-0.09772528,0.4655956,14.679306983947754,5.622487545013428,-0.9959168434143066,47.0271110534668,-155.67141723632812, 26.277114868164062
513,248588961,0.13156545,0.8784788,-0.10172824,0.44790283,13.08660888671875,5.514269828796387,-1.4172261953353882,0.584339439868927,-144.8568878173828, 10.159768104553223
514,248605628,0.13149762,0.8869824,-0.10353728,0.4304077,11.554158210754395,5.684462070465088,-2.81778621673584,-8.970226287841797,-137.80528259277344, -10.496552467346191
515,248622295,0.13363439,0.8941826,-0.10534018,0.414105,10.599236488342285,2.9560282230377197,-3.264061212539673,-22.647790908813477,-125.18172454833984, -15.0240478515625
516,248638962,0.13025506,0.90103084,-0.104750365,0.4002556,7.942447185516357,-0.3890392482280731,-4.56640100479126,19.57119369506836,-110.96320343017578, -11.525619506835938
517,248655629,0.1165865,0.90714324,-0.09964964,0.39187852,4.631158351898193,2.10141658782959,-0.7308725714683533,98.98542022705078,-78.43526458740234, -5.733853340148926
518,248672296,0.103859894,0.91023886,-0.09321398,0.38985857,5.8775763511657715,4.2555670738220215,3.3674089908599854,98.68570709228516,-28.985380172729492, -9.393452644348145
519,248688963,0.09413487,0.91034955,-0.086656384,0.39356506,5.224442481994629,0.12674804031848907,4.040133476257324,81.84900665283203,16.740386962890625, -12.120912551879883
520,248705630,0.07886028,0.90912485,-0.07718664,0.40164083,3.943404197692871,1.4771925210952759,1.2315257787704468,126.23721313476562,46.157501220703125, -11.67203426361084
521,248722297,0.07177756,0.905102,-0.06957409,0.41327697,4.559566497802734,2.5726122856140137,0.06429903209209442,70.30037689208984,79.41765594482422, -19.195533752441406
522,248738964,0.07501263,0.8984273,-0.065671526,0.4276553,4.497507095336914,-0.23545658588409424,-0.47791340947151184,-4.391713619232178,107.07432556152344, -22.752685546875
523,248755631,0.08151866,0.89058936,-0.063261546,0.44294873,5.699909687042236,0.2711547315120697,-0.8764399290084839,-29.168691635131836,116.81608581542969, -22.15751075744629
524,248772298,0.09416549,0.88113046,-0.06367552,0.45900732,6.036368370056152,2.2130792140960693,-2.2338547706604004,-75.94597625732422,127.48365020751953, -22.447532653808594
525,248788965,0.11404196,0.86909837,-0.068562776,0.476405,6.438659191131592,1.801326036453247,-2.931584596633911,-134.91287231445312,143.9711151123047, -16.190662384033203
526,248805632,0.13659438,0.85434854,-0.0768448,0.49550542,6.862621784210205,0.7808945775032043,-2.8559341430664062,-163.35520935058594,161.64431762695312, -2.09114146232605
527,248822299,0.15698303,0.83737683,-0.08606891,0.51647705,7.195434093475342,0.06937015801668167,-2.523406744003296,-154.95376586914062,178.17173767089844, 13.680514335632324
528,248838966,0.173696,0.8185004,-0.094976515,0.5393203,7.481873035430908,0.26323506236076355,-2.14821720123291,-133.6389923095703,193.86817932128906, 27.99277114868164
529,248855633,0.18621658,0.7978607,-0.10291456,0.5640483,8.59937572479248,0.096004918217659,-1.8191887140274048,-107.34295654296875,209.42437744140625, 41.432315826416016
530,248872300,0.193927,0.77584517,-0.109000415,0.5904029,10.085506439208984,0.07636138796806335,-1.5602192878723145,-74.4068374633789,222.6381072998047, 52.940486907958984
531,248888967,0.19761024,0.752428,-0.11314132,0.6180628,11.169727325439453,0.7326290011405945,-1.351154088973999,-45.94525146484375,234.85244750976562, 61.6741828918457
532,248905634,0.1994199,0.7270535,-0.1161026,0.6466415,12.115358352661133,1.4297581911087036,-0.8249891400337219,-33.2091064453125,248.06414794921875, 66.29803466796875
533,248922301,0.20040056,0.6993663,-0.11769227,0.6759254,13.031580924987793,1.5464662313461304,-0.5682284832000732,-25.5989990234375,263.09600830078125, 65.9540786743164
534,248938968,0.20042755,0.66971076,-0.1177709,0.70529884,14.375166893005371,1.5490002632141113,-0.6818519830703735,-16.66050910949707,274.00811767578125, 64.85913848876953
535,248955635,0.19871701,0.6388836,-0.11473688,0.73428535,15.899619102478027,2.5540506839752197,-0.8702219724655151,4.479854583740234,280.84466552734375, 59.39778518676758
536,248972302,0.1970037,0.60750127,-0.107612655,0.7619393,16.515308380126953,4.497537136077881,-1.808922290802002,23.301828384399414,283.470458984375, 40.117156982421875
537,248988969,0.19982076,0.5757845,-0.09943892,0.78654677,16.16332244873047,4.846962928771973,-4.862010955810547,7.123655319213867,277.4104309082031, 8.208160400390625
538,249005636,0.19922058,0.5496245,-0.08733775,0.80659544,15.516757011413574,1.5137052536010742,-8.337522506713867,46.35490417480469,232.57485961914062, 1.169714093208313
539,249022303,0.19530661,0.5325416,-0.073735446,0.8202548,12.29532241821289,3.218308210372925,-12.223508834838867,75.7340087890625,158.43995666503906, -0.3093709945678711
540,249038970,0.19203389,0.5254386,-0.06264484,0.8265066,8.172906875610352,5.717953205108643,-13.4381685256958,68.77978515625,72.33284759521484, -9.698603630065918
541,249055637,0.19482146,0.52646846,-0.061163507,0.82530886,7.919332504272461,6.976412773132324,-10.692505836486816,-0.27880769968032837,-10.538728713989258, -22.6873836517334
542,249072304,0.20056444,0.53359836,-0.06527778,0.8190151,10.93333625793457,3.332843065261841,-8.092655181884766,-36.77824401855469,-69.5862808227539, -28.505447387695312
543,249088971,0.20395598,0.54485273,-0.06656925,0.8106209,7.961031436920166,1.348538875579834,-8.39080810546875,-7.559149742126465,-97.45091247558594, -30.353384017944336
544,249105638,0.20836568,0.5538475,-0.07063248,0.80302423,14.330180168151855,0.18517491221427917,11.741199493408203,-29.66086196899414,-85.0937271118164, -23.505481719970703
545,249122305,0.2163568,0.55649525,-0.081015766,0.79808486,9.774971008300781,-12.991479873657227,12.913191795349121,-85.9585189819336,-47.359718322753906, -12.35595417022705
546,249138972,0.211263,0.5662161,-0.07625032,0.7930658,11.35473918914795,-9.601728439331055,-4.296855926513672,57.80037307739258,-71.39341735839844, -2.828174114227295
547,249155639,0.19769238,0.58308107,-0.057791617,0.78587186,17.14735984802246,5.365137577056885,-8.661060333251953,174.72190856933594,-103.24961853027344, -17.024446487426758
548,249172306,0.20416677,0.59842575,-0.05651171,0.77266365,17.597143173217773,11.083480834960938,3.590643882751465,-3.01167368888855,-134.2974090576172, -63.994632720947266
549,249188973,0.21497105,0.610884,-0.06429587,0.759259,6.698014259338379,-3.757520914077759,1.0501561164855957,-73.1385269165039,-130.8008270263672, -48.70631790161133
550,249205640,0.21676621,0.62490153,-0.061661802,0.7474679,8.254799842834473,6.9564433097839355,-1.7574635744094849,22.114770889282227,-120.75341796875, -43.810699462890625
551,249222307,0.22723565,0.63127553,-0.07066969,0.738147,10.152894020080566,4.749676704406738,0.5789104700088501,-85.3540267944336,-84.49099731445312, -31.35301399230957
552,249238974,0.23258232,0.63680685,-0.07632023,0.7311346,11.096261978149414,0.7795847058296204,0.3653661012649536,-46.27230453491211,-67.43280792236328, -15.855584144592285
553,249255641,0.23190029,0.64334244,-0.07586069,0.72565705,10.400690078735352,1.174925684928894,0.9396410584449768,13.24670124053955,-59.14994430541992, -10.39661693572998
554,249272308,0.23160198,0.64899796,-0.074460916,0.7208454,9.655198097229004,2.151869058609009,0.6830148100852966,15.185640335083008,-50.123870849609375, -14.965785026550293
555,249288975,0.23263238,0.6534005,-0.07392999,0.71657825,10.505026817321777,1.9974851608276367,1.599452257156372,3.2364118099212646,-42.19563674926758, -16.16461181640625
556,249305642,0.23281577,0.6575371,-0.072999135,0.7128205,10.412588119506836,2.2390899658203125,1.3302537202835083,8.851166725158691,-38.410118103027344, -12.842425346374512
557,249322309,0.2315479,0.66208136,-0.07115679,0.7092042,9.614426612854004,1.8966169357299805,1.0758824348449707,20.608211517333984,-39.05583572387695, -9.830737113952637
558,249338976,0.22929643,0.6667946,-0.06893946,0.7057306,9.828256607055664,2.406327724456787,1.0428282022476196,27.25750732421875,-39.13102722167969, -6.602815628051758
559,249355643,0.22756037,0.67122364,-0.06756481,0.70221806,9.256970405578613,2.920907974243164,1.9279422760009766,20.345197677612305,-39.031280517578125, -5.166450023651123
560,249372310,0.22601563,0.6761703,-0.06644709,0.69806564,8.704071044921875,3.0566043853759766,2.3705999851226807,18.74561882019043,-44.82539367675781, -6.136777877807617
561,249388977,0.22554997,0.6815247,-0.06597725,0.6930356,8.367976188659668,3.5892527103424072,1.4763646125793457,10.8671236038208,-51.410560607910156, -9.84113883972168
562,249405644,0.22713752,0.6863596,-0.06744462,0.687583,8.475870132446289,3.3307688236236572,0.20568329095840454,-8.971109390258789,-53.01085662841797, -10.946958541870117
563,249422311,0.22973558,0.6904172,-0.07028004,0.6823537,9.179115295410156,2.0258920192718506,-0.7868281006813049,-21.312013626098633,-49.95981216430664, -8.544153213500977
564,249438978,0.23098208,0.694634,-0.07260214,0.677392,10.805466651916504,0.07899358868598938,-0.8086656928062439,-12.1083345413208,-49.275325775146484, -4.297940254211426
565,249455645,0.22984064,0.6997832,-0.0724678,0.6724768,10.495183944702148,0.28226467967033386,-0.44793176651000977,12.235617637634277,-50.685638427734375, -5.332423210144043
566,249472312,0.22807679,0.70502484,-0.07170554,0.6676671,10.432093620300293,1.6998438835144043,-0.07417941838502884,18.328371047973633,-49.92801284790039, -5.383241653442383
567,249488979,0.22658299,0.7096515,-0.071315944,0.6633016,10.109406471252441,2.3886146545410156,-0.051920726895332336,14.564068794250488,-45.41196823120117, -3.8268110752105713
568,249505646,0.22523242,0.71378666,-0.07106861,0.65933937,9.83646297454834,2.49670147895813,-0.1398078352212906,12.65212345123291,-41.364013671875, -2.917958974838257
569,249522313,0.22328861,0.717927,-0.07049964,0.6555555,9.735892295837402,2.568650245666504,-0.29037368297576904,17.12077522277832,-40.31529998779297, -1.5326101779937744
570,249538980,0.22106399,0.7221744,-0.07003585,0.65168226,9.46571159362793,2.6211721897125244,-0.39321374893188477,18.158403396606445,-41.545982360839844, 0.06435877829790115
571,249555647,0.21845649,0.72682774,-0.06955931,0.6474254,9.409507751464844,2.4607317447662354,-0.1982315331697464,20.55365753173828,-45.4437255859375, 0.9408714771270752
572,249572314,0.2154346,0.7318836,-0.06887338,0.6427994,9.637053489685059,2.595942735671997,0.12749046087265015,23.99020004272461,-48.974552154541016, 0.9929571151733398
573,249588981,0.21206114,0.737428,-0.067995764,0.6376571,9.722524642944336,2.1675689220428467,0.026849694550037384,27.091264724731445,-53.63017272949219, 0.5875242948532104
574,249605648,0.20851316,0.74347955,-0.067144066,0.6318642,9.903039932250977,1.5121101140975952,-0.17678134143352509,28.304170608520508,-59.28635025024414, 0.29482585191726685
575,249622315,0.20544486,0.7495471,-0.06716579,0.62566787,10.12456226348877,1.8273513317108154,-0.17385415732860565,21.896486282348633,-62.4638557434082, 2.0804555416107178
576,249638982,0.20177062,0.7560874,-0.06708317,0.6189672,10.141802787780762,1.7075837850570679,-0.6900488138198853,25.909801483154297,-67.24644470214844, 3.2121410369873047
577,249655649,0.19662881,0.76349205,-0.065708764,0.61163694,10.065903663635254,1.6550143957138062,-0.6163479089736938,39.945072174072266,-73.09422302246094, 1.4633084535598755
578,249672316,0.18987107,0.7716569,-0.06317852,0.6037411,11.444721221923828,1.1037697792053223,-0.4955926537513733,54.064449310302734,-78.442626953125, 1.0758382081985474
579,249688983,0.18110602,0.7805812,-0.059895433,0.5952365,12.568456649780273,1.1912531852722168,0.14336955547332764,68.56874084472656,-84.73550415039062, 4.27494478225708
580,249705650,0.17232262,0.78982925,-0.05705174,0.58585006,13.542488098144531,2.043501138687134,1.2886542081832886,66.91255950927734,-91.37916564941406, 5.4622650146484375
581,249722317,0.16383518,0.7998603,-0.055589087,0.57471,16.160736083984375,2.1621921062469482,2.9110426902770996,59.99390411376953,-105.62327575683594, 9.377652168273926
582,249738984,0.15645659,0.81083274,-0.056247078,0.5611666,18.122665405273438,2.8561806678771973,4.663029193878174,45.67416763305664,-124.59761047363281, 13.580965995788574
583,249755651,0.14990382,0.82199174,-0.057863593,0.54636097,17.38158416748047,1.2534557580947876,5.892214775085449,37.11156463623047,-133.1594696044922, 14.299736022949219
584,249772318,0.13872762,0.8339334,-0.058707256,0.5309078,16.231948852539062,-1.181605339050293,5.23647928237915,66.71394348144531,-140.9090118408203, 26.304412841796875
585,249788985,0.12579536,0.8458109,-0.06040585,0.51490843,14.760058403015137,1.9312716722488403,4.622137546539307,73.38066101074219,-145.43165588378906, 37.09222412109375
586,249805652,0.119623505,0.8555953,-0.06513291,0.49940434,12.114009857177734,4.595481872558594,0.7612382769584656,21.753141403198242,-135.03562927246094, 32.06310272216797
587,249822319,0.11832648,0.8640391,-0.07171607,0.48403734,10.5863618850708,4.40863037109375,-5.65416145324707,-14.318526268005371,-129.0117645263672, 26.973041534423828
588,249838986,0.11618329,0.87225443,-0.07908282,0.4684226,10.153942108154297,2.705751657485962,-4.2418365478515625,-12.197854042053223,-130.7642822265625, 34.37089157104492
589,249855653,0.11361639,0.8798842,-0.08542319,0.45342955,9.562419891357422,3.9174187183380127,-5.247036457061768,-6.478109836578369,-124.55957794189453, 30.397756576538086
590,249872320,0.11199042,0.88648844,-0.091302976,0.43961367,8.224434852600098,3.4206385612487793,-5.728950500488281,-10.833550453186035,-113.32107543945312, 26.211286544799805
591,249888987,0.10751021,0.89217037,-0.09498755,0.428312,5.310866832733154,1.87470281124115,-5.250858306884766,14.073929786682129,-95.29545593261719, 23.985349655151367
592,249905654,0.09856474,0.8959628,-0.09583368,0.42231694,2.738555431365967,2.357630729675293,-0.8244023323059082,51.8910026550293,-57.97483825683594, 24.889297485351562
593,249922321,0.09072259,0.89723974,-0.094562046,0.42164955,4.681480407714844,2.9140818119049072,3.4035253524780273,53.05938720703125,-15.685949325561523, 13.925702095031738
594,249938988,0.082759365,0.89626825,-0.09196135,0.42590785,3.760873317718506,0.9701955914497375,3.1238834857940674,59.48246383666992,21.930238723754883, 10.630558967590332
595,249955655,0.070833385,0.8938209,-0.08730856,0.43410185,3.607481002807617,1.9658329486846924,1.4874475002288818,91.57258605957031,49.13693618774414, 12.773399353027344
596,249972322,0.064638376,0.88889635,-0.083844975,0.44570762,4.609649181365967,2.706547498703003,0.5762802362442017,53.65472412109375,80.3421859741211, 6.147680759429932
597,249988989,0.06622803,0.88155884,-0.08327317,0.45992774,5.3783793449401855,1.0852100849151611,-0.12422014027833939,-2.3363049030303955,106.90284729003906, 2.5398125648498535
598,250005656,0.07255002,0.87254786,-0.08424235,0.47571018,6.392421245574951,0.4162869453430176,-0.23336535692214966,-35.755977630615234,123.6611328125, -1.4114316701889038
599,250022323,0.08373722,0.862066,-0.086320505,0.49232033,6.6266374588012695,1.3014843463897705,0.18166548013687134,-68.8270263671875,135.68911743164062, -9.41263198852539
600,250038990,0.10074285,0.8497485,-0.090403594,0.50951535,7.099641799926758,1.7034119367599487,0.2306656539440155,-110.81281280517578,147.6553497314453, -15.802669525146484
601,250055657,0.12194979,0.8353136,-0.09671952,0.5272807,7.858348846435547,2.325845718383789,-0.1831974983215332,-144.29090881347656,159.45950317382812, -15.775565147399902
602,250072324,0.14701094,0.81802136,-0.106232874,0.5458421,8.699666023254395,2.4519402980804443,-1.2270572185516357,-179.888671875,174.2674102783203, -8.827513694763184
603,250088991,0.17276777,0.7974233,-0.11755611,0.5660814,9.904123306274414,1.7675310373306274,-1.8303635120391846,-192.71551513671875,194.7960205078125, 2.840630292892456
604,250105658,0.19473885,0.7743075,-0.12813467,0.58830804,10.928101539611816,0.995150089263916,-1.6586180925369263,-170.4405059814453,213.31884765625, 17.87257957458496
605,250122325,0.2104235,0.7499179,-0.13600713,0.6122477,11.96186637878418,0.09764788299798965,-1.3832294940948486,-126.21414947509766,225.67286682128906, 32.29275894165039
606,250138992,0.21869592,0.7254131,-0.13980873,0.63749635,12.667313575744629,0.19865782558918,-1.0562646389007568,-69.80081176757812,231.8644561767578, 44.49000930786133
607,250155659,0.22161949,0.70076716,-0.14009908,0.6634625,13.401421546936035,0.7962902188301086,-0.8550785779953003,-27.259286880493164,236.205322265625, 51.62870407104492
608,250172326,0.2211242,0.67546004,-0.13758275,0.68987596,13.871286392211914,1.346290111541748,-0.8472042679786682,1.4386903047561646,242.37388610839844, 55.023902893066406
609,250188993,0.21830341,0.64939106,-0.13257973,0.71628046,14.477062225341797,1.4832735061645508,-0.6086071133613586,22.854345321655273,247.5486602783203, 55.225528717041016
610,250205660,0.21358162,0.62273276,-0.124544695,0.7423447,15.187165260314941,1.6003668308258057,-0.20433759689331055,45.07163619995117,251.77760314941406, 51.09347152709961
611,250222327,0.20733039,0.59619784,-0.112308525,0.76743025,15.357418060302734,2.1956348419189453,-0.6574069857597351,72.39662170410156,251.852294921875, 39.3879280090332
612,250238994,0.20251554,0.5706538,-0.09787626,0.7897861,13.900655746459961,3.0953681468963623,-2.1808416843414307,77.38604736328125,239.71298217773438, 18.172256469726562
613,250255661,0.1994777,0.54892874,-0.08369709,0.80739135,13.359075546264648,2.7976202964782715,-5.36289644241333,71.13333129882812,201.2261505126953, 0.3580525815486908
614,250272328,0.19725533,0.53281105,-0.07271569,0.81970435,12.341950416564941,2.1011388301849365,-9.013229370117188,54.91402816772461,146.28823852539062, -2.5677788257598877
615,250288995,0.19538257,0.5243517,-0.065557174,0.82618594,8.788434028625488,2.953298568725586,-10.160874366760254,39.52123260498047,76.87300109863281, -2.2696776390075684
616,250305662,0.19913657,0.5221561,-0.06744549,0.8265281,7.757389545440674,4.256587505340576,-8.562467575073242,-26.54336166381836,9.666412353515625, -12.679365158081055
617,250322329,0.20682375,0.5249475,-0.07703009,0.82202226,9.358311653137207,0.2594711482524872,-7.809074878692627,-79.85530853271484,-44.68765640258789, -16.328989028930664
618,250338996,0.21041112,0.53406346,-0.08168228,0.81475854,9.263165473937988,-1.6788872480392456,-8.101638793945312,-29.665990829467773,-85.4422836303711, -18.242755889892578
619,250355663,0.21075246,0.5476093,-0.08143848,0.8056521,9.50374984741211,0.36974024772644043,-7.113133907318115,15.030121803283691,-111.66283416748047, -23.224332809448242
620,250372330,0.21197526,0.55547833,-0.084852226,0.79956895,13.070898056030273,-2.432410717010498,16.039047241210938,-15.106852531433105,-73.54264068603516, -6.7875776290893555
621,250388997,0.21271816,0.5583307,-0.08643213,0.7972122,9.132387161254883,-9.47997760772705,12.778950691223145,-8.29549503326416,-29.439424514770508, -2.8233869075775146
622,250405664,0.20227304,0.5691676,-0.07422229,0.79348916,14.35814380645752,-0.1987563520669937,-5.116007328033447,121.14493560791016,-65.02177429199219, -1.2754820585250854
623,250422331,0.19807301,0.58266896,-0.06579807,0.78545207,16.678997039794922,11.80501651763916,-2.6288211345672607,77.52873992919922,-98.42747497558594, -27.920652389526367
624,250438998,0.21023864,0.59224707,-0.07460635,0.7742591,11.678232192993164,4.65700101852417,2.0021908283233643,-87.91128540039062,-105.87503814697266, -49.697364807128906
625,250455665,0.21640316,0.60267115,-0.07940825,0.763971,10.171725273132324,-3.701443910598755,-0.2613966464996338,-40.46464157104492,-103.96762084960938, -33.15084457397461
626,250472332,0.21643002,0.614044,-0.07557743,0.7552458,9.565572738647461,3.4555270671844482,-1.8611663579940796,32.571048736572266,-92.9566421508789, -34.923789978027344
627,250488999,0.2190379,0.621377,-0.076217115,0.7484011,10.457087516784668,4.037341117858887,0.2666172981262207,-6.591529846191406,-69.31282806396484, -24.535188674926758
628,250505666,0.22141495,0.62664807,-0.077127405,0.74319524,9.920132637023926,0.629326343536377,0.3014181852340698,-9.24991226196289,-52.21316909790039, -18.616477966308594
629,250522333,0.22184029,0.6319685,-0.075595334,0.738707,9.69324779510498,1.5819952487945557,1.7472079992294312,12.086625099182129,-46.677268981933594, -18.109630584716797
630,250539000,0.22327279,0.63679576,-0.07469874,0.73420745,9.565643310546875,2.5482892990112305,2.3497133255004883,3.7239067554473877,-44.672203063964844, -20.225019454956055
631,250555667,0.2252593,0.6414395,-0.07458823,0.7295549,9.50688362121582,2.2696428298950195,2.5582427978515625,-3.028932809829712,-45.34558868408203, -19.71021842956543
632,250572334,0.22746482,0.6461344,-0.07514866,0.72465366,9.580151557922363,2.52494478225708,2.2464892864227295,-7.405301570892334,-47.63984680175781, -18.25330352783203
633,250589001,0.22912638,0.6509095,-0.07584302,0.7197678,9.528155326843262,2.188948154449463,1.775575876235962,-5.518895626068115,-48.47249984741211, -14.955648422241211
634,250605668,0.22909278,0.65647715,-0.07487412,0.71480626,9.264810562133789,2.2042274475097656,1.5701825618743896,11.508103370666504,-51.00407028198242, -14.538352966308594
635,250622335,0.22854821,0.66223556,-0.07358063,0.7097857,9.137205123901367,2.8290181159973145,1.2374893426895142,15.681438446044922,-51.965843200683594, -13.679085731506348
636,250639002,0.22855064,0.66758287,-0.07342837,0.7047737,9.42519474029541,2.27321195602417,0.4504241943359375,6.984415054321289,-51.44084548950195, -10.920491218566895
637,250655669,0.22858417,0.6727949,-0.07419784,0.69970775,9.941473960876465,1.8735072612762451,0.5393398404121399,2.132310390472412,-52.46323013305664, -6.852668762207031
638,250672336,0.22859867,0.67785573,-0.07546885,0.6946646,9.96484661102295,1.9872081279754639,0.7036734223365784,-0.41883572936058044,-52.42681121826172, -4.329151630401611
639,250689003,0.22876263,0.68255913,-0.07716062,0.6898022,9.867111206054688,2.090304136276245,0.5340144634246826,-3.5914320945739746,-50.46343994140625, -2.6118013858795166
640,250705670,0.2288132,0.68709373,-0.07881042,0.6850809,9.764836311340332,1.8976411819458008,0.49176838994026184,-3.0499351024627686,-48.99689865112305, -1.9579284191131592
641,250722337,0.2285898,0.69163173,-0.08009458,0.6804243,9.877710342407227,1.8263487815856934,0.7912853360176086,0.007318887859582901,-48.283111572265625, -2.295287847518921
642,250739004,0.22820802,0.69628835,-0.08096543,0.6756837,9.894174575805664,1.588794231414795,0.4780188202857971,2.838557720184326,-48.68227767944336, -3.7187647819519043
643,250755671,0.227247,0.7010155,-0.08103645,0.67109555,9.962018013000488,1.5576952695846558,-0.09533438086509705,9.523195266723633,-47.352630615234375, -4.661857604980469
644,250772338,0.22549555,0.705741,-0.08030054,0.66680837,9.842153549194336,2.059480667114258,-0.48301807045936584,17.2197208404541,-45.07425308227539, -4.439101696014404
645,250789005,0.22405306,0.7100227,-0.08028673,0.66273844,9.892895698547363,2.3786537647247314,0.09675991535186768,11.84121036529541,-42.93128204345703, -1.7707078456878662
646,250805672,0.22446501,0.7132746,-0.08234617,0.65884304,9.704967498779297,2.496346950531006,0.34687182307243347,-8.145320892333984,-39.56130599975586, 0.7411013245582581
647,250822339,0.22571374,0.71603197,-0.08503572,0.655073,9.477441787719727,2.337108612060547,-0.16217955946922302,-15.789896965026855,-37.21434020996094, 0.5202417373657227
648,250839006,0.22612198,0.7192076,-0.08684274,0.6512049,9.503668785095215,1.989411473274231,-0.2785564064979553,-7.084126949310303,-38.70668411254883, -0.4307183027267456
649,250855673,0.22537471,0.7228663,-0.087883174,0.64726126,9.740094184875488,2.0521438121795654,-0.17206478118896484,2.770676374435425,-40.74416732788086, 0.5467255115509033
650,250872340,0.22378772,0.7270934,-0.08822292,0.6430172,9.797056198120117,1.6538060903549194,-0.433289110660553,10.76371955871582,-44.195404052734375, -0.008580316789448261
651,250889007,0.22139385,0.73201793,-0.087886,0.6382873,9.785294532775879,1.3812439441680908,-0.5386205911636353,18.568470001220703,-49.15867233276367, -1.0000063180923462
652,250905674,0.2177763,0.7378953,-0.086898975,0.6328766,9.571527481079102,1.8888455629348755,-0.6639374494552612,28.6175479888916,-56.52251434326172, -0.5229035019874573
653,250922341,0.21322817,0.744532,-0.085832834,0.6267684,9.413557052612305,2.6132092475891113,-0.26681721210479736,34.406436920166016,-63.80683517456055, 1.6232796907424927
654,250939008,0.20827074,0.7515233,-0.084562585,0.6202301,9.479265213012695,2.5652964115142822,-0.7783181071281433,37.656822204589844,-67.48886108398438, 1.50705087184906
655,250955675,0.20262408,0.7588441,-0.08235649,0.61344665,9.773606300354004,1.8013362884521484,-1.0722923278808594,45.5421257019043,-69.22882843017578, -0.9278296828269958
656,250972342,0.19623882,0.7665426,-0.07893062,0.60636014,10.84204387664795,0.8186038732528687,-0.9159696102142334,54.89814758300781,-71.12841796875, -4.818911075592041
657,250989009,0.18912974,0.7744039,-0.07566635,0.59900177,12.386353492736816,0.9344432950019836,-0.07455474883317947,58.11077117919922,-73.86519622802734, -1.4244946241378784
658,251005676,0.1815413,0.78223634,-0.07383997,0.5913517,12.898300170898438,0.5045918226242065,-0.38665279746055603,54.55379867553711,-77.45014190673828, 7.820157527923584
659,251022343,0.17252746,0.7905464,-0.07228114,0.58313483,14.554245948791504,1.85525643825531,1.0527608394622803,61.44294738769531,-83.53131866455078, 14.077506065368652
660,251039010,0.16511835,0.7988846,-0.07344124,0.57369506,17.040746688842773,2.1667916774749756,2.370030641555786,41.25950622558594,-92.7782974243164, 20.943126678466797
661,251055677,0.15972464,0.80704015,-0.07592516,0.56339127,15.555537223815918,1.046217918395996,2.8891351222991943,24.349258422851562,-97.37812805175781, 19.36070442199707
662,251072344,0.15367973,0.81560576,-0.07838138,0.5522917,14.15291976928711,0.7000626921653748,3.6438663005828857,28.12566566467285,-103.78688049316406, 20.617908477783203
663,251089011,0.14677908,0.8241512,-0.07984931,0.54116046,12.791067123413086,1.2094194889068604,2.728670835494995,36.658321380615234,-103.41036987304688, 18.279342651367188
664,251105678,0.13699324,0.83314824,-0.08013451,0.5297881,11.815378189086914,2.851106882095337,0.40949803590774536,57.75132751464844,-106.94164276123047, 21.809057235717773
665,251122345,0.13010977,0.8421508,-0.08185774,0.5168686,10.16292667388916,5.5646257400512695,-2.7858176231384277,35.06427001953125,-115.64485931396484, 18.022958755493164
666,251139012,0.12775245,0.850591,-0.08631955,0.502716,9.929900169372559,3.857269763946533,-5.593047142028809,-2.035804033279419,-120.71001434326172, 17.04791831970215
667,251155679,0.12343916,0.8585839,-0.09035798,0.48931786,10.225550651550293,1.7465448379516602,-4.482481002807617,10.935194969177246,-115.53170776367188, 22.283292770385742
668,251172346,0.115698904,0.866082,-0.09201814,0.47754434,8.535111427307129,3.489729166030884,-4.342742919921875,39.76033401489258,-104.3998031616211, 21.460596084594727
669,251189013,0.110124126,0.8718175,-0.09338642,0.46806616,7.329345703125,3.598719358444214,-1.9856247901916504,27.89518165588379,-83.34797668457031, 15.574769973754883
670,251205680,0.10575848,0.8752819,-0.094161585,0.46241808,6.515954494476318,1.7886415719985962,2.377373456954956,23.328712463378906,-51.88218307495117, 12.510485649108887
671,251222347,0.09931504,0.8769047,-0.09269704,0.4610663,5.80445671081543,0.295407235622406,1.6331613063812256,44.4244384765625,-19.965412139892578, 9.959437370300293
672,251239014,0.090227775,0.8770679,-0.08994652,0.463164,6.029555797576904,0.4544583857059479,1.920033574104309,65.65302276611328,4.589144706726074, 13.872130393981934
673,251255681,0.08264307,0.87547636,-0.086983174,0.46812946,5.973365306854248,1.0504558086395264,1.223851203918457,57.96839141845703,28.463958740234375, 10.672748565673828
674,251272348,0.07888534,0.87214404,-0.08460476,0.4753776,6.069292068481445,0.7416852116584778,0.5906991362571716,33.44271469116211,49.70313262939453, 4.225848197937012
675,251289015,0.07857459,0.86745286,-0.08266955,0.48426983,6.4748759269714355,0.5414116978645325,0.5878818035125732,11.55700969696045,65.71635437011719, -2.6930127143859863
676,251305682,0.08182673,0.8615972,-0.081673265,0.49425113,7.247986793518066,1.3350787162780762,0.7805005311965942,-12.815813064575195,77.5534896850586, -7.703995704650879
677,251322349,0.090359256,0.8542434,-0.08296281,0.5051936,7.668986797332764,2.1250104904174805,0.6603238582611084,-52.14634323120117,89.95843505859375, -10.721657752990723
678,251339016,0.10439933,0.84497195,-0.08718908,0.5172244,7.983700275421143,2.3241586685180664,0.08058229833841324,-95.23950958251953,104.2723388671875, -10.832170486450195
679,251355683,0.122724846,0.833529,-0.09427198,0.530359,8.516521453857422,1.8451000452041626,-0.6771528124809265,-131.16928100585938,118.87846374511719, -7.3875837326049805
680,251372350,0.14191012,0.8199589,-0.10276061,0.5449489,9.00457763671875,1.21349036693573,-1.174323558807373,-142.06399536132812,134.30784606933594, 0.12579451501369476
681,251389017,0.15897729,0.80467516,-0.11095343,0.56117165,9.352499008178711,1.158839464187622,-1.308695912361145,-129.51576232910156,148.69532775878906, 9.171034812927246
682,251405684,0.17288078,0.78795505,-0.118112035,0.57904136,10.00594711303711,0.8404332995414734,-1.3625779151916504,-108.33460998535156,162.03909301757812, 18.53293800354004
683,251422351,0.18263493,0.7703099,-0.12348839,0.5983459,10.797954559326172,0.5638121962547302,-1.349543571472168,-78.6891098022461,172.22140502929688, 27.833946228027344
684,251439018,0.18818761,0.75205463,-0.12671271,0.6188242,11.603110313415527,0.3289664387702942,-1.3980088233947754,-47.355438232421875,180.0658416748047, 35.698795318603516
685,251455685,0.19029106,0.7333018,-0.12769319,0.64011896,12.069497108459473,0.7452679872512817,-1.224290132522583,-19.918155670166016,186.2900390625, 40.253387451171875
686,251472352,0.19071963,0.713813,-0.12705939,0.6617802,12.207005500793457,1.240437388420105,-0.9150071144104004,-5.009089469909668,192.01434326171875, 40.61476516723633
687,251489019,0.1907587,0.69344795,-0.12564811,0.6833401,12.469409942626953,1.5356831550598145,-0.4883231818675995,-0.8225398063659668,196.18344116210938, 39.219974517822266
688,251505686,0.1909165,0.672305,-0.12369819,0.70445424,12.650848388671875,1.5712944269180298,-0.12174201011657715,-0.26402798295021057,198.52691650390625, 36.20316696166992
689,251522353,0.19118953,0.65072113,-0.12115705,0.7247962,12.641800880432129,1.7090991735458374,0.3026385009288788,0.8192808032035828,197.97633361816406, 32.29730987548828
690,251539020,0.19176768,0.6289053,-0.11806462,0.7441533,12.589982032775879,1.8748791217803955,0.4129321277141571,1.0604925155639648,195.71983337402344, 27.234832763671875
691,251555687,0.19249015,0.6074998,-0.11420589,0.7621343,12.543641090393066,2.1354949474334717,0.10674150288105011,3.76840877532959,188.81982421875, 21.065174102783203
692,251572354,0.19372466,0.58720005,-0.10951436,0.7782503,12.318379402160645,2.729017972946167,-0.6573245525360107,5.975021839141846,176.77867126464844, 11.599693298339844
693,251589021,0.19580187,0.56881714,-0.10470309,0.7919257,11.843696594238281,2.5635781288146973,-2.0057060718536377,3.902224540710449,157.5247039794922, 1.95180082321167
694,251605688,0.19757448,0.55365086,-0.09969099,0.8028056,11.35339641571045,2.4418625831604004,-3.8241565227508545,8.471881866455078,129.21627807617188, -3.2225241661071777
695,251622355,0.19894186,0.5428958,-0.095977634,0.81023127,10.367575645446777,1.842924952507019,-5.887325763702393,6.4307074546813965,89.79935455322266, -3.7335166931152344
696,251639022,0.19967969,0.5375511,-0.09258246,0.81399983,9.139372825622559,1.2507107257843018,-6.614288330078125,11.951858520507812,45.315189361572266, -7.602024555206299
697,251655689,0.2008507,0.5372421,-0.09054434,0.8141448,8.423772811889648,1.5405713319778442,-5.7512359619140625,7.321633338928223,2.3160879611968994, -13.192934036254883
