PacketCounter,SampleTimeFine,Quat_W,Quat_X,Quat_Y,Quat_Z,Acc_X,Acc_Y,Acc_Z,Gyr_X,Gyr_Y,Gyr_Z 
2,228963675,0.43566784,0.4144739,-0.62293154,0.5003612,9.435800552368164,-2.5535364151000977,-1.2141902446746826,-1.7989463806152344,0.12628981471061707, -0.2875537574291229
3,228980342,0.43583548,0.41457716,-0.6232125,0.49977952,9.429801940917969,-2.556835889816284,-1.1953717470169067,-1.7068688869476318,0.25298309326171875, -0.10882836580276489
4,228997009,0.43606216,0.41456375,-0.6234266,0.49932563,9.435394287109375,-2.5652871131896973,-1.1754776239395142,-1.853924036026001,0.28446102142333984, -0.09378089010715485
5,229013676,0.43633795,0.41442615,-0.6235934,0.49899063,9.425126075744629,-2.597332715988159,-1.1482014656066895,-1.9396371841430664,0.22966265678405762, -0.14642779529094696
6,229030343,0.43660173,0.41419917,-0.6237329,0.4987737,9.412758827209473,-2.623634099960327,-1.156308650970459,-2.1503143310546875,0.08301716297864914, -0.3501768708229065
7,229047010,0.43677413,0.41398156,-0.6238637,0.49863976,9.398792266845703,-2.597874402999878,-1.1708548069000244,-2.2418413162231445,-0.08397123962640762, -0.5131120681762695
8,229063677,0.43696675,0.4137475,-0.6240232,0.4984657,9.407057762145996,-2.57416033744812,-1.1740689277648926,-2.079866409301758,-0.15455985069274902, -0.6821814775466919
9,229080344,0.43713486,0.41355845,-0.62416035,0.49830356,9.398283958435059,-2.553985357284546,-1.2132006883621216,-1.8557679653167725,-0.16061723232269287, -0.5924857258796692
10,229097011,0.43734366,0.4133442,-0.6243366,0.4980773,9.433745384216309,-2.5705299377441406,-1.211822509765625,-2.418466567993164,0.13369189202785492, -0.4611694812774658
11,229113678,0.43936077,0.41092154,-0.62656224,0.49550515,9.381762504577637,-2.6104342937469482,-0.9793582558631897,-31.56536865234375,2.865450143814087, 1.7432384490966797
12,229130345,0.44125846,0.40787295,-0.6298936,0.4921025,9.22289752960205,-2.5996041297912598,-1.252995491027832,-41.11180877685547,-1.9581665992736816, 5.339658737182617
13,229147012,0.44217026,0.4060273,-0.6324867,0.48947722,9.43858528137207,-2.5854976177215576,-1.3462663888931274,-30.505958557128906,-4.96844482421875, 3.787240982055664
14,229163679,0.44257644,0.40505633,-0.6341434,0.48776808,9.463423728942871,-2.5351197719573975,-1.2913005352020264,-18.938888549804688,-4.408156871795654, 1.9402477741241455
15,229180346,0.44267654,0.4047302,-0.63504124,0.48677886,9.428686141967773,-2.557286262512207,-1.2991905212402344,-11.327554702758789,-3.328896999359131, 0.5955403447151184
16,229197013,0.44276658,0.40459773,-0.6355868,0.4860946,9.439879417419434,-2.5921435356140137,-1.3282461166381836,-6.660314083099365,-2.528165817260742, -0.3897612690925598
17,229213680,0.44274834,0.40472382,-0.63578814,0.48574287,9.425769805908203,-2.538191795349121,-1.3305766582489014,-3.3112614154815674,-1.7800445556640625, -1.052182674407959
18,229230347,0.44264543,0.40502796,-0.63573736,0.48564962,9.432955741882324,-2.5477492809295654,-1.3288875818252563,-0.836702823638916,-1.175802230834961, -1.3370468616485596
19,229247014,0.44249797,0.40542743,-0.63552445,0.4857293,9.447701454162598,-2.5204789638519287,-1.3226128816604614,1.2178006172180176,-0.8144966959953308, -1.533035397529602
20,229263681,0.44224313,0.40599856,-0.63509697,0.48604327,9.427706718444824,-2.532283306121826,-1.3526822328567505,3.2293710708618164,-0.41988182067871094, -1.6591140031814575
21,229280348,0.44190544,0.40669465,-0.63449025,0.48656076,9.430469512939453,-2.5293636322021484,-1.3521363735198975,5.23980188369751,-0.0329507440328598, -1.7669564485549927
22,229297015,0.44155547,0.40741014,-0.6337624,0.48722813,9.421088218688965,-2.5306808948516846,-1.3530422449111938,6.723546028137207,0.5722582340240479, -1.7180873155593872
23,229313682,0.4411392,0.40821555,-0.6328927,0.48806053,9.42695140838623,-2.519117832183838,-1.3117551803588867,8.05748176574707,0.9892459511756897, -1.7288833856582642
24,229330349,0.4408391,0.40888906,-0.6320475,0.48886278,9.415006637573242,-2.5398714542388916,-1.292402982711792,9.047452926635742,1.2486387491226196, -1.8218575716018677
25,229347016,0.44045448,0.4097019,-0.6310791,0.48977888,9.426957130432129,-2.5513322353363037,-1.262125015258789,9.580771446228027,1.3681987524032593, -2.0090222358703613
26,229363683,0.44015098,0.41041222,-0.6302039,0.49058327,9.39933967590332,-2.5609822273254395,-1.2581825256347656,9.281373023986816,1.1588149070739746, -2.072439193725586
27,229380350,0.43990007,0.41105142,-0.6294326,0.49126273,9.40656566619873,-2.558551073074341,-1.2470146417617798,8.480820655822754,0.8217515349388123, -2.1152634620666504
28,229397017,0.43955237,0.41178873,-0.62864536,0.49196443,9.411897659301758,-2.5464882850646973,-1.2646193504333496,7.479158878326416,0.6302453875541687, -1.9763401746749878
29,229413684,0.43941996,0.4121866,-0.62811494,0.49242678,9.419343948364258,-2.511549711227417,-1.2690967321395874,6.31682825088501,0.6244568228721619, -1.5646671056747437
30,229430351,0.43920594,0.41261348,-0.62762606,0.49288356,9.421955108642578,-2.5044524669647217,-1.2407011985778809,5.041969299316406,0.42771291732788086, -1.1077622175216675
31,229447018,0.43897003,0.41301253,-0.62717724,0.49333042,9.435466766357422,-2.511892080307007,-1.2499703168869019,3.9337079524993896,0.5184715390205383, -0.6945396661758423
32,229463685,0.4389245,0.41311938,-0.6269439,0.49357802,9.423741340637207,-2.528671979904175,-1.2386229038238525,2.8123321533203125,0.6144934892654419, -0.3129744231700897
33,229480352,0.43900958,0.41303584,-0.62685,0.49369138,9.429171562194824,-2.543181896209717,-1.2271114587783813,1.9169632196426392,0.7280345559120178, -0.09278199821710587
34,229497019,0.43900064,0.41309023,-0.62670344,0.4938399,9.388927459716797,-2.5777647495269775,-1.220358967781067,1.0706045627593994,0.6092429757118225, -0.17181000113487244
35,229513686,0.43916842,0.41296786,-0.6267905,0.49368244,9.392264366149902,-2.593733310699463,-1.1706115007400513,-1.759989619255066,0.30995848774909973, -0.33705034852027893
36,229530353,0.43959796,0.41254842,-0.62729526,0.49300912,9.400575637817383,-2.591871738433838,-1.1945468187332153,-8.829109191894531,0.17588886618614197, -0.10868752002716064
37,229547020,0.44006607,0.412027,-0.6278786,0.49228463,9.398233413696289,-2.5432004928588867,-1.2074179649353027,-7.885305881500244,-0.19796058535575867, 0.0015687781851738691
38,229563687,0.4403829,0.4116768,-0.6283105,0.49174294,9.44564437866211,-2.5278377532958984,-1.2289975881576538,-5.423003196716309,-0.517005205154419, -0.1346459686756134
39,229580354,0.4405544,0.41148984,-0.62857777,0.4914041,9.436543464660645,-2.531238555908203,-1.2616724967956543,-3.3662257194519043,-0.5504425168037415, -0.15741564333438873
40,229597021,0.4406075,0.41146308,-0.62868565,0.49124092,9.432304382324219,-2.528665781021118,-1.2630746364593506,-1.958936095237732,-0.4239157736301422, -0.2694711983203888
41,229613688,0.4406779,0.41139105,-0.6287667,0.49113438,9.423582077026367,-2.5495572090148926,-1.2650240659713745,-0.9228254556655884,-0.183681458234787, -0.15367619693279266
42,229630355,0.44070417,0.41136673,-0.62878543,0.49110723,9.412269592285156,-2.5515382289886475,-1.2448458671569824,-0.44134521484375,-0.023179491981863976, -0.10426928848028183
43,229647022,0.44071266,0.41134414,-0.628802,0.49109727,9.422329902648926,-2.5421719551086426,-1.2310914993286133,-0.21230365335941315,-0.07453295588493347, -0.0230514295399189
44,229663689,0.44069153,0.4113649,-0.6287906,0.4911135,9.435640335083008,-2.545336961746216,-1.2201948165893555,-0.08029580861330032,-0.11550045758485794, -0.0727272555232048
45,229680356,0.44063774,0.41143295,-0.6287577,0.49114665,9.401863098144531,-2.5602962970733643,-1.2058613300323486,0.277263879776001,-0.30301105976104736, -0.17407670617103577
46,229697023,0.44058058,0.41153535,-0.6287067,0.49117744,9.41840648651123,-2.5794825553894043,-1.1903620958328247,0.5104418396949768,-0.411442369222641, -0.38570162653923035
47,229713690,0.44049832,0.41166115,-0.62866867,0.49119443,9.421009063720703,-2.5738635063171387,-1.2116549015045166,0.7452718615531921,-0.7409882545471191, -0.44302284717559814
48,229730357,0.4404667,0.41172975,-0.62867904,0.4911522,9.429878234863281,-2.5446531772613525,-1.1839187145233154,1.0350794792175293,-0.9210839867591858, -0.5552576780319214
49,229747024,0.44034678,0.41190866,-0.6286093,0.49119902,9.434215545654297,-2.5434224605560303,-1.23451566696167,1.1105986833572388,-0.882050096988678, -0.5328593850135803
50,229763691,0.44026738,0.41201174,-0.6285928,0.4912049,9.43161392211914,-2.5142948627471924,-1.2511334419250488,0.6466502547264099,-0.7913939356803894, -0.3466166853904724
51,229780358,0.44023278,0.4120157,-0.6286344,0.4911793,9.423871040344238,-2.541492462158203,-1.2471379041671753,-0.022026922553777695,-0.5488929748535156, -0.0062623051926493645
52,229797025,0.4402739,0.41190374,-0.62875384,0.49108344,9.432950973510742,-2.5313897132873535,-1.2369886636734009,-0.26168492436408997,-0.498256653547287, 0.12613613903522491
53,229813692,0.44029337,0.4118158,-0.6288716,0.49098894,9.414770126342773,-2.5498898029327393,-1.2098418474197388,-0.5712271332740784,-0.543680727481842, 0.15890757739543915
54,229830359,0.44028366,0.4117879,-0.62897605,0.49088728,9.416521072387695,-2.5584139823913574,-1.1848734617233276,-0.6464901566505432,-0.7629767656326294, -0.01558532752096653
55,229847026,0.44025096,0.4118044,-0.62907034,0.49078196,9.410848617553711,-2.5696074962615967,-1.2217682600021362,-0.7638987898826599,-0.9125804305076599, -0.1276921033859253
56,229863693,0.4401839,0.41188005,-0.6291521,0.49067378,9.39774227142334,-2.587012529373169,-1.2080134153366089,-0.595853865146637,-1.196138620376587, -0.2971073091030121
57,229880360,0.44014078,0.41193262,-0.62924474,0.49054936,9.40954875946045,-2.5629255771636963,-1.211295247077942,-0.5924729704856873,-1.1642508506774902, -0.33829253911972046
58,229897027,0.440153,0.41189364,-0.6293994,0.49037263,9.430368423461914,-2.5495574474334717,-1.2406649589538574,-0.3959851562976837,-1.2400901317596436, -0.2606092393398285
59,229913694,0.44012287,0.41190946,-0.6295015,0.49025533,9.413522720336914,-2.554654359817505,-1.2369248867034912,-0.2989642024040222,-1.1155226230621338, -0.23813407123088837
60,229930361,0.44003952,0.41198575,-0.62956053,0.49019027,9.432839393615723,-2.554668664932251,-1.250117301940918,-0.3592052757740021,-1.0692917108535767, -0.1811458021402359
61,229947028,0.44000036,0.41201314,-0.62966,0.49007466,9.419337272644043,-2.574828863143921,-1.2453386783599854,-0.7184491157531738,-1.0510427951812744, -0.19469495117664337
62,229963695,0.43999398,0.4119937,-0.6298173,0.48989463,9.428452491760254,-2.5552785396575928,-1.2305923700332642,-1.6078754663467407,-1.060340166091919, -0.11224763840436935
63,229980362,0.44003105,0.4119061,-0.6300273,0.4896651,9.41102123260498,-2.5500361919403076,-1.2417491674423218,-1.8122906684875488,-1.0835708379745483, -0.03657493740320206
64,229997029,0.4400518,0.41184387,-0.6302317,0.48943558,9.411152839660645,-2.5742435455322266,-1.1913477182388306,-1.8865545988082886,-1.1678110361099243, -0.07801628112792969
65,230013696,0.44004247,0.4118296,-0.630447,0.48917854,9.419607162475586,-2.5991406440734863,-1.1888680458068848,-1.934565782546997,-1.5471863746643066, -0.2237909734249115
66,230030363,0.44003695,0.4118268,-0.6306553,0.48891717,9.433088302612305,-2.600391149520874,-1.2206436395645142,-2.022186517715454,-1.5395922660827637, -0.3103106915950775
67,230047030,0.4400305,0.41185212,-0.630809,0.48870337,9.42996597290039,-2.5544378757476807,-1.2592986822128296,-2.070556402206421,-1.2051160335540771, -0.3719092309474945
68,230063697,0.44007525,0.41177836,-0.6310336,0.48843515,9.406706809997559,-2.534602403640747,-1.2672065496444702,-1.8912290334701538,-1.3118313550949097, -0.2338823825120926
69,230080364,0.44001344,0.41178378,-0.63120025,0.48827085,9.390152931213379,-2.5204761028289795,-1.2934067249298096,-1.7844367027282715,-1.2846434116363525, 0.08448989689350128
70,230097031,0.44000933,0.41168228,-0.63141114,0.48808783,9.401567459106445,-2.538673162460327,-1.2876516580581665,-1.4181623458862305,-1.1471158266067505, 0.27202606201171875
71,230113698,0.43994892,0.41162196,-0.63159657,0.48795286,9.428625106811523,-2.550882577896118,-1.2493022680282593,-1.1917206048965454,-1.2217899560928345, 0.4051225185394287
72,230130365,0.4399094,0.41153768,-0.6318317,0.48775533,9.428577423095703,-2.5893521308898926,-1.2426607608795166,-1.4763672351837158,-1.4588737487792969, 0.3491075038909912
73,230147032,0.43983907,0.41152385,-0.63206244,0.4875314,9.40439224243164,-2.6037280559539795,-1.25596284866333,-1.737181305885315,-1.7731672525405884, 0.11651858687400818
74,230163699,0.43978447,0.41150647,-0.632321,0.48725998,9.414889335632324,-2.6332058906555176,-1.221164584159851,-1.7387564182281494,-2.0088422298431396, -0.0431445948779583
75,230180366,0.4396229,0.4116852,-0.6324998,0.48702288,9.402427673339844,-2.6267552375793457,-1.2774327993392944,-1.8952630758285522,-2.4129981994628906, -0.45590606331825256
76,230197033,0.43958092,0.41172582,-0.6327845,0.48665643,9.412095069885254,-2.5701277256011963,-1.343721628189087,-1.607401728630066,-2.640387535095215, -0.6414316296577454
77,230213700,0.43948263,0.4118148,-0.6329879,0.48640507,9.418527603149414,-2.517426013946533,-1.3744083642959595,-1.1569385528564453,-2.305936813354492, -0.4561365246772766
78,230230367,0.4393514,0.41189304,-0.63316375,0.48622864,9.412702560424805,-2.5301036834716797,-1.3777363300323486,-1.0667433738708496,-2.009021759033203, -0.09074579179286957
79,230247034,0.43923002,0.411943,-0.6333089,0.48610705,9.417728424072266,-2.5417776107788086,-1.3226898908615112,-0.8145095109939575,-1.6256637573242188, 0.07699817419052124
80,230263701,0.43906105,0.4120511,-0.6334147,0.48603025,9.404855728149414,-2.57908296585083,-1.29924476146698,-1.0569720268249512,-1.5503110885620117, 0.13757219910621643
81,230280368,0.43907255,0.41194364,-0.6336596,0.4857914,9.41026782989502,-2.58988094329834,-1.3069723844528198,-1.4352329969406128,-1.4455933570861816, 0.08459232747554779
82,230297035,0.43899015,0.4119682,-0.633855,0.48559007,9.375368118286133,-2.5827324390411377,-1.2920886278152466,-1.7927865982055664,-1.6852389574050903, -0.0073508452624082565
83,230313702,0.43889624,0.41205466,-0.63403106,0.48537165,9.378745079040527,-2.5746922492980957,-1.3410041332244873,-1.7288188934326172,-1.8996171951293945, -0.3282139003276825
84,230330369,0.43884233,0.4120872,-0.63423514,0.48512608,9.401045799255371,-2.557553768157959,-1.363348364830017,-1.785179615020752,-1.822241187095642, -0.2972353994846344
85,230347036,0.43877319,0.41214085,-0.6344022,0.4849246,9.375682830810547,-2.5340769290924072,-1.3885451555252075,-1.622846245765686,-1.6530948877334595, -0.27228862047195435
86,230363703,0.4387547,0.4121126,-0.6345906,0.48471865,9.384142875671387,-2.5422146320343018,-1.355137586593628,-1.4569014310836792,-1.4064316749572754, -0.13467156887054443
87,230380370,0.43883952,0.41193366,-0.63484776,0.48445746,9.392796516418457,-2.5581705570220947,-1.3614277839660645,-1.4136927127838135,-1.152814507484436, 0.015143507160246372
88,230397037,0.4388076,0.4119101,-0.6349771,0.48433694,9.403721809387207,-2.561558961868286,-1.360655426979065,-1.3621858358383179,-0.9230689406394958, 0.05657205730676651
89,230413704,0.43884933,0.4117775,-0.63518494,0.48413908,9.432469367980957,-2.5848841667175293,-1.3260148763656616,-1.6236273050308228,-0.9297025203704834, 0.1418239325284958
90,230430371,0.43882328,0.41174227,-0.6353399,0.48398927,9.408656120300293,-2.5787291526794434,-1.3766814470291138,-1.8308085203170776,-0.973577082157135, 0.09792374819517136
91,230447038,0.43876386,0.41177016,-0.6354519,0.48387247,9.3923978805542,-2.5489823818206787,-1.367862343788147,-1.8663972616195679,-0.9465301036834717, 0.001146168215200305
92,230463705,0.43872142,0.4117768,-0.6355758,0.4837429,9.382890701293945,-2.5964412689208984,-1.3698807954788208,-2.0154378414154053,-0.8906944990158081, 0.023608505725860596
93,230480372,0.4387515,0.4117265,-0.63574064,0.48354164,9.389138221740723,-2.621380090713501,-1.3437809944152832,-2.066586494445801,-0.9197008609771729, -0.19413146376609802
94,230497039,0.4387696,0.41173416,-0.6358651,0.48335487,9.390604972839355,-2.6024441719055176,-1.3378695249557495,-1.89635169506073,-0.9434694051742554, -0.4484271705150604
95,230513706,0.43878508,0.4117874,-0.6359789,0.48314583,9.397570610046387,-2.626159191131592,-1.3666836023330688,-1.7774829864501953,-1.1529556512832642, -0.7473017573356628
96,230530373,0.43882388,0.4118468,-0.6361027,0.4828968,9.405558586120605,-2.571732997894287,-1.3895471096038818,-1.644745111465454,-1.321359395980835, -1.0123292207717896
97,230547040,0.43890998,0.41182303,-0.6362403,0.48265746,9.409272193908691,-2.549333333969116,-1.4065909385681152,-1.5671000480651855,-0.9784433841705322, -0.8126524686813354
98,230563707,0.43899983,0.41175655,-0.6363712,0.48245984,9.430516242980957,-2.5342211723327637,-1.3997676372528076,-1.5865916013717651,-0.6596807837486267, -0.5198866128921509
99,230580374,0.4388513,0.41200662,-0.63628966,0.48248914,9.404496192932129,-2.5666356086730957,-1.3743642568588257,-1.8183095455169678,-0.5313738584518433, -0.4737068712711334
100,230597041,0.4388517,0.41209307,-0.6363535,0.4823305,9.380241394042969,-2.6372830867767334,-1.3423763513565063,-2.0479657649993896,-0.8375481367111206, -0.721381664276123
101,230613708,0.43887615,0.41223758,-0.63644457,0.48206452,9.390799522399902,-2.672891616821289,-1.334037184715271,-1.9358845949172974,-1.4680687189102173, -1.3994522094726562
102,230630375,0.4390039,0.41230312,-0.63659257,0.48169675,9.384714126586914,-2.602842092514038,-1.3865739107131958,-1.7361441850662231,-1.581161618232727, -1.7690693140029907
103,230647042,0.43909737,0.41241413,-0.63672477,0.4813418,9.392926216125488,-2.575974941253662,-1.4097981452941895,-1.872135043144226,-1.6753779649734497, -1.7917364835739136
104,230663709,0.43919903,0.41249716,-0.6368356,0.48103103,9.399620056152344,-2.540470600128174,-1.3973171710968018,-1.6548750400543213,-1.375453233718872, -1.638457179069519
105,230680376,0.43925968,0.4126017,-0.63690805,0.48079002,9.42063045501709,-2.5156025886535645,-1.4104336500167847,-1.4759702682495117,-1.202554702758789, -1.4279338121414185
106,230697043,0.43936384,0.41260433,-0.63699466,0.48057786,9.400732040405273,-2.4956555366516113,-1.4735651016235352,-1.3992855548858643,-0.7497605085372925, -1.0683311223983765
107,230713710,0.43945232,0.4125995,-0.63704544,0.48043364,9.424973487854004,-2.514036178588867,-1.4460432529449463,-1.4348491430282593,-0.36715808510780334, -0.8036754131317139
108,230730377,0.43963382,0.412459,-0.63713974,0.48026335,9.386584281921387,-2.487699508666992,-1.426056146621704,-1.5182440280914307,0.06092621013522148, -0.6087754368782043
109,230747044,0.43977794,0.41234732,-0.63721186,0.48013142,9.377861976623535,-2.5154311656951904,-1.4059017896652222,-1.582711100578308,0.10670890659093857, -0.47946977615356445
110,230763711,0.43990818,0.4122598,-0.63726807,0.48001269,9.372979164123535,-2.5707905292510986,-1.4004402160644531,-1.6451550722122192,0.12155147641897202, -0.5000367760658264
111,230780378,0.43994793,0.41232777,-0.63724816,0.47994444,9.3765287399292,-2.5870258808135986,-1.3788533210754395,-1.5755780935287476,-0.1244521215558052, -0.7722357511520386
112,230797045,0.44003558,0.4123572,-0.6372439,0.47984427,9.381476402282715,-2.5739524364471436,-1.3761378526687622,-1.339083194732666,-0.10793191194534302, -0.9287548065185547
113,230813712,0.44004068,0.4124974,-0.63717693,0.47980815,9.404041290283203,-2.537835121154785,-1.3983110189437866,-1.180105209350586,-0.2375449687242508, -0.9894057512283325
114,230830379,0.4401304,0.4125106,-0.6371902,0.47969684,9.407983779907227,-2.5155253410339355,-1.423410415649414,-0.9476826786994934,-0.28400638699531555, -0.9482077360153198
115,230847046,0.44020846,0.41254833,-0.6371562,0.47963798,9.407209396362305,-2.524219512939453,-1.4493117332458496,-0.7618753910064697,-0.0476396270096302, -0.945313572883606
116,230863713,0.44024113,0.4126185,-0.6370865,0.4796401,9.3831787109375,-2.499417543411255,-1.4367865324020386,-0.7707501649856567,0.08771708607673645, -0.7590450644493103
117,230880380,0.44028693,0.41266668,-0.63703096,0.4796304,9.370692253112793,-2.527712345123291,-1.4059993028640747,-0.6098767518997192,0.04603242501616478, -0.7603001594543457
118,230897047,0.4402919,0.4127799,-0.63693815,0.47965172,9.380439758300781,-2.553037643432617,-1.407295823097229,-0.5971473455429077,-0.0052762157283723354, -0.8377273678779602
119,230913714,0.44036365,0.41279876,-0.63692063,0.4795929,9.413100242614746,-2.538022518157959,-1.3704264163970947,-0.8355502486228943,-0.0773119330406189, -0.8124476075172424
120,230930381,0.4404419,0.41283068,-0.6369079,0.47951043,9.398036003112793,-2.5318922996520996,-1.397630214691162,-0.9861913919448853,-0.16598311066627502, -0.9466966986656189
121,230947048,0.44047356,0.41289252,-0.63688624,0.4794569,9.407029151916504,-2.5282809734344482,-1.3965414762496948,-0.9862298369407654,-0.2657061517238617, -0.8043156862258911
122,230963715,0.4405632,0.41284657,-0.6369332,0.47935176,9.416379928588867,-2.5232093334198,-1.3728766441345215,-0.9633064270019531,-0.26461759209632874, -0.6430708169937134
123,230980382,0.44058502,0.4128906,-0.6369123,0.4793213,9.414755821228027,-2.5330097675323486,-1.3768401145935059,-0.7680863738059998,-0.2364180088043213, -0.6523426175117493
124,230997049,0.44053617,0.41304085,-0.63685566,0.47931206,9.39921760559082,-2.5909976959228516,-1.3382419347763062,-0.3012949824333191,-0.663804292678833, -0.8847906589508057
125,231013716,0.44054636,0.41311696,-0.6368743,0.47921237,9.416208267211914,-2.528705358505249,-1.3998656272888184,-0.4076773524284363,-0.8941265940666199, -0.9713232517242432
126,231030383,0.44054464,0.41319588,-0.6368989,0.47911328,9.405743598937988,-2.536778688430786,-1.3518966436386108,-0.47729259729385376,-0.9510636329650879, -0.9158462285995483
127,231047050,0.44049108,0.41333905,-0.6369188,0.4790127,9.40842056274414,-2.544405698776245,-1.373265027999878,-0.4530886709690094,-1.3034816980361938, -0.9971280097961426
128,231063717,0.44041848,0.41352203,-0.6369603,0.47886616,9.38795280456543,-2.6075947284698486,-1.3586565256118774,-0.5883749723434448,-1.71126127243042, -1.1853684186935425
129,231080384,0.44021085,0.41395167,-0.63694173,0.47871035,9.343940734863281,-2.6895077228546143,-1.3391504287719727,0.5126446485519409,-2.918618679046631, -1.9985589981079102
130,231097051,0.4400001,0.4144072,-0.6368976,0.47856864,9.383807182312012,-2.5229318141937256,-1.392056941986084,1.2375482320785522,-3.0347468852996826, -2.22916316986084
131,231113718,0.43973845,0.41491973,-0.63683045,0.47845438,9.385929107666016,-2.486233711242676,-1.3914021253585815,1.3197518587112427,-3.1931605339050293, -2.2267425060272217
132,231130385,0.43949714,0.4153489,-0.6368016,0.4783424,9.41555404663086,-2.423252582550049,-1.4148073196411133,1.2022793292999268,-3.024488687515259, -1.865526556968689
133,231147052,0.43937376,0.41561857,-0.636844,0.47816506,9.469169616699219,-2.394463539123535,-1.4556502103805542,0.29713931679725647,-2.499863386154175, -1.6206947565078735
134,231163719,0.43931627,0.41572437,-0.636943,0.47799405,9.453917503356934,-2.431157350540161,-1.4446251392364502,-0.29248422384262085,-1.8929963111877441, -0.9743711948394775
135,231180386,0.43925244,0.4158337,-0.63701713,0.47785857,9.451329231262207,-2.446632146835327,-1.448353886604309,-0.6567863821983337,-1.5995898246765137, -0.8277255296707153
136,231197053,0.4391888,0.4159033,-0.6371105,0.4777321,9.407404899597168,-2.476306915283203,-1.400991678237915,-0.7500935792922974,-1.517859935760498, -0.5793465375900269
137,231213720,0.439061,0.41602814,-0.63718194,0.47764567,9.412898063659668,-2.4531702995300293,-1.4364615678787231,-1.0479563474655151,-1.5798935890197754, -0.4051544964313507
138,231230387,0.43905526,0.41598547,-0.637356,0.4774556,9.399508476257324,-2.492671251296997,-1.4174144268035889,-1.3514283895492554,-1.4450684785842896, -0.3179304301738739
139,231247054,0.43906572,0.41591755,-0.6375692,0.47722065,9.391987800598145,-2.5024406909942627,-1.4452712535858154,-1.7725013494491577,-1.5506185293197632, -0.2923305928707123
140,231263721,0.438989,0.41594967,-0.6376999,0.4770885,9.377156257629395,-2.467834949493408,-1.4856486320495605,-1.6911042928695679,-1.41985285282135, -0.1756519079208374
141,231280388,0.43886548,0.41603106,-0.6378173,0.4769743,9.366422653198242,-2.517119884490967,-1.4910937547683716,-1.3134576082229614,-1.6908609867095947, -0.22034606337547302
142,231297055,0.43868947,0.41616395,-0.6378656,0.47695568,9.39272689819336,-2.466658115386963,-1.511189579963684,-1.0617361068725586,-1.4314298629760742, -0.07025563716888428
143,231313722,0.43865204,0.4160747,-0.63804907,0.47682267,9.391413688659668,-2.4630212783813477,-1.4793336391448975,-1.6886067390441895,-1.1835500001907349, 0.2583361268043518
144,231330389,0.4387022,0.41587222,-0.63830197,0.47661448,9.41219711303711,-2.4803524017333984,-1.4883590936660767,-2.6193079948425293,-0.9094427824020386, 0.39820700883865356
145,231347056,0.43874893,0.41563922,-0.63858825,0.4763914,9.416486740112305,-2.493485450744629,-1.4599167108535767,-3.127912759780884,-0.9074707627296448, 0.634663462638855
146,231363723,0.43881375,0.4153758,-0.63888603,0.4761621,9.404073715209961,-2.500011444091797,-1.4573084115982056,-3.1850671768188477,-0.8244471549987793, 0.6942513585090637
147,231380390,0.438698,0.41536227,-0.6390372,0.4760775,9.388968467712402,-2.530945062637329,-1.4427533149719238,-2.2613065242767334,-1.2134785652160645, 0.4526340365409851
148,231397057,0.43867055,0.41523138,-0.63926136,0.47591585,9.386283874511719,-2.5286905765533447,-1.4958304166793823,-1.549517273902893,-1.3705612421035767, 0.32559505105018616
149,231413724,0.43854907,0.4152279,-0.63940674,0.4758357,9.3840970993042,-2.4875643253326416,-1.4817641973495483,-1.1076595783233643,-1.52168869972229, 0.2289455085992813
150,231430391,0.43837306,0.41529503,-0.63950187,0.47581154,9.363018035888672,-2.5200371742248535,-1.4841665029525757,-0.3453104496002197,-1.6799755096435547, 0.12242230772972107
151,231447058,0.43816647,0.41541857,-0.6395982,0.4757646,9.370094299316406,-2.5145890712738037,-1.5040016174316406,-0.012934413738548756,-2.1187851428985596, -0.1262834221124649
152,231463725,0.43775186,0.41583154,-0.6395481,0.47585264,9.339813232421875,-2.6002633571624756,-1.5032731294631958,0.7411482930183411,-2.701396942138672, -0.42438966035842896
153,231480392,0.43740726,0.4161858,-0.63957477,0.47582415,9.381709098815918,-2.5903501510620117,-1.4865001440048218,0.6995787620544434,-3.0499346256256104, -0.7254412770271301
154,231497059,0.43707785,0.4165062,-0.63963556,0.47576466,9.424821853637695,-2.4473299980163574,-1.5251389741897583,1.1276438236236572,-3.2780539989471436, -0.7721588015556335
155,231513726,0.43668002,0.41681406,-0.6396931,0.47578302,9.398736000061035,-2.456357955932617,-1.4724634885787964,1.2569369077682495,-3.2108724117279053, -0.20189212262630463
156,231530393,0.43624124,0.4171177,-0.63975114,0.4758414,9.394357681274414,-2.502995014190674,-1.482338547706604,1.5442984104156494,-3.2722396850585938, 0.07069744914770126
157,231547060,0.43565208,0.41747358,-0.64002794,0.4756967,9.274888038635254,-2.5266928672790527,-1.4736766815185547,0.5385006666183472,-5.353451728820801, 0.3461621105670929
158,231563727,0.43502325,0.41783193,-0.6403605,0.47551006,9.401436805725098,-2.4806673526763916,-1.599857211112976,0.5649330019950867,-5.899937629699707, 0.4463333785533905
159,231580394,0.43441138,0.418225,-0.640541,0.47548074,9.350322723388672,-2.5082967281341553,-1.5348458290100098,1.14274263381958,-4.861701011657715, 0.3919319808483124
160,231597061,0.43377072,0.4186976,-0.64068705,0.47545296,9.331789016723633,-2.692901134490967,-1.4348052740097046,2.140268087387085,-5.288766860961914, -0.06129119172692299
161,231613728,0.43303573,0.41939935,-0.6408116,0.47533664,9.398819923400879,-2.650881290435791,-1.5501922369003296,2.7251851558685303,-6.643255710601807, -1.0945587158203125
162,231630395,0.43231964,0.42005357,-0.6409197,0.4752649,9.414042472839355,-2.4463694095611572,-1.5895624160766602,2.659245014190674,-6.200425148010254, -0.8528773784637451
163,231647062,0.431664,0.4205293,-0.6410826,0.47522053,9.353240013122559,-2.469784736633301,-1.6025657653808594,2.302140235900879,-5.546827793121338, -0.08860715478658676
164,231663729,0.43081075,0.42113042,-0.6412767,0.47520065,9.292926788330078,-2.512320041656494,-1.5858005285263062,2.644031047821045,-6.694993495941162, 0.2762393653392792
165,231680396,0.42990392,0.42169937,-0.64157385,0.4751161,9.37012004852295,-2.4762866497039795,-1.5832293033599854,2.152446746826172,-7.341305255889893, 0.6860939264297485
166,231697063,0.42889997,0.42239428,-0.6418222,0.47507083,9.332372665405273,-2.6706483364105225,-1.4652258157730103,2.8394689559936523,-7.852277755737305, 0.48014208674430847
167,231713730,0.42790312,0.42315507,-0.6421052,0.47491053,9.355222702026367,-2.5559229850769043,-1.6121468544006348,2.348217487335205,-8.476217269897461, -0.07183082401752472
168,231730397,0.42689013,0.42401782,-0.64235234,0.47471818,9.312653541564941,-2.612182855606079,-1.6149179935455322,1.9174119234085083,-8.67974853515625, -0.5223198533058167
169,231747064,0.42587516,0.42487442,-0.64261514,0.47450852,9.31692886352539,-2.585637331008911,-1.7255558967590332,2.7268762588500977,-9.018465042114258, -0.6858442425727844
170,231763731,0.42488617,0.42573434,-0.6428336,0.47432828,9.358118057250977,-2.4721949100494385,-1.801453948020935,2.8421454429626465,-8.676302909851074, -0.8148937821388245
171,231780398,0.4240438,0.42637157,-0.64314646,0.4740853,9.402568817138672,-2.4553182125091553,-1.7538158893585205,1.816946029663086,-7.9276442527771, -0.3413148820400238
172,231797065,0.42324832,0.42695457,-0.64354163,0.47373533,9.36185359954834,-2.5173535346984863,-1.7205922603607178,0.7111559510231018,-8.082216262817383, -0.31025949120521545
173,231813732,0.42247075,0.42756572,-0.644044,0.47319484,9.355254173278809,-2.7108993530273438,-1.7209668159484863,-0.49928128719329834,-8.960220336914062, -0.7202549576759338
174,231830399,0.42171046,0.42824394,-0.64449704,0.47264263,9.31403923034668,-2.5920281410217285,-1.8245881795883179,-0.47665244340896606,-8.94060230255127, -1.22036874294281
175,231847066,0.4210338,0.42891285,-0.6449086,0.47207755,9.307979583740234,-2.498490810394287,-1.8858609199523926,-0.9188942909240723,-8.395601272583008, -1.559877872467041
176,231863733,0.4204485,0.4295262,-0.64528334,0.47152928,9.33160400390625,-2.455497980117798,-1.952652096748352,-1.1074166297912598,-7.666112899780273, -1.6753268241882324
177,231880400,0.42002445,0.4300425,-0.645643,0.47094402,9.316824913024902,-2.598400115966797,-1.9094723463058472,-1.570750117301941,-6.8053975105285645, -2.005192756652832
178,231897067,0.4197569,0.43047825,-0.64604616,0.47023085,9.295909881591797,-2.619258165359497,-1.9726144075393677,-3.259793519973755,-6.280069351196289, -2.3388240337371826
179,231913734,0.42010435,0.4303724,-0.64679897,0.4689812,9.316386222839355,-2.5366804599761963,-2.1028048992156982,-9.144736289978027,-4.654469013214111, -2.6687417030334473
180,231930401,0.4219553,0.42889246,-0.6480593,0.46693054,9.345223426818848,-2.5014185905456543,-1.9049432277679443,-23.774023056030273,2.897871255874634, -1.9967955350875854
181,231947068,0.42401034,0.42692256,-0.6497777,0.46447954,9.195521354675293,-2.5185792446136475,-1.9888676404953003,-28.546409606933594,2.739215612411499, -0.39233648777008057
182,231963735,0.42529067,0.42582032,-0.65102965,0.46256402,9.220948219299316,-2.5642478466033936,-1.995599627494812,-19.77981948852539,-0.5776568651199341, -1.620107889175415
183,231980402,0.42596924,0.425453,-0.65184265,0.46113047,9.256586074829102,-2.4982142448425293,-1.9776771068572998,-12.311161994934082,-2.9117813110351562, -2.8904459476470947
184,231997069,0.42617998,0.42566377,-0.65228546,0.46011388,9.27460765838623,-2.416109800338745,-2.0335891246795654,-7.232553005218506,-4.279664993286133, -3.63724684715271
185,232013736,0.42615768,0.4260957,-0.65253145,0.45938525,9.294788360595703,-2.3351829051971436,-2.06951904296875,-4.194899559020996,-4.5531697273254395, -3.5749566555023193
186,232030403,0.42601085,0.4265888,-0.65268564,0.45884454,9.338889122009277,-2.3132574558258057,-2.0909154415130615,-2.1787445545196533,-4.5673723220825195, -3.251673460006714
187,232047070,0.42577487,0.42711103,-0.65275383,0.45848086,9.31314754486084,-2.4055044651031494,-2.108917713165283,-0.679991602897644,-4.308248519897461, -2.84956693649292
188,232063737,0.42551672,0.4276948,-0.6527013,0.45825088,9.271452903747559,-2.4164392948150635,-2.155494213104248,0.8793674111366272,-3.9365956783294678, -3.093258857727051
189,232080404,0.4253845,0.42823017,-0.65246993,0.45820314,9.231283187866211,-2.3859617710113525,-2.1460869312286377,1.656764030456543,-2.1318604946136475, -3.248100519180298
190,232097071,0.42532796,0.42874286,-0.65211445,0.45828205,9.21633529663086,-2.368030071258545,-2.118880271911621,2.2799975872039795,-0.9692869782447815, -3.369760274887085
191,232113738,0.4254524,0.4290965,-0.65182155,0.4582522,9.242086410522461,-2.377293348312378,-2.1113598346710205,0.7567976117134094,-0.196859210729599, -3.400252103805542
192,232130405,0.4256714,0.42937204,-0.6515695,0.45814914,9.230414390563965,-2.3942902088165283,-2.149918556213379,-0.30827441811561584,0.16422221064567566, -3.4185268878936768
193,232147072,0.4260147,0.42944792,-0.65163934,0.45765942,9.221713066101074,-2.3683762550354004,-2.1788201332092285,-3.9551773071289062,-0.7410522699356079, -3.112109661102295
194,232163739,0.4262805,0.4296489,-0.6516504,0.45720735,9.3023042678833,-2.3896005153656006,-2.189469337463379,-3.1450610160827637,-1.1582577228546143, -3.463439464569092
195,232180406,0.42651805,0.4299011,-0.6515499,0.45689204,9.343618392944336,-2.460803270339966,-2.108426332473755,-1.8372888565063477,-0.7361603379249573, -3.5603067874908447
196,232197073,0.42675224,0.43010658,-0.6514029,0.45668983,9.448565483093262,-2.248687982559204,-2.0896058082580566,-1.2349292039871216,-0.15199856460094452, -3.1697380542755127
197,232213740,0.42693752,0.43023574,-0.6512445,0.45662048,9.452717781066895,-2.2724599838256836,-2.0225234031677246,-1.114933729171753,0.39656782150268555, -2.212514877319336
198,232230407,0.42722824,0.43025452,-0.65118957,0.4564093,9.520974159240723,-2.417130708694458,-1.8735449314117432,-2.4114227294921875,0.415777325630188, -2.2279462814331055
199,232247074,0.42765605,0.43018433,-0.65114653,0.45613578,9.439864158630371,-2.407322406768799,-1.9284862279891968,-3.704045295715332,1.149056315422058, -2.339028835296631
200,232263741,0.4282133,0.43017393,-0.65102684,0.45579365,9.380352973937988,-2.4772582054138184,-1.9282827377319336,-3.611737012863159,1.4660519361495972, -3.5312232971191406
201,232280408,0.4288271,0.43034324,-0.65079015,0.4553945,9.354578018188477,-2.5095481872558594,-1.9325501918792725,-3.2118453979492188,1.3411513566970825, -5.021997928619385
202,232297075,0.42962196,0.43058166,-0.6502986,0.45512235,9.325309753417969,-2.436945915222168,-1.976792812347412,-2.2490897178649902,3.0693554878234863, -6.271256923675537
203,232313742,0.43062136,0.43070874,-0.6496112,0.45503935,9.267918586730957,-2.3500277996063232,-2.1291658878326416,-1.239001750946045,5.353714942932129, -6.557403564453125
204,232330409,0.43146437,0.43096384,-0.648809,0.4551435,9.275887489318848,-2.227051258087158,-2.0503664016723633,0.24088111519813538,5.281756401062012, -6.304362773895264
205,232347076,0.4323175,0.4311586,-0.6480925,0.45517036,9.30988597869873,-2.277041435241699,-1.9516888856887817,0.00036498106783255935,4.9006524085998535, -6.174813747406006
206,232363743,0.43317682,0.4314583,-0.64735734,0.4551155,9.231857299804688,-2.2609806060791016,-1.983686923980713,-0.39216893911361694,4.494511127471924, -6.874835014343262
207,232380410,0.4337756,0.4320766,-0.6466922,0.45490438,9.2742338180542,-2.2004940509796143,-1.9339792728424072,0.5587218999862671,1.6341224908828735, -7.772828102111816
208,232397077,0.4341709,0.4329706,-0.64606166,0.45457298,9.285848617553711,-2.245020866394043,-1.91694176197052,1.22819983959198,-0.5706894993782043, -8.593921661376953
209,232413744,0.43447918,0.4340489,-0.6455397,0.4539915,9.32845687866211,-2.227550983428955,-1.8991875648498535,0.748345673084259,-2.6409647464752197, -9.604764938354492
210,232430411,0.43471485,0.43533474,-0.6451408,0.45310074,9.290465354919434,-2.379110813140869,-1.8824981451034546,0.055176179856061935,-4.9543561935424805, -10.912511825561523
211,232447078,0.43503147,0.4367841,-0.6446555,0.45209143,9.330639839172363,-2.4090728759765625,-1.9210760593414307,-0.1612064391374588,-5.164240837097168, -12.46882152557373
212,232463745,0.4354482,0.43839315,-0.64402425,0.45103133,9.288290023803711,-2.2613909244537354,-2.0818722248077393,0.2292145937681198,-4.9343791007995605, -14.09127140045166
213,232480412,0.43604806,0.4399588,-0.6433405,0.44990176,9.38645076751709,-2.1175405979156494,-2.063311815261841,-0.6405101418495178,-4.029367923736572, -14.833723068237305
214,232497079,0.43688303,0.441355,-0.6427413,0.44857842,9.408618927001953,-1.9782013893127441,-2.1026101112365723,-2.6692681312561035,-3.3655753135681152, -15.210600852966309
215,232513746,0.43794027,0.44257334,-0.64230794,0.44696495,9.394758224487305,-1.9125654697418213,-2.1409051418304443,-5.633338928222656,-3.2182130813598633, -15.484439849853516
216,232530413,0.4402893,0.44268215,-0.6426429,0.44405842,9.425492286682129,-1.8137768507003784,-2.134640693664551,-21.123790740966797,-0.3176494538784027, -16.074045181274414
217,232547080,0.443234,0.44207075,-0.64369386,0.4401991,9.268903732299805,-1.8105450868606567,-2.181936025619507,-31.163089752197266,-0.6104300618171692, -15.494098663330078
218,232563747,0.44588068,0.44154686,-0.64507765,0.43600652,9.247633934020996,-1.650844693183899,-1.9670305252075195,-32.78877258300781,-4.155628204345703, -14.910333633422852
219,232580414,0.4483428,0.44123605,-0.6467327,0.43131962,9.174492835998535,-1.7691470384597778,-2.0035343170166016,-35.13155746459961,-7.849617004394531, -15.863299369812012
220,232597081,0.45049456,0.44142842,-0.6485226,0.42616206,9.042243003845215,-2.152432441711426,-2.0338010787963867,-34.541221618652344,-12.665440559387207, -18.368013381958008
221,232613748,0.45199782,0.44282353,-0.64974874,0.42122683,9.330474853515625,-2.275326728820801,-1.8241510391235352,-26.31385612487793,-16.643245697021484, -22.85653305053711
222,232630415,0.4530678,0.44540864,-0.6500785,0.41682005,9.626418113708496,-2.651606559753418,-1.6920884847640991,-16.451831817626953,-17.631620407104492, -28.01349449157715
223,232647082,0.45416063,0.4486966,-0.64942646,0.41310397,10.147812843322754,-1.2418431043624878,-2.209334373474121,-8.462859153747559,-14.399166107177734, -32.12305450439453
224,232663749,0.45602116,0.4512672,-0.6485356,0.4096392,9.98830509185791,-0.832822859287262,-2.4210238456726074,-11.074143409729004,-7.452134132385254, -31.08797264099121
225,232680416,0.45841292,0.4529414,-0.64765626,0.40650097,9.98376178741455,-0.6710200309753418,-2.460885763168335,-14.05836009979248,-1.5891069173812866, -27.512014389038086
226,232697083,0.46123335,0.45396867,-0.64687085,0.40340367,10.030240058898926,-1.2108761072158813,-2.2020766735076904,-17.556936264038086,1.9654159545898438, -25.365234375
227,232713750,0.4640556,0.45507577,-0.6461853,0.40000367,9.910745620727539,-1.9327975511550903,-2.0651655197143555,-18.808717727661133,0.4661080241203308, -26.40611457824707
228,232730417,0.46643618,0.45710358,-0.6451448,0.3965876,10.079622268676758,-1.9192198514938354,-2.1093435287475586,-13.79767894744873,-2.943871259689331, -30.428442001342773
229,232747084,0.46850547,0.45996714,-0.64381677,0.3929794,10.207365989685059,-1.7509753704071045,-2.084346055984497,-10.088519096374512,-6.3142266273498535, -34.88037109375
230,232763751,0.47070992,0.46327728,-0.6423233,0.38887933,10.634740829467773,-1.8135740756988525,-1.8785629272460938,-10.943221092224121,-7.95729923248291, -39.331878662109375
231,232780418,0.47295138,0.4671333,-0.6408532,0.38394117,10.767707824707031,-1.9373570680618286,-1.699069857597351,-13.067626953125,-12.035876274108887, -44.52198028564453
232,232797085,0.4748958,0.4717114,-0.63957995,0.37802127,11.416492462158203,-2.0595927238464355,-1.4055758714675903,-14.624893188476562,-19.091590881347656, -49.531883239746094
233,232813752,0.47716138,0.4766746,-0.63861847,0.3704932,12.151240348815918,-2.004593849182129,-1.1768537759780884,-22.3082332611084,-24.98395538330078, -56.362918853759766
234,232830419,0.47925475,0.48253572,-0.63784784,0.36142045,12.562779426574707,-2.4180760383605957,-0.4005972146987915,-26.083791732788086,-33.80698776245117, -64.37721252441406
235,232847086,0.48061252,0.48985597,-0.63707393,0.35098422,12.984955787658691,-2.2061808109283447,-0.43066373467445374,-24.830991744995117,-45.30589294433594, -73.54753875732422
236,232863753,0.4811454,0.49847662,-0.6359827,0.33992118,13.398079872131348,-1.56465744972229,-0.6378780603408813,-19.757160186767578,-53.26289367675781, -80.48881530761719
237,232880420,0.48114425,0.5080511,-0.6347238,0.32788762,13.175339698791504,-2.2191359996795654,-0.3923034071922302,-18.636808395385742,-60.74628829956055, -87.2754135131836
238,232897087,0.48200366,0.5173446,-0.63303274,0.3151138,13.398737907409668,-2.844386339187622,0.1868947446346283,-24.849491119384766,-57.674720764160156, -92.06787109375
239,232913754,0.4847032,0.525348,-0.63092786,0.30166623,13.544610023498535,-3.2540085315704346,-0.17719730734825134,-37.729949951171875,-48.088111877441406, -94.31027221679688
240,232930421,0.48877066,0.5319071,-0.62937,0.28648156,12.720967292785645,-4.193498611450195,-1.150097131729126,-56.18380355834961,-47.43256759643555, -94.90087890625
241,232947088,0.493052,0.5376008,-0.62912226,0.26849675,11.16047191619873,-4.052741527557373,-3.73432993888855,-74.62562561035156,-59.563636779785156, -96.46033477783203
242,232963755,0.4947539,0.5445908,-0.6290785,0.2507983,10.25318431854248,-2.3197131156921387,-5.294555187225342,-59.91563415527344,-72.73153686523438, -95.83544921875
243,232980422,0.4955214,0.55180615,-0.6288983,0.23335709,9.01857852935791,-0.595196008682251,-4.9275078773498535,-54.38610076904297,-75.6554183959961, -95.01295471191406
244,232997089,0.494436,0.55948466,-0.6285926,0.21767238,7.852025032043457,-0.3637286424636841,-4.267819881439209,-38.04563522338867,-77.24873352050781, -88.63168334960938
245,233013756,0.49175102,0.56728834,-0.6275613,0.20623259,7.307348251342773,2.6210296154022217,-3.5908596515655518,-12.095887184143066,-65.51151275634766, -75.21317291259766
246,233030423,0.4924292,0.5713422,-0.6265449,0.19627349,7.528097152709961,3.610933542251587,-3.0851635932922363,-31.52166175842285,-39.94038009643555, -58.69817352294922
247,233047090,0.4959291,0.5698824,-0.6269406,0.19035208,5.151456356048584,-3.469527006149292,0.5432289838790894,-45.75118637084961,-9.260368347167969, -19.4849853515625
248,233063757,0.4991144,0.56579137,-0.62814033,0.19027577,4.077897548675537,-5.074650764465332,0.8624804019927979,-29.397628784179688,12.908402442932129, 15.163597106933594
249,233080424,0.5006009,0.561348,-0.62946004,0.19510862,4.092371940612793,-3.463540554046631,1.1446068286895752,-3.026020050048828,24.64109992980957, 35.99847412109375
250,233097091,0.5002201,0.55640733,-0.6312267,0.20431262,4.91614294052124,-3.5379478931427,0.5243950486183167,20.747861862182617,32.46076965332031, 57.27503967285156
251,233113758,0.49790505,0.5508024,-0.6331319,0.21874993,5.674012184143066,-3.5755836963653564,0.17485152184963226,48.331390380859375,44.439186096191406, 81.25586700439453
252,233130425,0.49444616,0.5439943,-0.63489944,0.23768926,6.576964378356934,-2.409332275390625,-0.16928130388259888,68.29622650146484,58.674468994140625, 102.96235656738281
253,233147092,0.49069288,0.5354587,-0.63639724,0.25981364,7.3972554206848145,-1.7323737144470215,-0.6857845187187195,77.83389282226562,72.92062377929688, 120.71009826660156
254,233163759,0.4869605,0.5250788,-0.6371356,0.28499103,7.987607955932617,-1.382311463356018,-0.8870145678520203,86.2260971069336,89.99539947509766, 136.1870880126953
255,233180426,0.48330417,0.51292515,-0.63689655,0.31255022,8.823051452636719,-1.4210623502731323,-0.9828212857246399,92.34848022460938,105.5673828125, 148.21847534179688
256,233197093,0.4788704,0.5000135,-0.6351762,0.34237537,9.4851655960083,-1.3849573135375977,-1.1988996267318726,104.37845611572266,116.49813842773438, 155.9300537109375
257,233213760,0.47418198,0.48617095,-0.63192433,0.37344462,10.586766242980957,-0.8637738823890686,-1.1739141941070557,111.16178894042969,126.86466979980469, 159.39566040039062
258,233230427,0.47076452,0.4703146,-0.6273081,0.4045609,11.548638343811035,-0.2694893181324005,-1.1043847799301147,104.28970336914062,142.1277618408203, 160.39926147460938
259,233247094,0.46920013,0.45157722,-0.6218528,0.4350039,11.948824882507324,-0.23754246532917023,-1.1506781578063965,89.53512573242188,158.5460205078125, 162.57586669921875
260,233263761,0.46878213,0.4305445,-0.6150313,0.46541545,12.698773384094238,-0.6945363283157349,-1.1198471784591675,82.55191802978516,174.5762176513672, 164.71644592285156
261,233280428,0.46934164,0.4073617,-0.60645545,0.4959708,13.474067687988281,-1.4619011878967285,-0.8944817781448364,78.98526000976562,191.65248107910156, 166.05337524414062
262,233297095,0.4701585,0.38204837,-0.5966338,0.52632517,14.340325355529785,-1.795987844467163,-0.8981087803840637,74.83734893798828,203.4504852294922, 170.0208282470703
263,233313762,0.47006753,0.35511285,-0.58625245,0.55609334,15.61594009399414,-2.363074541091919,-1.303713321685791,71.63674926757812,205.9021453857422, 176.71290588378906
264,233330429,0.4683505,0.32694405,-0.57585895,0.58492905,16.78717041015625,-2.1365349292755127,-1.7393834590911865,67.95053100585938,201.91543579101562, 184.9938507080078
265,233347096,0.4653059,0.29806915,-0.5663087,0.6115063,15.924382209777832,-2.069275379180908,-3.0580239295959473,56.36943054199219,191.85577392578125, 187.93426513671875
266,233363763,0.4610637,0.27003178,-0.5584669,0.63452184,14.609424591064453,0.12623456120491028,-5.376777172088623,40.517059326171875,171.1328582763672, 182.007568359375
267,233380430,0.4578292,0.24586985,-0.5519798,0.6521188,14.176158905029297,6.190945625305176,-8.483837127685547,24.313642501831055,144.06285095214844, 148.32901000976562
268,233397097,0.4569487,0.23338251,-0.5485046,0.6602071,7.263900279998779,8.199703216552734,-10.073822021484375,7.602560043334961,75.5297622680664, 69.10105895996094
269,233413764,0.45719486,0.23493183,-0.5485648,0.6594366,7.353940010070801,4.38921594619751,-7.717594146728516,0.5622055530548096,-8.839858055114746, -10.683588981628418
270,233430431,0.4596149,0.2428243,-0.5536458,0.6505896,9.23793888092041,3.7358241081237793,-5.140384674072266,-36.12174606323242,-57.890499114990234, -61.44499206542969
271,233447098,0.4637821,0.2498122,-0.5652992,0.634773,9.717391967773438,1.9373925924301147,-3.8800148963928223,-97.76419067382812,-79.32959747314453, -76.56591796875
272,233463765,0.4678438,0.2525924,-0.5797214,0.6174483,9.288549423217773,-7.902495384216309,3.635554075241089,-128.88702392578125,-72.57349395751953, -59.551483154296875
273,233480432,0.46918422,0.25690943,-0.58704036,0.60765725,9.007469177246094,-10.277229309082031,8.13573932647705,-59.02969741821289,-54.049949645996094, -42.30962371826172
274,233497099,0.46850199,0.26504415,-0.59054464,0.6012609,10.385562896728516,-5.115478515625,1.7797439098358154,-13.581849098205566,-60.06264114379883, -45.231468200683594
275,233513766,0.4675707,0.27674788,-0.59408414,0.5931716,14.492593765258789,0.0072072469629347324,-1.5865541696548462,-8.649662971496582,-79.01734924316406, -64.0641098022461
276,233530433,0.46836495,0.2856379,-0.60195553,0.58025414,12.841646194458008,-1.246177077293396,-2.0807273387908936,-58.33241271972656,-83.46837615966797, -66.6342544555664
277,233547100,0.46673068,0.2959665,-0.6095014,0.56839633,10.33481216430664,-6.01931095123291,-3.6152708530426025,-43.19609069824219,-96.00099182128906, -59.95473098754883
278,233563767,0.46372348,0.30880177,-0.6130864,0.56011367,10.602607727050781,-3.1430890560150146,-0.3897731602191925,-1.8123555183410645,-91.40672302246094, -61.7244758605957
279,233580434,0.46143317,0.32010022,-0.6161778,0.5522141,8.936972618103027,-2.4066615104675293,-1.9044299125671387,-4.7032294273376465,-80.03810119628906, -57.78295135498047
280,233597101,0.4580608,0.33102563,-0.61748046,0.5471016,8.711285591125488,-4.5477375984191895,-1.8475604057312012,15.127447128295898,-71.31636810302734, -47.14707565307617
281,233613768,0.4548384,0.3408801,-0.6178838,0.5432701,9.444884300231934,-2.1437160968780518,-1.4295250177383423,20.26238441467285,-60.833003997802734, -41.21974182128906
282,233630435,0.4519252,0.3491019,-0.6180773,0.5402518,10.742820739746094,-1.1476212739944458,-0.9199987649917603,18.689716339111328,-50.80680847167969, -33.34259796142578
283,233647102,0.4497404,0.35560703,-0.61842763,0.53742415,10.574613571166992,-1.371787428855896,-0.7650342583656311,11.846346855163574,-41.33412551879883, -27.69170570373535
284,233663769,0.44773886,0.3598676,-0.61919624,0.53537023,10.090479850769043,-1.4719398021697998,-0.9126390814781189,6.211972236633301,-31.644311904907227, -15.329883575439453
285,233680436,0.44578072,0.36250433,-0.62040246,0.5338269,10.676891326904297,-1.4647583961486816,-0.22811679542064667,1.679998517036438,-25.546972274780273, -5.855128288269043
286,233697103,0.44394714,0.36451906,-0.62170064,0.53247076,9.986863136291504,-2.5714609622955322,-0.5658503174781799,-0.07284265011548996,-22.55646514892578, -2.782939910888672
287,233713770,0.44276872,0.3662157,-0.6224196,0.5314468,9.618504524230957,-3.2442564964294434,-0.9306001663208008,0.8586472868919373,-15.991061210632324, -4.2330145835876465
288,233730437,0.44236463,0.3675055,-0.6223311,0.5309967,9.511369705200195,-3.565627098083496,-0.9925183057785034,3.081547975540161,-7.276544570922852, -5.609912872314453
289,233747104,0.4423043,0.36883208,-0.6213037,0.53133,9.300015449523926,-3.607367515563965,-0.9308130145072937,9.107937812805176,-1.091869831085205, -7.026347637176514
290,233763771,0.44172275,0.3709412,-0.6195622,0.532378,9.272875785827637,-3.71150541305542,-0.9613834619522095,18.471771240234375,-2.181436777114868, -8.122220993041992
291,233780438,0.44065297,0.3734861,-0.617916,0.5333977,9.09823989868164,-3.405261993408203,-0.7574048042297363,20.572790145874023,-6.203829765319824, -8.060357093811035
292,233797105,0.43911394,0.37633938,-0.6167335,0.5340295,8.99860954284668,-3.279575824737549,-0.27503204345703125,19.363872528076172,-11.721278190612793, -7.651694297790527
293,233813772,0.437428,0.37934947,-0.6163064,0.53377646,9.068669319152832,-3.2028839588165283,-0.25987109541893005,13.687561988830566,-17.49956703186035, -8.508465766906738
294,233830439,0.43576553,0.3825449,-0.6165123,0.5326165,8.887324333190918,-3.6007566452026367,-0.20688247680664062,8.013689041137695,-22.360271453857422, -10.468690872192383
295,233847106,0.433994,0.38614112,-0.61708844,0.5307977,8.776359558105469,-3.8256101608276367,-0.5059394240379333,5.34799337387085,-27.146282196044922, -12.794878005981445
296,233863773,0.43209016,0.39025638,-0.6177003,0.52862525,9.003714561462402,-3.5364155769348145,-0.5812602639198303,5.613399982452393,-30.653398513793945, -15.511079788208008
297,233880440,0.43017143,0.39483637,-0.61838377,0.52598315,9.19774341583252,-3.341257095336914,-0.720865786075592,4.775622367858887,-33.88511276245117, -18.658103942871094
298,233897107,0.4283648,0.39972147,-0.61905205,0.5229731,9.336325645446777,-3.2489395141601562,-0.9098517298698425,3.861157178878784,-35.47012710571289, -21.50747299194336
299,233913774,0.42685834,0.40472484,-0.6197918,0.5194688,9.370373725891113,-3.324956178665161,-0.9498612284660339,1.0215117931365967,-36.188682556152344, -24.363563537597656
300,233930441,0.42576462,0.40983695,-0.6206194,0.51535404,9.269967079162598,-3.3993828296661377,-1.2043591737747192,-2.726005792617798,-36.77815246582031, -27.865978240966797
301,233947108,0.42493945,0.4149815,-0.6213826,0.5109801,9.344273567199707,-2.979529619216919,-1.3427318334579468,-4.269208908081055,-36.287288665771484, -29.91908073425293
302,233963775,0.42427891,0.42014033,-0.62205374,0.5064769,9.553010940551758,-2.7978105545043945,-1.4888477325439453,-4.928076267242432,-35.730796813964844, -31.2094669342041
303,233980442,0.4237842,0.42523032,-0.62252915,0.50203955,9.584206581115723,-2.513765335083008,-1.539971947669983,-4.646346092224121,-34.017860412597656, -31.87107276916504
304,233997109,0.4237112,0.43000895,-0.6229827,0.4974475,9.558233261108398,-2.4719107151031494,-1.575997233390808,-7.374937057495117,-31.52519989013672, -32.50725173950195
305,234013776,0.42379153,0.43466914,-0.6233318,0.4928703,9.493621826171875,-2.556516408920288,-1.6177287101745605,-7.7547101974487305,-30.11517906188965, -32.789981842041016
306,234030443,0.4240531,0.43917638,-0.62356716,0.48833102,9.602550506591797,-2.2905969619750977,-1.7687547206878662,-8.198029518127441,-28.376787185668945, -32.984378814697266
307,234047110,0.42444703,0.4433511,-0.62388456,0.48378992,9.523117065429688,-1.8988629579544067,-1.8915622234344482,-9.853370666503906,-26.9381103515625, -31.75984764099121
308,234063777,0.425037,0.44703802,-0.62435496,0.47925106,9.543530464172363,-1.919001817703247,-2.0761826038360596,-12.374143600463867,-24.912683486938477, -29.837614059448242
309,234080444,0.42556405,0.45037365,-0.62500006,0.47479886,9.340276718139648,-1.903984546661377,-2.0864930152893066,-13.410754203796387,-24.264976501464844, -27.325836181640625
310,234097111,0.42599225,0.45366904,-0.62583655,0.4701528,9.311684608459473,-1.954508900642395,-1.8401066064834595,-14.680706024169922,-25.715576171875, -26.80222511291504
311,234113778,0.42649844,0.45734605,-0.62653226,0.46517846,9.34420108795166,-2.3672256469726562,-1.6776049137115479,-14.76803207397461,-27.232057571411133, -30.098369598388672
312,234130445,0.4271331,0.46185425,-0.6268681,0.4596569,9.407161712646484,-2.741257667541504,-1.6336007118225098,-13.950078010559082,-30.01687240600586, -36.842769622802734
313,234147112,0.4274643,0.4674424,-0.6270177,0.45345446,9.481995582580566,-2.5899012088775635,-1.7117222547531128,-12.174153327941895,-36.370689392089844, -43.16017150878906
314,234163779,0.42761394,0.47377804,-0.62719256,0.4464418,9.601526260375977,-2.2917604446411133,-1.7275378704071045,-12.979762077331543,-42.1812744140625, -48.1459846496582
315,234180446,0.42764744,0.48051998,-0.62762296,0.43852913,9.971548080444336,-1.7080717086791992,-1.7439285516738892,-16.085195541381836,-47.63435363769531, -51.37837219238281
316,234197113,0.42760628,0.48761278,-0.6281363,0.42992046,10.377212524414062,-1.6336959600448608,-1.8412381410598755,-18.070058822631836,-51.585899353027344, -54.447731018066406
317,234213780,0.42794925,0.49484608,-0.62835574,0.4208987,11.633174896240234,-1.44161057472229,-1.7767691612243652,-19.870561599731445,-50.89642333984375, -58.3985481262207
318,234230447,0.42922407,0.50139904,-0.6288694,0.41096115,12.833342552185059,-1.9054499864578247,-1.806214690208435,-29.860559463500977,-48.9332389831543, -59.853065490722656
319,234247114,0.43238172,0.50618404,-0.6303579,0.39934042,13.547056198120117,-1.4225937128067017,-1.0311414003372192,-51.616058349609375,-44.541786193847656, -59.15507888793945
320,234263781,0.43741482,0.509727,-0.63246846,0.38578546,14.387160301208496,-1.6405590772628784,-0.4189341366291046,-71.9403076171875,-41.684391021728516, -62.51778793334961
321,234280448,0.44426057,0.51258475,-0.63479847,0.37002772,14.413492202758789,-1.906720757484436,0.43297624588012695,-90.53146362304688,-40.49534606933594, -70.23017120361328
322,234297115,0.4533237,0.5144192,-0.6378117,0.35080877,14.651994705200195,-1.6860699653625488,1.0409972667694092,-118.33760833740234,-42.65857696533203, -79.62252044677734
323,234313782,0.4635352,0.5160113,-0.6409554,0.32869998,15.005880355834961,-2.692063093185425,1.3545069694519043,-136.15736389160156,-47.84642791748047, -89.94181823730469
324,234330449,0.47371387,0.51728094,-0.6445502,0.30425444,13.308734893798828,-5.477505207061768,0.30263739824295044,-148.40647888183594,-57.181880950927734, -94.41232299804688
325,234347116,0.47755432,0.5237502,-0.64718354,0.28067985,11.222787857055664,-7.522862434387207,-2.6158595085144043,-103.10182189941406,-90.05972290039062, -104.98458862304688
326,234363783,0.47476777,0.53651875,-0.64670444,0.26175714,10.21431827545166,-4.446038246154785,-6.120572090148926,-31.931848526000977,-104.77653503417969, -116.4113540649414
327,234380450,0.46947345,0.5513621,-0.64457595,0.24518648,10.527511596679688,-2.356079339981079,-6.314388751983643,-2.559540271759033,-105.55477905273438, -119.68731689453125
328,234397117,0.4659215,0.5635314,-0.6420047,0.23060696,10.806900024414062,1.1966742277145386,-4.715145587921143,-8.290702819824219,-84.31379699707031, -106.12525939941406
329,234413784,0.46750078,0.5706326,-0.63986254,0.2154011,10.721841812133789,0.5036285519599915,-2.7104926109313965,-47.8638916015625,-57.44512176513672, -92.2590560913086
330,234430451,0.4739269,0.5707352,-0.63926816,0.2024621,6.212233543395996,-5.794102668762207,2.6298701763153076,-81.69962310791016,-21.898786544799805, -55.35161590576172
331,234447118,0.48256293,0.5653875,-0.6400406,0.194469,4.263828754425049,-5.959982872009277,2.9970390796661377,-88.34686279296875,10.235095024108887, -13.192004203796387
332,234463785,0.48999265,0.5578145,-0.6415578,0.19275366,4.244678497314453,-5.472414493560791,2.55371356010437,-64.45647430419922,29.73853874206543, 21.74646759033203
333,234480452,0.49565214,0.5482196,-0.6438873,0.19797336,5.538868427276611,-5.152214527130127,2.74613356590271,-35.006439208984375,48.3873405456543, 59.31600570678711
334,234497119,0.49869514,0.53801805,-0.646376,0.20985286,6.4327392578125,-5.296173572540283,2.561439037322998,2.0177557468414307,62.07925033569336, 88.69363403320312
335,234513786,0.4991374,0.52755195,-0.6485743,0.22782102,7.096415996551514,-4.581692695617676,1.762162446975708,38.169925689697266,74.2961654663086, 113.26237487792969
336,234530453,0.49790317,0.51605403,-0.65028775,0.25081247,7.856788158416748,-3.305718183517456,0.9016424417495728,63.8336181640625,88.20027160644531, 135.8395538330078
337,234547120,0.49612594,0.50270176,-0.6511834,0.27768755,8.276199340820312,-2.8151051998138428,0.11660690605640411,78.15990447998047,105.44068908691406, 155.3751678466797
338,234563787,0.49404678,0.48706037,-0.65101784,0.3080032,8.795050621032715,-2.2994186878204346,-0.5180588960647583,88.8029556274414,123.88224029541016, 174.2098846435547
339,234580454,0.49212903,0.468713,-0.6495223,0.34093696,9.832629203796387,-1.6817516088485718,-0.7061240077018738,93.59040069580078,143.55186462402344, 190.38783264160156
340,234597121,0.4908972,0.44709086,-0.6465604,0.3756187,11.278658866882324,-1.3636025190353394,-0.5350137948989868,91.5370864868164,164.82933044433594, 204.58880615234375
341,234613788,0.49101493,0.42173368,-0.6417973,0.41126812,12.723918914794922,-1.0505218505859375,-0.42425018548965454,83.73668670654297,189.4786376953125, 215.45542907714844
342,234630455,0.49230996,0.3930174,-0.6346915,0.44758812,13.98229694366455,-1.2050949335098267,-0.4993037283420563,78.5774917602539,213.9906463623047, 222.46340942382812
343,234647122,0.49326617,0.3622214,-0.62495655,0.48467892,16.005510330200195,-1.7444626092910767,-0.5261486172676086,83.92715454101562,229.87725830078125, 228.15158081054688
344,234663789,0.4925663,0.33046067,-0.6127729,0.5221916,18.519397735595703,-1.947856068611145,-1.0556178092956543,94.776123046875,235.327880859375, 233.23623657226562
345,234680456,0.490285,0.29787445,-0.598926,0.55873,20.8890438079834,-0.13330133259296417,-1.9870362281799316,97.45716094970703,235.08348083496094, 235.44313049316406
346,234697123,0.48760632,0.26458174,-0.58540916,0.591213,19.070621490478516,-0.16236576437950134,-5.1402716636657715,77.93386840820312,226.8373260498047, 227.0956573486328
347,234713790,0.48223248,0.23622715,-0.5718841,0.6201592,14.59152603149414,0.04513753950595856,-10.644681930541992,85.24217224121094,189.6966552734375, 206.51071166992188
348,234730457,0.47672313,0.21626657,-0.5607243,0.6415233,13.37402057647705,10.495259284973145,-15.861604690551758,73.51837921142578,133.5173797607422, 152.95985412597656
349,234747124,0.47435707,0.20863399,-0.55682814,0.6491532,6.5583906173706055,14.849432945251465,-15.545292854309082,24.40313148498535,47.46560287475586, 57.7636604309082
350,234763791,0.4744071,0.21294713,-0.5642705,0.6412412,6.835471153259277,11.066391944885254,-12.644492149353027,-50.100074768066406,-55.47881317138672, -32.75532531738281
351,234780458,0.47503737,0.22696148,-0.57480145,0.6264435,9.40802001953125,9.423455238342285,-11.82219123840332,-59.54065704345703,-115.83625030517578, -90.5547866821289
352,234797125,0.47884527,0.236971,-0.5896109,0.6057319,9.87193489074707,-1.0699520111083984,-0.2738853394985199,-119.2822036743164,-108.92089080810547, -100.71619415283203
353,234813792,0.4815147,0.23588192,-0.6028911,0.5907841,9.722100257873535,-26.87771987915039,22.472213745117188,-124.2116470336914,-52.837188720703125, -34.37502670288086
354,234830459,0.48162726,0.24390069,-0.606798,0.58338994,9.833159446716309,-4.104343414306641,-2.631488084793091,-20.69252586364746,-57.617340087890625, -52.426734924316406
355,234847126,0.47988144,0.2614844,-0.6115014,0.57219386,19.728986740112305,-3.271735191345215,-9.209986686706543,-4.908591270446777,-112.65679931640625, -96.10787963867188
356,234863793,0.47647953,0.27947152,-0.619198,0.5580832,14.422377586364746,-0.3334622085094452,-3.8392555713653564,-24.509267807006836,-136.04627990722656, -95.36760711669922
357,234880460,0.47374672,0.2973602,-0.62443,0.5451866,12.428027153015137,0.41670528054237366,-0.8368751406669617,-11.444199562072754,-122.2840576171875, -98.12498474121094
358,234897127,0.47268257,0.3087832,-0.6294431,0.53387785,9.694639205932617,0.8481797575950623,-6.9046735763549805,-28.266714096069336,-86.88063049316406, -71.75743865966797
359,234913794,0.4707233,0.31813034,-0.63200474,0.52705103,10.25497817993164,-3.0962138175964355,-3.1856021881103516,-4.6478047370910645,-65.48221588134766, -50.01721954345703
360,234930461,0.46978596,0.3254321,-0.63350856,0.52159566,10.47019100189209,0.9952151775360107,-1.3744874000549316,-3.6822750568389893,-47.13212585449219, -42.69409942626953
361,234947128,0.46874377,0.3311106,-0.6351651,0.51692396,10.46315860748291,-2.06986665725708,-0.918903112411499,-5.812664985656738,-40.48045349121094, -32.265968322753906
362,234963795,0.46746546,0.33568755,-0.6367301,0.5131907,9.948639869689941,-1.9217925071716309,-0.10758104920387268,-4.396102428436279,-35.15484619140625, -23.76791763305664
363,234980462,0.46638343,0.33834976,-0.6394767,0.5089946,10.348800659179688,-1.2145262956619263,0.1072288453578949,-17.198780059814453,-32.42033767700195, -14.808883666992188
364,234997129,0.46548036,0.33947983,-0.6433371,0.5041814,9.902361869812012,-2.191408157348633,-0.17565113306045532,-29.137374877929688,-31.303829193115234, -8.035205841064453
365,235013796,0.46442452,0.3400327,-0.6473221,0.49966168,9.03200912475586,-3.20804500579834,-1.0492421388626099,-29.76021385192871,-29.715572357177734, -3.6983048915863037
366,235030463,0.46326035,0.34088063,-0.6508899,0.4955126,8.927353858947754,-3.9202253818511963,-1.2292919158935547,-25.47578239440918,-29.016897201538086, -4.439537048339844
367,235047130,0.46210828,0.34273833,-0.6538439,0.49140066,8.781599998474121,-4.378100872039795,-1.555256724357605,-20.02732276916504,-30.361845016479492, -10.346864700317383
368,235063797,0.4610098,0.34522915,-0.655972,0.48783967,8.863967895507812,-4.224803924560547,-1.8353179693222046,-12.87227725982666,-28.330474853515625, -13.610157012939453
369,235080464,0.45990956,0.34844097,-0.657096,0.48507437,9.19906234741211,-4.076748847961426,-1.644661545753479,-3.6243245601654053,-25.672332763671875, -16.755231857299805
370,235097131,0.45903283,0.3518228,-0.6574137,0.4830289,9.321968078613281,-3.0891852378845215,-1.5714877843856812,2.317474842071533,-20.947208404541016, -17.957569122314453
371,235113798,0.458149,0.3551375,-0.6571608,0.4817851,9.784666061401367,-2.04693603515625,-1.4789135456085205,7.641175270080566,-17.01020050048828, -16.49174690246582
372,235130465,0.45736697,0.35786656,-0.65666306,0.48118705,9.67271614074707,-2.1302988529205322,-1.2684931755065918,9.277950286865234,-12.259407997131348, -12.73193645477295
373,235147132,0.45647618,0.36034217,-0.65581346,0.48134384,9.772043228149414,-2.3624489307403564,-1.2872188091278076,13.320164680480957,-8.950868606567383, -9.708992004394531
374,235163799,0.45590213,0.36228716,-0.6547194,0.481917,9.945955276489258,-2.1002464294433594,-1.1833364963531494,13.554195404052734,-3.970637798309326, -7.658524036407471
375,235180466,0.4554532,0.36360657,-0.65412194,0.48215884,9.554327011108398,-2.1844582557678223,-1.49207603931427,8.143914222717285,-3.722731113433838, -5.045691967010498
376,235197133,0.45489967,0.3643693,-0.6546272,0.48141947,9.200799942016602,-2.7642929553985596,-1.5385228395462036,-1.4055613279342651,-8.253349304199219, -2.502566337585449
377,235213800,0.4539633,0.36530718,-0.6559571,0.47977972,9.086795806884766,-3.316732168197632,-1.2916280031204224,-6.679875373840332,-15.39145278930664, -2.7797744274139404
378,235230467,0.45286825,0.3669338,-0.65716,0.47792363,9.154458045959473,-3.2652170658111572,-1.2770894765853882,-4.690806865692139,-18.532262802124023, -6.37611198425293
379,235247134,0.45184988,0.36908635,-0.6581113,0.47591674,9.235214233398438,-2.8820509910583496,-1.5407193899154663,-3.104623556137085,-19.51884651184082, -10.126742362976074
380,235263801,0.45114428,0.3711571,-0.65921,0.47344854,9.325765609741211,-2.690049886703491,-1.503027319908142,-6.7231035232543945,-19.46726417541504, -11.848559379577637
381,235280468,0.45058602,0.37303028,-0.6610833,0.4698827,9.243223190307617,-3.0488698482513428,-1.2240980863571167,-15.209410667419434,-23.36600685119629, -12.864675521850586
382,235297135,0.4502219,0.37509605,-0.6633545,0.4653644,9.240660667419434,-3.134101629257202,-1.1330605745315552,-20.729589462280273,-26.796010971069336, -16.30910873413086
383,235313802,0.4502065,0.37773365,-0.66555905,0.4600682,9.179931640625,-3.389127492904663,-1.1676504611968994,-23.199434280395508,-28.853450775146484, -22.627614974975586
384,235330469,0.4504933,0.38101545,-0.66748154,0.45425925,9.289281845092773,-3.2329859733581543,-1.5473533868789673,-23.453298568725586,-29.986026763916016, -28.873003005981445
385,235347136,0.45091406,0.3849159,-0.66882014,0.44854885,9.699324607849121,-2.652261257171631,-1.9903956651687622,-19.62015724182129,-29.249164581298828, -33.3735466003418
386,235363803,0.45142308,0.38886103,-0.6699408,0.44292626,9.493269920349121,-2.092111110687256,-2.220076560974121,-18.643199920654297,-28.07830238342285, -34.16292953491211
387,235380470,0.4519301,0.39265278,-0.67091197,0.43756175,9.51900577545166,-1.9326335191726685,-2.302699089050293,-17.471405029296875,-26.467445373535156, -33.04638671875
388,235397137,0.45237392,0.3963824,-0.6717254,0.4324625,9.604438781738281,-1.881256341934204,-2.265399694442749,-15.79680347442627,-25.366809844970703, -32.167964935302734
389,235413804,0.4527815,0.4003199,-0.6723167,0.4274614,9.525941848754883,-2.047816753387451,-2.23938250541687,-13.939987182617188,-25.19772720336914, -33.31827926635742
390,235430471,0.45320544,0.40480977,-0.6724016,0.42262277,9.321045875549316,-2.659809112548828,-2.4013776779174805,-10.029916763305664,-24.726797103881836, -36.811763763427734
391,235447138,0.4537136,0.40978834,-0.67197394,0.41793358,9.41162109375,-2.3525567054748535,-2.728703737258911,-6.570387363433838,-23.745708465576172, -40.297264099121094
392,235463805,0.4545305,0.4147853,-0.671231,0.41328472,9.51653003692627,-2.227823495864868,-2.7232885360717773,-6.297495365142822,-21.270938873291016, -42.04848098754883
393,235480472,0.45560077,0.4195499,-0.6704356,0.40856096,9.960410118103027,-1.7106339931488037,-2.516697406768799,-7.9506144523620605,-19.489355087280273, -42.09455108642578
394,235497139,0.45682722,0.42404604,-0.66978097,0.40359315,10.46969985961914,-1.3944987058639526,-2.0169172286987305,-10.769315719604492,-19.166479110717773, -41.658565521240234
395,235513806,0.45813465,0.42846337,-0.669484,0.3978984,10.645398139953613,-1.64348566532135,-1.294823169708252,-15.599706649780273,-21.839157104492188, -42.75932312011719
396,235530473,0.45938405,0.43336654,-0.66980004,0.39054796,10.851797103881836,-2.489649772644043,-0.40245795249938965,-23.20660400390625,-30.28312873840332, -48.251888275146484
397,235547140,0.46002948,0.44022918,-0.6701425,0.3814188,12.27541446685791,-3.1017861366271973,0.4012088179588318,-23.49723243713379,-43.77074432373047, -61.218994140625
398,235563807,0.46131977,0.44831663,-0.6703746,0.36985722,14.183707237243652,-4.28266716003418,0.552675724029541,-32.515010833740234,-51.113609313964844, -76.62102508544922
399,235580474,0.4645986,0.45573643,-0.67121446,0.354857,15.110434532165527,-3.606529474258423,1.4003393650054932,-58.186607360839844,-52.886451721191406, -87.69841766357422
400,235597141,0.46859008,0.46426436,-0.67212045,0.33635715,16.32082748413086,-5.722630023956299,3.0833933353424072,-73.21659851074219,-63.61496353149414, -105.58201599121094
401,235613808,0.47109696,0.47461295,-0.6732027,0.31560832,16.183298110961914,-4.219987392425537,4.156798839569092,-73.44789123535156,-82.61624145507812, -117.3590316772461
402,235630475,0.47272652,0.48557973,-0.67448956,0.29292655,15.718863487243652,-4.942933559417725,4.987726211547852,-77.990478515625,-95.19406127929688, -124.00788879394531
403,235647142,0.4744373,0.49572176,-0.6769154,0.26637354,14.733857154846191,-7.484643936157227,0.9609506130218506,-101.20667266845703,-110.00550842285156, -129.25799560546875
404,235663809,0.47330174,0.5087394,-0.6777283,0.24052857,12.827861785888672,-5.638056755065918,-5.833080768585205,-75.91409301757812,-120.9817886352539, -140.80575561523438
405,235680476,0.46781623,0.52685094,-0.6754182,0.21768388,12.14223575592041,-4.1654205322265625,-9.21639633178711,-25.02289390563965,-129.01840209960938, -158.65869140625
406,235697143,0.4598307,0.5457336,-0.6716131,0.19916447,10.860204696655273,-0.5976093411445618,-6.370423316955566,8.77531623840332,-121.25064086914062, -150.11302185058594
407,235713810,0.45474184,0.5594696,-0.66809374,0.18399568,9.748526573181152,0.6709409356117249,-5.068554401397705,-3.3114798069000244,-89.14823150634766, -118.68982696533203
408,235730477,0.45676732,0.5652997,-0.66542405,0.17032571,7.444625377655029,-1.0996075868606567,-2.1199867725372314,-49.5982780456543,-43.36587142944336, -83.44905853271484
409,235747144,0.4664125,0.560807,-0.6648908,0.16085829,4.796080589294434,-8.385689735412598,2.571726083755493,-94.92288208007812,13.17909049987793, -23.708301544189453
410,235763811,0.4772166,0.5523961,-0.6648747,0.15831827,2.345423698425293,-10.860103607177734,3.670482873916626,-80.92176818847656,47.79104232788086, 16.949928283691406
411,235780478,0.48564398,0.5423459,-0.6655645,0.16442244,2.0457801818847656,-7.840282440185547,2.6869349479675293,-38.60115432739258,69.16209411621094, 57.871421813964844
412,235797145,0.4926684,0.5293359,-0.66729534,0.17832074,3.1956770420074463,-6.092185974121094,1.9263603687286377,-8.810514450073242,91.63252258300781, 102.7667236328125
413,235813812,0.4979197,0.51414084,-0.66929317,0.199454,4.66170597076416,-5.567704200744629,1.3768019676208496,23.0776309967041,111.56244659423828, 140.33328247070312
414,235830479,0.50124365,0.4972745,-0.67093176,0.2265471,5.894029140472412,-4.149045944213867,0.6402827501296997,52.064205169677734,127.2336654663086, 169.70074462890625
415,235847146,0.50357145,0.47828665,-0.67143184,0.25852895,6.840621471405029,-2.80833101272583,-0.21453119814395905,72.47273254394531,146.5334930419922, 193.92584228515625
416,235863813,0.50504386,0.45728108,-0.67003113,0.29475963,8.152389526367188,-2.441868782043457,-1.0915722846984863,91.29574584960938,166.68844604492188, 213.18472290039062
417,235880480,0.50599617,0.43419975,-0.6661188,0.33425206,9.902048110961914,-2.8220224380493164,-1.8652756214141846,105.84834289550781,187.44857788085938, 227.2102508544922
418,235897147,0.5065989,0.40895408,-0.65912706,0.37638512,11.019330024719238,-2.59661865234375,-2.1204988956451416,118.55073547363281,209.40203857421875, 237.904541015625
419,235913814,0.5074152,0.38088608,-0.6491044,0.41966558,13.744184494018555,-1.6699689626693726,-2.2655138969421387,121.18643951416016,231.4495391845703, 245.62127685546875
420,235930481,0.5078761,0.35037664,-0.6352046,0.4645572,17.080472946166992,-2.3049793243408203,-2.608938694000244,132.02537536621094,254.65928649902344, 253.0605010986328
421,235947148,0.5068383,0.31811258,-0.61729467,0.510751,20.299707412719727,-2.313660144805908,-4.162065505981445,148.05897521972656,270.8785095214844, 260.4736022949219
422,235963815,0.50331324,0.28488874,-0.5981387,0.5547471,21.909212112426758,-1.2725764513015747,-6.295506000518799,145.2535858154297,263.26873779296875, 262.9978942871094
423,235980482,0.4972473,0.2515135,-0.5811489,0.59308684,21.63283348083496,0.1314421147108078,-8.51346492767334,118.22093200683594,234.91734313964844, 258.11187744140625
424,235997149,0.49069977,0.21999122,-0.56871676,0.6223976,18.925756454467773,3.4561078548431396,-10.682942390441895,70.77568054199219,194.40589904785156, 229.83425903320312
425,236013816,0.48683983,0.19550033,-0.5618399,0.6396112,12.748506546020508,13.022141456604004,-15.293214797973633,19.433799743652344,138.00526428222656, 158.6156463623047
426,236030483,0.48558912,0.1857909,-0.56526333,0.6404391,4.6504974365234375,9.42930793762207,-15.140442848205566,-43.10602951049805,26.879817962646484, 49.350379943847656
427,236047150,0.48577353,0.1946302,-0.57495564,0.628943,9.826194763183594,5.387237548828125,-13.087306022644043,-58.41268539428711,-85.628662109375, -62.00497055053711
428,236063817,0.4853932,0.20834713,-0.58870304,0.61189353,10.580881118774414,7.995866775512695,-8.391948699951172,-80.76942443847656,-129.67584228515625, -91.79268646240234
429,236080484,0.48620558,0.2167813,-0.60093594,0.59622645,13.839742660522461,-5.711610317230225,12.847312927246094,-88.10018157958984,-95.39949035644531, -72.74756622314453
430,236097151,0.48536724,0.22967,-0.60226834,0.5907144,11.848030090332031,-5.0540289878845215,13.607085227966309,15.793912887573242,-69.05316925048828, -66.63904571533203
431,236113818,0.4841311,0.24687736,-0.6034675,0.5835202,14.711359977722168,2.933520793914795,-1.2558791637420654,24.303430557250977,-90.63351440429688, -88.7068099975586
432,236130485,0.4834047,0.26097906,-0.6116576,0.56928456,15.009989738464355,-1.1747585535049438,-7.95240592956543,-44.15644454956055,-111.21601867675781, -89.26615905761719
433,236147152,0.4792403,0.2767377,-0.62112606,0.55493003,13.426675796508789,-4.856945991516113,-3.6834046840667725,-37.910213470458984,-136.4595489501953, -80.77861022949219
434,236163819,0.4740831,0.29604983,-0.6245437,0.5454768,9.269139289855957,-4.4057936668396,-0.7833604216575623,19.75065803527832,-124.90718078613281, -87.5146255493164
435,236180486,0.4685457,0.31418893,-0.6251717,0.53936136,7.793735504150391,-3.43709397315979,-6.346896648406982,41.50746536254883,-106.22160339355469, -75.87132263183594
436,236197153,0.46430883,0.32934314,-0.62406814,0.5352471,10.045219421386719,0.04113728553056717,-2.580202102661133,44.145545959472656,-79.54000854492188, -65.18067932128906
437,236213820,0.46234998,0.3415628,-0.6238188,0.5295447,10.478351593017578,-1.6112550497055054,-0.9811399579048157,19.671293258666992,-65.23588562011719, -64.05763244628906
438,236230487,0.46057022,0.35293517,-0.62300795,0.52456933,10.659453392028809,-1.322508692741394,-0.16551584005355835,21.720476150512695,-57.87195587158203, -60.05817413330078
439,236247154,0.45897618,0.363127,-0.6226053,0.51946366,9.576794624328613,-2.5254859924316406,-0.6117945313453674,15.496094703674316,-54.42701721191406, -55.065155029296875
440,236263821,0.45681143,0.3724068,-0.6220888,0.5154049,10.064310073852539,-2.115121603012085,-0.48025044798851013,18.92742347717285,-50.634544372558594, -46.10543441772461
441,236280488,0.45402825,0.3816095,-0.6212913,0.51208395,10.124848365783691,-1.8901041746139526,-0.5735175609588623,24.417598724365234,-50.235252380371094, -41.98149490356445
442,236297155,0.45096013,0.39048895,-0.620101,0.5095371,9.913395881652832,-1.7421804666519165,-1.2724456787109375,28.844144821166992,-47.057132720947266, -38.206275939941406
443,236313822,0.44823647,0.39838547,-0.618462,0.5078167,9.98597526550293,-1.8842689990997314,-1.8276509046554565,29.967636108398438,-38.524742126464844, -33.85945510864258
444,236330489,0.44584528,0.4053008,-0.61671746,0.5065696,9.802340507507324,-2.254490613937378,-2.083270788192749,28.416412353515625,-32.04600524902344, -29.67752456665039
445,236347156,0.44438604,0.41065323,-0.61584485,0.5045993,9.497820854187012,-2.4949193000793457,-1.9362483024597168,14.925650596618652,-27.321264266967773, -26.088773727416992
446,236363823,0.44309017,0.41553375,-0.6151767,0.50255394,9.510544776916504,-2.3483359813690186,-1.729790449142456,11.996593475341797,-25.81475830078125, -24.31918716430664
447,236380490,0.44165587,0.4202889,-0.61438954,0.5008221,9.730430603027344,-1.9611132144927979,-1.5451236963272095,13.745739936828613,-24.700862884521484, -22.703317642211914
448,236397157,0.44027796,0.42479143,-0.61335766,0.4994997,9.769081115722656,-1.909176230430603,-1.4264494180679321,15.386563301086426,-21.663333892822266, -21.29682731628418
449,236413824,0.43932915,0.42847198,-0.6125957,0.49812478,9.715015411376953,-1.9370449781417847,-1.8601036071777344,10.495171546936035,-18.000564575195312, -18.676023483276367
450,236430491,0.4390022,0.43130055,-0.61192614,0.4967932,9.522098541259766,-1.997301459312439,-1.9232879877090454,5.954507827758789,-12.609268188476562, -16.81511116027832
451,236447158,0.43907806,0.43340102,-0.611443,0.49549162,9.538849830627441,-1.8568013906478882,-1.7451989650726318,2.049959421157837,-8.89555549621582, -14.48686408996582
452,236463825,0.43921122,0.43522152,-0.610934,0.4944043,9.570059776306152,-1.8194003105163574,-1.6952378749847412,2.020120143890381,-6.982194423675537, -12.935616493225098
453,236480492,0.43937394,0.43682656,-0.6104997,0.49337944,9.554222106933594,-1.9303128719329834,-1.546048641204834,1.2876728773117065,-6.163840293884277, -11.718213081359863
454,236497159,0.43952724,0.43816262,-0.610181,0.49245182,9.569449424743652,-1.8433306217193604,-1.5758299827575684,0.5163202881813049,-5.351404666900635, -9.918535232543945
455,236513826,0.43973303,0.43914333,-0.6099824,0.49164,9.587797164916992,-1.641379952430725,-1.646018147468567,-0.6388192176818848,-3.944983720779419, -7.894180774688721
456,236530493,0.44012815,0.4395566,-0.6099992,0.49089554,9.604134559631348,-1.6156920194625854,-1.6795719861984253,-3.372847318649292,-1.6833566427230835, -5.297052383422852
457,236547160,0.44067106,0.43944913,-0.61024106,0.49020335,9.625947952270508,-1.6938836574554443,-1.6044243574142456,-5.936282157897949,0.16803856194019318, -2.7697579860687256
458,236563827,0.4413327,0.43892902,-0.61057717,0.48965535,9.598411560058594,-1.7743310928344727,-1.585018277168274,-7.25937032699585,2.203275203704834, -0.7142230868339539
459,236580494,0.4420622,0.43817362,-0.6110249,0.48911512,9.488845825195312,-1.851516604423523,-1.5451186895370483,-8.523191452026367,2.959785223007202, 0.40815767645835876
460,236597161,0.4429315,0.43751532,-0.6116231,0.48816967,9.50796890258789,-2.089547872543335,-1.1496962308883667,-10.858790397644043,1.536756157875061, -1.2476847171783447
461,236613828,0.44376996,0.43771663,-0.61238605,0.48626736,9.339770317077637,-2.6271231174468994,-0.7075957655906677,-12.728459358215332,-4.870271682739258, -7.1809868812561035
462,236630495,0.44458133,0.43949422,-0.6133597,0.48268247,8.990004539489746,-3.2264163494110107,-0.24610216915607452,-15.6331148147583,-15.979772567749023, -18.239370346069336
463,236647162,0.44518718,0.44344237,-0.6144232,0.47712842,8.638798713684082,-3.3551151752471924,-0.08875390887260437,-16.99045753479004,-30.300048828125, -32.482574462890625
464,236663829,0.44530436,0.4499378,-0.615487,0.46950608,8.521370887756348,-4.463031768798828,-0.03065066784620285,-16.454988479614258,-47.05527877807617, -47.99982833862305
465,236680496,0.4448598,0.45926565,-0.61558765,0.46068084,9.87729549407959,-3.8112587928771973,-0.5208367109298706,-8.044811248779297,-59.37764358520508, -64.88509368896484
466,236697163,0.44501173,0.46987998,-0.6149516,0.45056835,11.195361137390137,-2.964083433151245,-1.0260741710662842,-9.12588882446289,-62.76469039916992, -78.52287292480469
467,236713830,0.44656065,0.47873053,-0.61552143,0.4387869,12.023665428161621,-0.6872959733009338,-1.364893913269043,-29.84373664855957,-60.50008773803711, -76.62631225585938
468,236730497,0.45014128,0.4842788,-0.61781245,0.42562282,13.224167823791504,-1.0745092630386353,-1.5868468284606934,-57.72138214111328,-51.801876068115234, -67.34501647949219
469,236747164,0.45514995,0.48808914,-0.6209537,0.41112554,13.724933624267578,-1.4184844493865967,-1.201271653175354,-76.01416015625,-47.75453186035156, -65.42700958251953
470,236763831,0.46061185,0.4915919,-0.62508076,0.39426917,13.556886672973633,-3.29925799369812,-0.5247423052787781,-91.36663055419922,-56.00025177001953, -69.46793365478516
471,236780498,0.46449333,0.49735636,-0.6285597,0.37655705,14.9932279586792,-2.8671700954437256,0.322177529335022,-80.79903411865234,-69.8250961303711, -79.83943176269531
472,236797165,0.46762806,0.5048787,-0.6305047,0.3590061,16.45250701904297,-2.670916795730591,1.4000393152236938,-67.9770278930664,-72.23448944091797, -90.2699203491211
473,236813832,0.47289458,0.5119271,-0.6321923,0.33857727,16.763822555541992,-4.261226654052734,2.1906230449676514,-88.75618743896484,-71.09431457519531, -103.66748809814453
474,236830499,0.483821,0.51319146,-0.6384423,0.30812898,15.550387382507324,-5.982290267944336,1.1012165546417236,-181.6966094970703,-83.2641372680664, -108.30529022216797
475,236847166,0.48835734,0.5180221,-0.6442734,0.27941373,13.808247566223145,-6.391854286193848,-1.5491920709609985,-138.8045654296875,-111.46786499023438, -106.24252319335938
476,236863833,0.4878306,0.5280931,-0.64613163,0.2562284,11.279194831848145,-3.5636348724365234,-6.1988348960876465,-71.07575225830078,-110.97993469238281, -115.42914581298828
477,236880500,0.48373005,0.5410672,-0.6461232,0.23617055,9.961126327514648,-2.5197556018829346,-4.8371663093566895,-31.21515655517578,-114.33409881591797, -118.39634704589844
478,236897167,0.48097757,0.55131966,-0.64554083,0.21905358,9.208892822265625,1.5250910520553589,-2.104351282119751,-31.322240829467773,-91.07160949707031, -100.9063949584961
479,236913834,0.4854299,0.5531152,-0.6462834,0.2018401,9.056039810180664,-0.2293350249528885,-0.4875517189502716,-89.0224838256836,-51.13300704956055, -69.5274429321289
480,236930501,0.49353015,0.5482167,-0.648179,0.18907884,5.154623985290527,-6.760272979736328,3.356273651123047,-107.05415344238281,-12.600401878356934, -25.639738082885742
481,236947168,0.50131387,0.54098177,-0.6502415,0.18223467,3.773895025253296,-7.600322723388672,3.077749252319336,-87.66248321533203,10.691950798034668, 5.777558326721191
482,236963835,0.5062402,0.5332915,-0.65247434,0.18329841,3.9794933795928955,-5.910927772521973,2.9599740505218506,-43.49300765991211,27.258899688720703, 39.162384033203125
483,236980502,0.5083486,0.5252771,-0.6548323,0.19199064,4.623502254486084,-6.146522521972656,2.598024606704712,-0.24459436535835266,42.50258255004883, 71.08418273925781
484,236997169,0.5068322,0.51790625,-0.6568575,0.2084051,5.948350429534912,-5.638431072235107,1.9053122997283936,50.28333282470703,54.32419204711914, 98.66536712646484
485,237013836,0.5028323,0.51051486,-0.65807885,0.2312285,7.343170642852783,-4.721028804779053,1.1318548917770386,89.13359832763672,68.69508361816406, 121.70416259765625
486,237030503,0.49745455,0.50229836,-0.65805966,0.25921586,8.174488067626953,-3.505993366241455,0.5173302888870239,116.44332122802734,86.11939239501953, 141.0608367919922
487,237047170,0.49210516,0.49242488,-0.65639776,0.29067588,8.708476066589355,-2.669034481048584,-0.2203252911567688,129.3125,106.7481918334961, 154.66725158691406
488,237063837,0.4877781,0.48003456,-0.65292776,0.32453778,9.203460693359375,-1.9879881143569946,-0.7850747108459473,131.7869415283203,130.58697509765625, 165.9633331298828
489,237080504,0.48522967,0.46414584,-0.6479448,0.359567,10.224333763122559,-1.2416173219680786,-1.1140183210372925,122.79986572265625,155.2635040283203, 176.61172485351562
490,237097171,0.4846686,0.4442466,-0.6415913,0.3950975,11.570608139038086,-1.005110502243042,-1.199903964996338,108.7061538696289,180.17381286621094, 186.87196350097656
491,237113838,0.48635268,0.419914,-0.6339131,0.4304504,12.559489250183105,-0.9587370753288269,-1.2157200574874878,89.90000915527344,205.97598266601562, 195.710205078125
492,237130505,0.48968524,0.39101374,-0.6245899,0.46605158,14.460447311401367,-1.6153937578201294,-1.2733843326568604,75.83091735839844,232.8973846435547, 206.852294921875
493,237147172,0.4941216,0.3576932,-0.6135545,0.5014484,16.755659103393555,-1.4086134433746338,-1.627082347869873,62.60511016845703,257.03326416015625, 217.04254150390625
494,237163839,0.4985837,0.32029188,-0.60143596,0.5358193,18.234699249267578,-1.7267612218856812,-2.7886431217193604,48.10114288330078,272.4022521972656, 228.0763702392578
495,237180506,0.50064045,0.27989924,-0.58998615,0.5682712,18.936321258544922,-1.5795141458511353,-4.267067909240723,32.766151428222656,267.01690673828125, 244.2711944580078
496,237197173,0.49951574,0.23818912,-0.58049744,0.5973046,19.01799964904785,-1.670499324798584,-7.061631679534912,12.845966339111328,246.0194854736328, 254.13522338867188
497,237213840,0.49322486,0.20280592,-0.5732529,0.6220773,16.185333251953125,-2.985286235809326,-12.413833618164062,16.865489959716797,184.8397216796875, 239.21142578125
498,237230507,0.48489687,0.17843203,-0.5672468,0.641302,14.28990650177002,10.750835418701172,-12.676959991455078,29.974491119384766,117.96060943603516, 187.49099731445312
499,237247174,0.4812083,0.16996291,-0.56490797,0.6484058,4.56890869140625,12.678682327270508,-13.016372680664062,13.914746284484863,39.016075134277344, 69.30281066894531
500,237263841,0.4766984,0.18133728,-0.5673522,0.6465191,8.209312438964844,4.613418102264404,-11.925735473632812,24.32729148864746,-78.80691528320312, -28.093156814575195
501,237280508,0.4718509,0.20131505,-0.5733754,0.6388034,10.721040725708008,7.275628566741943,-9.928180694580078,14.358118057250977,-137.21458435058594, -74.69950866699219
502,237297175,0.46918055,0.21928221,-0.58143795,0.627467,7.842230319976807,3.8306961059570312,-5.396018981933594,-18.37934684753418,-131.28854370117188, -85.11905670166016
503,237313842,0.46741587,0.22563447,-0.5923234,0.6162504,8.612483024597168,-15.840426445007324,11.747629165649414,-68.9004898071289,-86.41282653808594, -37.86341857910156
504,237330509,0.46456316,0.23347019,-0.5929074,0.6149257,11.477298736572266,-8.06977367401123,17.753210067749023,21.443727493286133,-48.80316162109375, -23.606304168701172
505,237347176,0.46358144,0.24836615,-0.59102875,0.6116302,15.391090393066406,4.875320911407471,0.9900433421134949,43.27409362792969,-66.50146484375, -70.56780242919922
506,237363843,0.4651232,0.25755116,-0.6003018,0.59746593,18.236604690551758,0.6896226406097412,-8.338529586791992,-70.32317352294922,-86.32239532470703, -73.43950653076172
507,237380510,0.46133253,0.27274102,-0.61050254,0.5831565,14.79024887084961,-7.907706260681152,-5.142980098724365,-46.04500198364258,-136.1207733154297, -75.04480743408203
508,237397177,0.45760077,0.2920896,-0.61475825,0.57215184,11.802830696105957,0.30087462067604065,1.9589282274246216,4.7797956466674805,-127.43579864501953, -93.42799377441406
509,237413844,0.45394495,0.30879703,-0.6182291,0.562469,7.971626281738281,-6.038968086242676,-5.164190769195557,4.978946685791016,-111.62281799316406, -79.9404296875
510,237430511,0.44911927,0.3270669,-0.6152299,0.5592956,7.262604236602783,-3.9952893257141113,-3.964582681655884,65.0469741821289,-88.58141326904297, -75.53044128417969
511,237447178,0.44617173,0.34146872,-0.6129574,0.55552965,9.78954029083252,-1.0654433965682983,-1.6830235719680786,43.580753326416016,-69.31036376953125, -66.62163543701172
512,237463845,0.44340155,0.35458985,-0.6101274,0.5526353,10.935477256774902,-1.120077133178711,-0.10897386819124222,45.0330924987793,-59.91498565673828, -60.53319549560547
513,237480512,0.44097197,0.36581364,-0.6080333,0.54956317,9.972391128540039,-1.280168890953064,0.25678300857543945,34.86521911621094,-53.97165298461914, -52.61064529418945
514,237497179,0.43762976,0.3758168,-0.60647345,0.5472039,9.863679885864258,-1.7390321493148804,0.55420982837677,34.41094207763672,-53.02474594116211, -40.55596923828125
515,237513846,0.43371382,0.38502473,-0.6061586,0.5442612,9.927735328674316,-1.7242531776428223,0.549342155456543,26.37425422668457,-57.70509338378906, -33.62668228149414
516,237530513,0.42947704,0.39361706,-0.60636246,0.5412391,9.592020034790039,-2.267129421234131,-0.8038458824157715,23.109432220458984,-58.522125244140625, -28.731210708618164
517,237547180,0.42642263,0.40009603,-0.6080996,0.5369376,9.530926704406738,-2.573725700378418,-1.0170872211456299,2.6246869564056396,-53.734031677246094, -23.959794998168945
518,237563847,0.4241429,0.40508908,-0.6108851,0.53181314,9.628549575805664,-2.86710786819458,-1.0355397462844849,-11.177220344543457,-50.362857818603516, -20.148014068603516
519,237580514,0.42249522,0.4093783,-0.6139487,0.52628344,9.45316219329834,-3.369178056716919,-1.25260329246521,-17.71283721923828,-47.091651916503906, -19.92322540283203
520,237597181,0.4203574,0.4148087,-0.61539596,0.52203596,9.775158882141113,-2.5086917877197266,-1.6196917295455933,-1.762912392616272,-45.000125885009766, -23.80995750427246
521,237613848,0.41832623,0.41979006,-0.6165683,0.51828855,9.755123138427734,-1.6279661655426025,-1.9470725059509277,-0.2644146978855133,-40.728485107421875, -21.64156150817871
522,237630515,0.4173232,0.42249838,-0.6189682,0.5140184,9.914596557617188,-1.8473398685455322,-1.9008945226669312,-16.36239242553711,-33.319541931152344, -13.633073806762695
523,237647182,0.41677332,0.42373434,-0.62202024,0.5097451,9.708996772766113,-2.31636381149292,-2.052326202392578,-24.223726272583008,-28.0803279876709, -7.086966514587402
524,237663849,0.41612548,0.42461777,-0.62502897,0.5058441,9.383940696716309,-2.4097306728363037,-2.1611502170562744,-23.2072811126709,-26.06593894958496, -4.30208158493042
525,237680516,0.41522834,0.42569053,-0.62764716,0.50242627,9.323493003845215,-2.646411895751953,-2.2016327381134033,-18.506393432617188,-25.277503967285156, -4.0146894454956055
526,237697183,0.41450143,0.42678618,-0.62983,0.49935603,9.511092185974121,-2.7539987564086914,-2.158764600753784,-15.937582015991211,-22.37098503112793, -4.993235111236572
527,237713850,0.4140335,0.42788875,-0.63159275,0.49656647,9.252116203308105,-3.2151107788085938,-1.9665699005126953,-14.0236234664917,-19.26191520690918, -6.354511737823486
528,237730517,0.41426453,0.42924005,-0.63302016,0.49337965,9.2739896774292,-3.266150951385498,-2.410367488861084,-15.956929206848145,-17.300241470336914, -11.950759887695312
529,237747184,0.41467953,0.43029353,-0.6338268,0.4910725,9.256814002990723,-2.260664939880371,-2.596182346343994,-11.417540550231934,-11.132357597351074, -10.616926193237305
530,237763851,0.41514564,0.43108168,-0.634351,0.48930714,9.454713821411133,-2.192349433898926,-2.22043514251709,-9.01305103302002,-7.611753940582275, -8.929361343383789
531,237780518,0.41580918,0.43157598,-0.6348991,0.48759416,9.655963897705078,-2.2318241596221924,-1.971311330795288,-10.2916259765625,-5.682488918304443, -8.096526145935059
532,237797185,0.41662526,0.43176872,-0.6356974,0.48568314,9.7072114944458,-2.499152183532715,-1.7297009229660034,-13.312813758850098,-5.3176493644714355, -7.1191325187683105
533,237813852,0.41776744,0.43171126,-0.63705635,0.48296478,9.65922737121582,-2.6190359592437744,-1.4727922677993774,-20.400707244873047,-7.069642543792725, -7.768564224243164
534,237830519,0.41908574,0.43193182,-0.6390323,0.47899878,9.36801528930664,-2.9754714965820312,-1.2186096906661987,-27.643192291259766,-12.708452224731445, -11.328653335571289
535,237847186,0.4203035,0.43311235,-0.641229,0.47390315,9.088796615600586,-3.094336986541748,-1.2557631731033325,-30.273462295532227,-20.3142147064209, -17.822675704956055
536,237863853,0.42137197,0.43534446,-0.6434715,0.46783075,9.104610443115234,-2.917574644088745,-1.4010415077209473,-31.248979568481445,-27.450931549072266, -24.667207717895508
537,237880520,0.422361,0.43844315,-0.64561737,0.461039,9.209412574768066,-2.6293892860412598,-1.7284984588623047,-31.375988006591797,-32.473175048828125, -30.625978469848633
538,237897187,0.42326063,0.44210726,-0.6476252,0.45384264,9.329621315002441,-2.2040855884552,-2.0306479930877686,-30.826419830322266,-35.489036560058594, -34.44972610473633
539,237913854,0.42391786,0.44642252,-0.64933777,0.44649872,9.510395050048828,-1.8577680587768555,-2.085052967071533,-27.932392120361328,-38.19549560546875, -37.924163818359375
540,237930521,0.42452723,0.4512353,-0.6506689,0.43908235,9.639123916625977,-1.798139214515686,-2.243753671646118,-25.489839553833008,-39.0540771484375, -41.38245391845703
541,237947188,0.42499164,0.4563074,-0.6518663,0.43155065,9.655238151550293,-2.059891939163208,-2.3565475940704346,-24.39723777770996,-40.458412170410156, -42.859649658203125
542,237963855,0.425505,0.4613238,-0.6531883,0.42364013,9.803010940551758,-1.7623940706253052,-2.3402819633483887,-26.78333282470703,-41.632083892822266, -43.47500991821289
543,237980522,0.42616883,0.46630466,-0.6546504,0.41517872,10.224128723144531,-1.8858168125152588,-2.1440892219543457,-30.247623443603516,-43.01656723022461, -44.92417526245117
544,237997189,0.42720255,0.47127998,-0.6564299,0.40557763,10.723721504211426,-2.183485269546509,-2.011373996734619,-37.48871994018555,-45.92845916748047, -48.280879974365234
545,238013856,0.4288438,0.47605923,-0.6585777,0.3946342,11.947857856750488,-1.984148383140564,-1.4246466159820557,-47.12062072753906,-48.08071517944336, -51.8453369140625
546,238030523,0.4319826,0.48055172,-0.66105354,0.3814046,14.156006813049316,-3.1110479831695557,-0.5207738876342773,-64.11326599121094,-48.98656463623047, -60.28248596191406
547,238047190,0.43711486,0.48428193,-0.66395533,0.3654657,16.39347267150879,-3.4910459518432617,1.4979249238967896,-86.40064239501953,-48.16624069213867, -68.69551849365234
548,238063857,0.44588545,0.48659238,-0.66787887,0.3440236,19.408174514770508,-4.129459381103516,4.135350704193115,-130.48193359375,-49.42023849487305, -84.5107421875
549,238080524,0.45714998,0.48880428,-0.6726552,0.3156258,19.855648040771484,-5.978023529052734,6.455227375030518,-173.10336303710938,-63.67394256591797, -108.45558166503906
550,238097191,0.4664602,0.49265838,-0.6776449,0.2837252,17.212966918945312,-6.618153095245361,6.356350898742676,-178.04519653320312,-88.78060913085938, -122.14102172851562
551,238113858,0.46997988,0.502706,-0.6788042,0.25618443,15.605411529541016,-9.414076805114746,1.049299955368042,-110.76751708984375,-100.8348388671875, -138.7287139892578
552,238130525,0.46665254,0.5211608,-0.67480415,0.23508815,13.532938957214355,-6.91548490524292,-8.018758773803711,-20.768644332885742,-108.6779556274414, -162.9607391357422
553,238147192,0.45819825,0.5434876,-0.6697351,0.21478042,11.660490036010742,-5.373281002044678,-9.477628707885742,15.402994155883789,-132.46495056152344, -173.97622680664062
554,238163859,0.4466303,0.5643723,-0.66546756,0.19788468,10.61070728302002,-1.766347885131836,-5.714863300323486,37.01411056518555,-134.43067932128906, -149.01077270507812
555,238180526,0.43690237,0.5811357,-0.66087383,0.18612786,9.845894813537598,3.038947343826294,-3.9843180179595947,41.160179138183594,-99.45409393310547, -118.13639068603516
556,238197193,0.4381213,0.5878596,-0.65766424,0.17305742,5.976762294769287,1.993510127067566,-2.204977512359619,-40.4716911315918,-46.26927185058594, -84.93265533447266
557,238213860,0.4482581,0.58376265,-0.6576696,0.16048898,4.655661106109619,-6.073735237121582,1.1771914958953857,-110.6629638671875,-0.7212874293327332, -32.10709762573242
558,238230527,0.4588601,0.576635,-0.65792286,0.15516846,1.5182973146438599,-8.884718894958496,3.2250640392303467,-89.38199615478516,33.04741287231445, 4.395349979400635
559,238247194,0.46905893,0.5673224,-0.6584782,0.15663874,1.0832475423812866,-5.278459072113037,2.545534610748291,-64.28692626953125,59.52324676513672, 37.299461364746094
560,238263861,0.47867444,0.55530834,-0.65989465,0.16444586,1.601239800453186,-4.0958571434021,1.6315745115280151,-42.97024154663086,81.7314453125, 73.94100952148438
561,238280528,0.48643446,0.54190403,-0.661553,0.1790788,2.9903335571289062,-4.419546127319336,0.9872604012489319,-9.762295722961426,100.15449523925781, 105.72417449951172
562,238297195,0.4927793,0.5269461,-0.6629187,0.200088,4.629814624786377,-3.4284090995788574,0.3851448893547058,19.673856735229492,120.36886596679688, 134.76390075683594
563,238313862,0.4985042,0.5095686,-0.66407055,0.22548571,6.0453362464904785,-1.8327685594558716,-0.5654606819152832,34.023231506347656,137.50059509277344, 160.73739624023438
564,238330529,0.50376314,0.48946017,-0.6645811,0.25491837,7.508698463439941,-1.7688450813293457,-1.0791960954666138,45.71460723876953,155.9477081298828, 185.5211944580078
565,238347196,0.50784785,0.46711484,-0.66441864,0.28712732,8.539017677307129,-2.5738961696624756,-1.7208175659179688,55.79297637939453,166.18319702148438, 205.15765380859375
566,238363863,0.51063865,0.4428328,-0.66300637,0.32182306,9.948800086975098,-2.9114394187927246,-2.863934278488159,67.01732635498047,176.45408630371094, 221.23638916015625
567,238380530,0.5115584,0.41750902,-0.6596842,0.3589026,11.30564022064209,-2.4144392013549805,-3.2609622478485107,84.15647888183594,184.20330810546875, 232.6866455078125
568,238397197,0.5115706,0.3899099,-0.6545103,0.397344,13.339315414428711,-1.0634698867797852,-2.9047882556915283,89.51597595214844,196.13719177246094, 244.73373413085938
569,238413864,0.5120879,0.3581465,-0.64769715,0.4358735,15.858489990234375,0.004781901836395264,-2.2193846702575684,78.39076232910156,215.8083953857422, 258.0341491699219
570,238430531,0.51268584,0.32206708,-0.6384873,0.4751422,18.72179412841797,0.266509473323822,-2.197558641433716,73.47962188720703,239.38827514648438, 273.7546691894531
571,238447198,0.5116518,0.28382158,-0.6273327,0.5139177,21.505775451660156,2.7352898120880127,-3.595336675643921,73.6581802368164,245.0771026611328, 282.5863342285156
572,238463865,0.51006716,0.24409653,-0.6151095,0.5494441,20.475481033325195,2.711790084838867,-7.954374313354492,59.284183502197266,245.36260986328125, 277.4334716796875
573,238480532,0.5052198,0.21189864,-0.60208267,0.5808171,17.533618927001953,0.8866397738456726,-14.121810913085938,76.63726806640625,198.96652221679688, 242.00729370117188
574,238497199,0.49835294,0.19268847,-0.58993614,0.6053852,14.149740219116211,7.073630332946777,-16.743913650512695,93.01679992675781,125.7822494506836, 173.93496704101562
575,238513866,0.49443838,0.18375506,-0.5822416,0.6186759,10.27727222442627,13.660961151123047,-16.377365112304688,60.05415725708008,64.8343276977539, 87.24337005615234
576,238530533,0.49285516,0.18442175,-0.583333,0.61871266,8.566880226135254,11.028655052185059,-16.638675689697266,-0.6726027131080627,-13.220541000366211, 4.9981231689453125
577,238547200,0.49130496,0.195144,-0.59543204,0.6049786,8.837014198303223,3.5974278450012207,-14.1752347946167,-68.68558502197266,-110.56881713867188, -68.13309478759766
578,238563867,0.48904887,0.20347609,-0.61053276,0.58879423,9.583202362060547,-15.272350311279297,12.006326675415039,-98.31480407714844,-116.8942642211914, -59.63319396972656
579,238580534,0.48382846,0.2177217,-0.60932297,0.58926475,10.265435218811035,-11.766372680664062,21.262460708618164,61.65485382080078,-75.1621322631836, -39.300479888916016
580,238597201,0.48031992,0.23961082,-0.6044337,0.5886761,15.892993927001953,11.550106048583984,0.6805137395858765,94.96294403076172,-88.37339782714844, -87.31546020507812
581,238613868,0.4817218,0.2531718,-0.61177963,0.57408524,17.709941864013672,2.5760796070098877,-2.080814838409424,-48.35659408569336,-97.72384643554688, -98.59917449951172
582,238630535,0.4767748,0.26874122,-0.6221347,0.5598326,10.789612770080566,-8.516138076782227,-6.516895294189453,-41.106998443603516,-141.72402954101562, -75.59072875976562
583,238647202,0.470251,0.2907681,-0.6243813,0.55178434,12.115056991577148,-4.6902289390563965,0.032105252146720886,40.74299621582031,-135.25372314453125, -91.80248260498047
584,238663869,0.46480268,0.31064036,-0.6251084,0.5447024,7.674167633056641,-0.5785983204841614,-5.354523658752441,41.54014205932617,-115.61028289794922, -86.54594421386719
585,238680536,0.45910746,0.32928842,-0.62206185,0.5420597,9.715056419372559,-1.6375707387924194,-5.08515739440918,71.37438201904297,-90.52127075195312, -74.22686004638672
586,238697203,0.4571344,0.34108627,-0.6217966,0.53670985,11.011775016784668,1.7325905561447144,-1.4616786241531372,19.380094528198242,-63.956295013427734, -61.0429573059082
587,238713870,0.4559381,0.34975842,-0.6229396,0.5307879,10.97431468963623,-0.5878216028213501,0.04456467926502228,0.09244440495967865,-54.86343765258789, -49.02348709106445
588,238730537,0.45464447,0.35680845,-0.6247303,0.5250699,10.262250900268555,-1.8362741470336914,-0.5192755460739136,-6.249091148376465,-50.902530670166016, -39.514060974121094
589,238747204,0.45323983,0.36126348,-0.627613,0.51977324,10.316411972045898,-2.3719284534454346,-0.17906077206134796,-16.219696044921875,-44.39254379272461, -23.965463638305664
590,238763871,0.45091596,0.36484945,-0.6310762,0.51507515,10.168023109436035,-2.0381271839141846,-0.4795753061771393,-16.136795043945312,-45.57889175415039, -13.620619773864746
591,238780538,0.4481279,0.36831734,-0.6336447,0.51187706,9.862048149108887,-1.978574514389038,-1.6420737504959106,-5.660134315490723,-40.641380310058594, -9.05552864074707
592,238797205,0.44580314,0.37015727,-0.6357663,0.5099455,10.034643173217773,-1.8499093055725098,-2.5055508613586426,-4.758354187011719,-28.307212829589844, -0.8195063471794128
593,238813872,0.4443093,0.37016553,-0.6380869,0.50834244,9.744725227355957,-2.8274495601654053,-2.1574862003326416,-11.74533748626709,-18.023454666137695, 5.7900872230529785
594,238830539,0.44341546,0.36935374,-0.64055276,0.50660914,9.43836784362793,-3.1827850341796875,-1.7453267574310303,-16.855466842651367,-13.298023223876953, 7.263794422149658
595,238847206,0.44268292,0.3685035,-0.64262295,0.50524527,9.484297752380371,-3.296297311782837,-1.854399561882019,-14.375761985778809,-10.308869361877441, 6.991616725921631
596,238863873,0.4420185,0.3678667,-0.6441791,0.5043085,9.532456398010254,-2.91422963142395,-1.677103877067566,-10.225518226623535,-8.101865768432617, 5.8082404136657715
597,238880540,0.44175398,0.36675996,-0.6455051,0.5036505,9.43350887298584,-2.7660574913024902,-1.5241526365280151,-10.632400512695312,-3.2963433265686035, 6.7681660652160645
598,238897207,0.44166735,0.36554626,-0.6467902,0.5029597,9.161213874816895,-3.2562496662139893,-1.2460657358169556,-11.409159660339355,-2.0954275131225586, 6.4251484870910645
599,238913874,0.44254273,0.36439547,-0.6480487,0.5014031,9.1890230178833,-3.5118517875671387,-1.1936397552490234,-17.393600463867188,-0.13161097466945648, 0.12169244140386581
600,238930541,0.44503564,0.36247107,-0.64837086,0.5001732,9.036999702453613,-3.239487886428833,-1.5713574886322021,-19.117265701293945,13.408663749694824, -3.3603668212890625
601,238947208,0.44664395,0.36148384,-0.64814395,0.4997481,8.889272689819336,-3.2046003341674805,-1.5821008682250977,-8.570399284362793,9.928033828735352, -3.4029438495635986
602,238963875,0.44722706,0.36132684,-0.64806795,0.49943852,9.03904914855957,-3.078868865966797,-1.2926020622253418,-3.4770524501800537,2.3314924240112305, -2.8518078327178955
603,238980542,0.44726148,0.362028,-0.6483566,0.4985246,8.867934226989746,-3.730828046798706,-0.9477753639221191,-3.420576333999634,-5.6832404136657715, -5.74413537979126
604,238997209,0.446989,0.3638933,-0.64878386,0.4968521,8.634806632995605,-4.008681774139404,-0.7209505438804626,-2.9340660572052,-13.356742858886719, -11.873113632202148
605,239013876,0.44666934,0.36677834,-0.64949757,0.49407807,8.758072853088379,-3.811605453491211,-0.44609031081199646,-5.575106620788574,-20.68967628479004, -18.93532943725586
606,239030543,0.44617373,0.37073067,-0.6503193,0.49048203,9.224634170532227,-3.2841644287109375,-0.4867401719093323,-5.89260196685791,-27.50859832763672, -25.35970687866211
607,239047210,0.44546732,0.3753104,-0.6514177,0.48616484,9.460383415222168,-3.1505792140960693,-0.5854000449180603,-7.590273857116699,-33.25722122192383, -28.963390350341797
608,239063877,0.44474205,0.38032022,-0.6529061,0.48091045,9.39073657989502,-3.1740927696228027,-1.001721978187561,-11.725116729736328,-38.39628982543945, -32.692020416259766
609,239080544,0.44399947,0.38570514,-0.6546271,0.47493112,9.324471473693848,-2.9196760654449463,-1.274505853652954,-14.556657791137695,-42.32361602783203, -35.9290885925293
610,239097211,0.4431977,0.39130598,-0.65649027,0.46848276,9.480257034301758,-2.758220911026001,-1.4294499158859253,-16.31801414489746,-44.97487258911133, -37.763336181640625
611,239113878,0.44231975,0.39713725,-0.65836006,0.46173304,9.614948272705078,-2.7747130393981934,-1.6584447622299194,-16.791656494140625,-46.892974853515625, -39.46001052856445
612,239130545,0.4414899,0.40294886,-0.6601678,0.45486003,9.764406204223633,-2.2754533290863037,-1.9943833351135254,-17.344646453857422,-46.76226806640625, -40.06899642944336
613,239147212,0.44072434,0.408376,-0.6621426,0.4478375,9.775699615478516,-1.8058174848556519,-2.0113463401794434,-19.889846801757812,-46.19029998779297, -38.51479721069336
614,239163879,0.4398566,0.41386408,-0.6643557,0.44031173,9.466446876525879,-2.2593634128570557,-1.6710026264190674,-22.442874908447266,-48.97978591918945, -39.33056640625
615,239180546,0.43874583,0.42017084,-0.6662329,0.43254176,9.50784683227539,-2.6225967407226562,-2.2992820739746094,-19.37363624572754,-52.250160217285156, -44.029720306396484
616,239197213,0.4374975,0.42703375,-0.66769445,0.42476156,9.366410255432129,-2.335029363632202,-2.3996171951293945,-16.110511779785156,-53.31098175048828, -47.40244674682617
617,239213880,0.43612754,0.43426818,-0.66900957,0.41668978,9.422968864440918,-2.2981975078582764,-2.5450758934020996,-15.547585487365723,-55.37055969238281, -50.06204605102539
618,239230547,0.4351615,0.44123644,-0.6706487,0.40764594,9.739291191101074,-2.735093116760254,-2.9829726219177246,-22.952064514160156,-56.62559127807617, -51.944393157958984
619,239247214,0.43458548,0.44771263,-0.6724249,0.3981627,10.09848403930664,-2.1793971061706543,-2.9214820861816406,-28.01848602294922,-55.19154357910156, -51.6722526550293
620,239263881,0.43433768,0.45351303,-0.6746903,0.38790464,10.360259056091309,-1.7362784147262573,-2.635075092315674,-35.971248626708984,-55.67345428466797, -50.25760269165039
621,239280548,0.43476823,0.45902815,-0.67706674,0.37663057,11.630600929260254,-1.9858403205871582,-2.0759382247924805,-43.94767379760742,-55.27009582519531, -53.432743072509766
622,239297215,0.43571866,0.4652739,-0.67897207,0.36423394,13.090576171875,-3.1612794399261475,-1.6534746885299683,-47.41214370727539,-56.887367248535156, -63.024497985839844
623,239313882,0.4372163,0.47172013,-0.68110424,0.34988454,14.526993751525879,-2.5399255752563477,-0.46777236461639404,-58.24925994873047,-61.77785110473633, -70.46495056152344
624,239330549,0.43957996,0.47861058,-0.68295836,0.33357102,16.549821853637695,-3.6471426486968994,0.6652314066886902,-68.25652313232422,-64.35167694091797, -81.44078063964844
625,239347216,0.44332594,0.4856991,-0.6840763,0.31559178,17.9466495513916,-3.4868950843811035,1.7320984601974487,-78.34342193603516,-61.60752868652344, -93.01426696777344
626,239363883,0.44825104,0.49184224,-0.6861163,0.2939504,16.649526596069336,-4.587838172912598,2.4194095134735107,-104.39168548583984,-69.09679412841797, -99.23051452636719
627,239380550,0.45601475,0.493893,-0.6917936,0.26370826,15.062043190002441,-8.564215660095215,0.9321336150169373,-174.5499267578125,-87.78482055664062, -99.90422058105469
628,239397217,0.4591611,0.49762112,-0.6978184,0.23365341,13.09007453918457,-6.8424224853515625,-2.630845308303833,-153.35635375976562,-113.28141784667969, -97.79341125488281
629,239413884,0.45697471,0.5074481,-0.6996483,0.21014994,11.633186340332031,-2.0999484062194824,-7.649969577789307,-77.68311309814453,-113.01864624023438, -112.19709777832031
630,239430551,0.45437536,0.5181953,-0.6996863,0.18829693,10.350476264953613,-1.2329728603363037,-7.639491081237793,-62.82733917236328,-104.93791961669922, -117.11444091796875
631,239447218,0.45153007,0.5281274,-0.6987908,0.16998124,8.81519889831543,0.3641301989555359,-5.169520378112793,-46.27846908569336,-89.53631591796875, -105.16265869140625
632,239463885,0.45282286,0.5336198,-0.6978471,0.15235151,7.752197742462158,2.7946784496307373,-3.633605480194092,-71.74431610107422,-61.825164794921875, -86.71873474121094
633,239480552,0.46045712,0.53071016,-0.69838524,0.13632457,3.9109511375427246,-5.6366658210754395,1.4633303880691528,-115.01995086669922,-21.330318450927734, -42.626102447509766
634,239497219,0.46984482,0.5239401,-0.6989285,0.12740381,1.9569339752197266,-5.670889377593994,3.2226638793945312,-99.5355224609375,16.60753059387207, -3.2462570667266846
635,239513886,0.47808135,0.51634574,-0.6991567,0.12651213,1.4817804098129272,-6.339404106140137,4.0566205978393555,-59.201839447021484,41.72227096557617, 26.4966983795166
636,239530553,0.48456448,0.5081243,-0.6993054,0.13408601,2.334160327911377,-4.800297737121582,2.9726076126098633,-14.27908706665039,64.13732147216797, 58.545711517333984
637,239547220,0.48808962,0.5001448,-0.6991442,0.15106776,5.090679168701172,-5.242539405822754,1.7815812826156616,42.37846755981445,83.57614135742188, 90.34672546386719
638,239563887,0.48902476,0.49250206,-0.698108,0.17590313,7.4585771560668945,-4.425469875335693,0.4432310461997986,91.07733917236328,100.7008285522461, 114.73979949951172
639,239580554,0.48934224,0.48372224,-0.6959377,0.20549425,8.61197566986084,-2.8841118812561035,-0.8765256404876709,113.54458618164062,119.0087661743164, 133.0740966796875
640,239597221,0.49054104,0.4721659,-0.69267714,0.23796524,9.3258695602417,-1.6078730821609497,-1.8671979904174805,116.59822845458984,140.37890625, 151.16427612304688
641,239613888,0.49242535,0.45776823,-0.68815994,0.27276656,9.959290504455566,-1.6423569917678833,-1.982850193977356,117.94234466552734,160.08457946777344, 167.35643005371094
642,239630555,0.49454415,0.44059676,-0.6822034,0.30967596,11.183161735534668,-0.8752119541168213,-1.849076509475708,120.49201202392578,177.89625549316406, 182.64964294433594
643,239647222,0.49679402,0.4208315,-0.675816,0.34549883,11.769367218017578,-1.04752779006958,-1.9453489780426025,107.09278106689453,182.18975830078125, 189.53831481933594
644,239663889,0.49931788,0.39905784,-0.6687666,0.37971848,12.674027442932129,-1.0708134174346924,-2.219287157058716,93.55595397949219,185.84152221679688, 190.82936096191406
645,239680556,0.5023394,0.37495318,-0.66046685,0.41333896,13.842597961425781,-0.21381717920303345,-2.0096654891967773,84.69275665283203,196.8607177734375, 194.76927185058594
646,239697223,0.50702417,0.34672,-0.6511945,0.44571012,15.182229995727539,0.6759894490242004,-2.011300563812256,63.237457275390625,216.2894287109375, 201.98843383789062
647,239713890,0.5130464,0.31320977,-0.64190847,0.47606394,16.972415924072266,0.7251685261726379,-2.720823287963867,32.65558624267578,233.70233154296875, 214.48580932617188
648,239730557,0.51908123,0.27482104,-0.6331804,0.504094,17.47221565246582,0.37391918897628784,-3.5932252407073975,3.324969530105591,242.7797393798828, 229.02139282226562
649,239747224,0.52257335,0.23477447,-0.62427044,0.5311163,16.595111846923828,-0.4327000379562378,-6.023422718048096,-1.5450793504714966,236.22793579101562, 241.1491241455078
650,239763891,0.52128696,0.20042928,-0.6147611,0.5569174,15.191004753112793,-0.37582704424858093,-9.192527770996094,23.61400604248047,195.0951690673828, 228.7834930419922
651,239780558,0.51733005,0.17743656,-0.6044906,0.57920384,13.887368202209473,3.4197185039520264,-11.385693550109863,56.06036376953125,138.2526397705078, 177.37899780273438
652,239797225,0.5132868,0.16700983,-0.59533405,0.5951655,11.495905876159668,9.491642951965332,-13.260703086853027,70.15476989746094,76.23431396484375, 104.39329528808594
653,239813892,0.51082903,0.16700998,-0.5902153,0.60233486,8.780858993530273,11.421219825744629,-15.275718688964844,52.63569259643555,15.796954154968262, 28.911331176757812
654,239830559,0.5090229,0.17695652,-0.591389,0.5998676,6.847760200500488,7.090969085693359,-13.842920303344727,21.681278228759766,-55.815860748291016, -40.687461853027344
655,239847226,0.5055549,0.19463761,-0.5983652,0.5903298,8.508503913879395,5.429757118225098,-11.599002838134766,-1.87833833694458,-123.30355072021484, -82.91693878173828
656,239863893,0.5043304,0.20298526,-0.6106366,0.5758219,9.548884391784668,-10.96453857421875,4.913528919219971,-79.247314453125,-101.16754150390625, -63.757896423339844
657,239880560,0.50112265,0.20712441,-0.61524767,0.57222885,9.803634643554688,-19.17009162902832,22.64789390563965,-14.913228034973145,-51.04978561401367, -11.102799415588379
658,239897227,0.49971575,0.2195156,-0.6134763,0.5707398,12.9257230758667,5.635441303253174,1.4798027276992798,44.92574691772461,-51.032691955566406, -55.0091552734375
659,239913894,0.49968,0.23207955,-0.61992836,0.55870205,19.94284439086914,1.1877979040145874,-7.868731498718262,-33.3252067565918,-90.09705352783203, -84.88199615478516
660,239930561,0.49613142,0.24519919,-0.629503,0.54539627,13.322731018066406,-4.058294296264648,-4.538206100463867,-43.191585540771484,-119.89297485351562, -73.06290435791016
661,239947228,0.49143374,0.26247728,-0.6349274,0.5352252,11.47464656829834,-3.1961827278137207,2.079038143157959,2.077814817428589,-120.97988891601562, -83.04114532470703
662,239963895,0.48785928,0.2762534,-0.639738,0.5257497,9.508411407470703,-0.7703799605369568,-4.50646448135376,-6.486887454986572,-99.8630599975586, -70.63021850585938
663,239980562,0.48385313,0.28901434,-0.64092934,0.5211205,9.500439643859863,-2.3999483585357666,-3.748269557952881,25.339006423950195,-76.70953369140625, -55.20290756225586
664,239997229,0.48187587,0.29823717,-0.6421889,0.51618195,10.49387264251709,-0.4885720908641815,-1.6355500221252441,7.938418388366699,-55.904197692871094, -47.766075134277344
665,240013896,0.48157585,0.30284154,-0.6449817,0.51026505,10.556069374084473,-0.5587010979652405,-1.0957658290863037,-20.56103515625,-39.18094253540039, -33.39988327026367
666,240030563,0.4810917,0.30503502,-0.6483439,0.5051284,10.248340606689453,-2.306964159011841,-0.7050082683563232,-26.69466781616211,-31.794254302978516, -18.269412994384766
667,240047230,0.47973576,0.30723593,-0.6507258,0.5020116,10.115772247314453,-2.916191816329956,-0.5943016409873962,-12.429980278015137,-28.225841522216797, -10.637659072875977
668,240063897,0.4780076,0.3088554,-0.6527531,0.50003046,10.529679298400879,-2.1053829193115234,-1.0058634281158447,-7.254711151123047,-24.313997268676758, -3.74806809425354
669,240080564,0.47639334,0.3087897,-0.6557449,0.49769166,9.693704605102539,-2.0097930431365967,-0.7896495461463928,-17.952314376831055,-21.935827255249023, 4.30870246887207
670,240097231,0.47467715,0.3079594,-0.6585395,0.49615392,9.733835220336914,-2.815444231033325,-1.387131929397583,-15.949461936950684,-17.431442260742188, 10.32198715209961
671,240113898,0.47349095,0.3064651,-0.6607779,0.49523553,9.563532829284668,-3.2500414848327637,-1.8725123405456543,-14.532323837280273,-9.63684368133545, 12.371587753295898
672,240130565,0.47317442,0.3040875,-0.662759,0.4943555,9.40868854522705,-3.259460687637329,-1.841094732284546,-18.186532974243164,-1.7532308101654053, 13.010858535766602
673,240147232,0.47360072,0.30037022,-0.66543007,0.49262866,9.372976303100586,-3.50917649269104,-1.482870101928711,-30.298206329345703,2.1751868724823, 15.283987998962402
674,240163899,0.4741635,0.29660103,-0.668058,0.49081108,9.330283164978027,-3.0828914642333984,-1.1357827186584473,-31.014814376831055,2.9309563636779785, 14.679243087768555
675,240180566,0.4751344,0.2926395,-0.6708005,0.4885041,8.963911056518555,-3.4159860610961914,-1.1413708925247192,-35.10662078857422,4.081756114959717, 12.831814765930176
676,240197233,0.4759167,0.28943637,-0.6731327,0.48643857,8.373133659362793,-3.946154832839966,-1.0099536180496216,-29.756040573120117,2.490363121032715, 9.935206413269043
677,240213900,0.4761867,0.28745756,-0.6749463,0.48483193,8.411090850830078,-4.138266563415527,-0.5734552145004272,-20.87073516845703,-1.3660812377929688, 6.451126575469971
678,240230567,0.4755745,0.28726086,-0.6762619,0.48371488,8.504308700561523,-4.805972099304199,-0.3113722503185272,-9.36119270324707,-8.804832458496094, 1.7369201183319092
679,240247234,0.47443303,0.28883222,-0.67728823,0.48246244,8.540718078613281,-4.491219520568848,-0.3217509388923645,-2.2023868560791016,-16.470991134643555, -5.746739387512207
680,240263901,0.47294664,0.29176095,-0.67841816,0.48056847,8.285456657409668,-4.545815467834473,-0.21574047207832336,-0.42067691683769226,-24.19520378112793, -12.817626953125
681,240280568,0.4715967,0.29574063,-0.6796503,0.47771308,8.433572769165039,-4.629976272583008,-0.45995113253593445,-2.0995850563049316,-29.295682907104492, -21.100643157958984
682,240297235,0.4703252,0.30056253,-0.6808791,0.47419417,8.801624298095703,-4.122902870178223,-0.8971289396286011,-2.618941307067871,-33.03544998168945, -27.4624080657959
683,240313902,0.46914542,0.3058609,-0.6819276,0.47045356,9.241676330566406,-3.549616575241089,-1.277144193649292,-1.7170499563217163,-34.03554153442383, -31.086851119995117
684,240330569,0.4679345,0.31135312,-0.6827904,0.46679106,9.333457946777344,-3.2298357486724854,-1.4737378358840942,-0.05825653299689293,-34.04237365722656, -32.03516387939453
685,240347236,0.46655428,0.31720352,-0.68336755,0.4633766,9.250828742980957,-3.295175313949585,-1.790067195892334,3.5380067825317383,-34.53356170654297, -32.985504150390625
686,240363903,0.46512607,0.3231247,-0.6835728,0.46040887,9.038470268249512,-3.557239055633545,-1.8171842098236084,7.155020236968994,-32.81230926513672, -32.544376373291016
687,240380570,0.4635707,0.32940084,-0.6831053,0.45821902,9.360352516174316,-3.1543056964874268,-1.511086344718933,14.357843399047852,-30.647769927978516, -32.821895599365234
688,240397237,0.4625074,0.33560356,-0.68241197,0.45581928,9.770914077758789,-2.392374038696289,-1.4879207611083984,12.735648155212402,-27.857852935791016, -35.209739685058594
689,240413904,0.4617286,0.34149918,-0.6817573,0.45320228,9.67219066619873,-2.599522113800049,-1.5890469551086426,9.961369514465332,-26.18299102783203, -35.257598876953125
690,240430571,0.46101156,0.34746954,-0.68094176,0.45061243,9.393228530883789,-2.6703262329101562,-1.6341694593429565,10.682923316955566,-25.550647735595703, -36.089900970458984
691,240447238,0.4602165,0.35347992,-0.68014705,0.4479427,9.47409725189209,-2.541780948638916,-1.8249986171722412,10.557050704956055,-26.294076919555664, -36.238346099853516
692,240463905,0.45958802,0.35933524,-0.679454,0.4449711,9.497299194335938,-2.6183602809906006,-1.950213074684143,7.9364800453186035,-26.089208602905273, -36.73377227783203
693,240480572,0.459105,0.36497578,-0.6789748,0.44159767,9.34544563293457,-2.580467462539673,-1.865667462348938,4.366222858428955,-26.417579650878906, -36.91731262207031
694,240497239,0.45874548,0.3704238,-0.67889565,0.43753806,9.423916816711426,-2.5621700286865234,-1.8454210758209229,-0.9695633053779602,-28.2401123046875, -37.5562629699707
