PacketCounter,SampleTimeFine,Quat_W,Quat_X,Quat_Y,Quat_Z,Acc_X,Acc_Y,Acc_Z,Gyr_X,Gyr_Y,Gyr_Z 
1,130616619,0.04141572,0.75276953,-0.0052759554,0.65695906,1.0895088911056519,-1.7708077430725098,2.189582347869873,0.1820581704378128,4.21206521987915, -0.3608042895793915
2,130633286,0.041552193,0.7529269,-0.006118279,0.6567628,9.784476280212402,0.5292689800262451,-1.31123685836792,0.9285306334495544,-3.0186357498168945, 0.4755829870700836
3,130649953,0.041345302,0.75312907,-0.006367619,0.6565417,9.767816543579102,0.5265885591506958,-1.3023681640625,0.7417885661125183,-3.045657157897949, 0.4819093942642212
4,130666620,0.041072052,0.75331366,-0.006404634,0.6563466,9.773972511291504,0.5402756333351135,-1.2943103313446045,0.571656346321106,-3.0157036781311035, 0.549360454082489
5,130683287,0.040916152,0.7534679,-0.006406287,0.65617925,9.756345748901367,0.5339596271514893,-1.3029929399490356,0.4114360809326172,-2.9590485095977783, 0.5490018725395203
6,130699954,0.041074265,0.75362915,-0.0067297113,0.6559809,9.755799293518066,0.5168061852455139,-1.3292287588119507,0.5444684028625488,-2.905543088912964, 0.57083660364151
7,130716621,0.041181784,0.7538391,-0.0070184525,0.6557299,9.769838333129883,0.49988794326782227,-1.3013412952423096,0.6838526725769043,-2.976170301437378, 0.5198929905891418
8,130733288,0.04125288,0.7540382,-0.007281921,0.6554936,9.753792762756348,0.5251489281654358,-1.316535234451294,0.8680977821350098,-2.9694983959198, 0.3713777959346771
9,130749955,0.04129585,0.7542433,-0.0074826377,0.65525264,9.767171859741211,0.5499614477157593,-1.3079811334609985,0.5944003462791443,-2.968883514404297, 0.40545544028282166
10,130766622,0.04133815,0.7544415,-0.0076218266,0.6550202,9.757929801940918,0.5168516039848328,-1.3032572269439697,0.5016438961029053,-2.929067850112915, 0.382621705532074
11,130783289,0.041529253,0.75463265,-0.007942424,0.65478396,9.770879745483398,0.5116245746612549,-1.2949583530426025,0.46463361382484436,-2.9122025966644287, 0.398578405380249
12,130799956,0.04161578,0.7548118,-0.008150343,0.6545694,9.768304824829102,0.489259272813797,-1.3245867490768433,0.8120826482772827,-2.8185110092163086, 0.345803439617157
13,130816623,0.041632064,0.7550007,-0.008257022,0.654349,9.776923179626465,0.5400407314300537,-1.2861531972885132,0.8522177338600159,-2.835620403289795, 0.14073538780212402
14,130833290,0.041817576,0.7551694,-0.008539502,0.6541388,9.773701667785645,0.5163745284080505,-1.3165960311889648,0.4565015733242035,-2.7391505241394043, 0.20954391360282898
15,130849957,0.041878104,0.75534743,-0.008655516,0.65392786,9.758354187011719,0.5070266723632812,-1.291532278060913,0.6058748960494995,-2.7755844593048096, 0.08443867415189743
16,130866624,0.041876167,0.75550926,-0.008697938,0.65374047,9.785527229309082,0.5252237915992737,-1.2802863121032715,0.7760968804359436,-2.613750457763672, 0.04158862680196762
17,130883291,0.041835845,0.75566953,-0.008684417,0.65355784,9.789278030395508,0.5248425602912903,-1.2778651714324951,0.5718483328819275,-2.6460094451904297, 0.041601426899433136
18,130899958,0.0418741,0.7558145,-0.00874482,0.65338707,9.762534141540527,0.5234727263450623,-1.2754782438278198,0.48926016688346863,-2.5299453735351562, -0.003291231347247958
19,130916625,0.04195648,0.75594896,-0.008816024,0.6532252,9.76305866241455,0.5094127058982849,-1.3038336038589478,0.6306294798851013,-2.4324634075164795, -0.19300450384616852
20,130933292,0.042071912,0.7560808,-0.008896329,0.653064,9.795336723327637,0.5042586326599121,-1.3128496408462524,0.453530490398407,-2.383902072906494, -0.3133329451084137
21,130949959,0.04229715,0.7562039,-0.009100819,0.652904,9.781219482421875,0.5082210302352905,-1.3016352653503418,0.6187195777893066,-2.2673258781433105, -0.36905336380004883
22,130966626,0.042580944,0.75631297,-0.0093468325,0.65275586,9.75992488861084,0.5182109475135803,-1.2970787286758423,0.6850053071975708,-2.1028668880462646, -0.5054282546043396
23,130983293,0.042510334,0.75641674,-0.009174904,0.6526427,9.751105308532715,0.5385057926177979,-1.2931686639785767,0.7730745673179626,-1.9738298654556274, -0.5457938313484192
24,130999960,0.042618725,0.7565124,-0.00920801,0.6525244,9.762370109558105,0.5617709159851074,-1.2596665620803833,0.44388726353645325,-1.9204528331756592, -0.48616743087768555
25,131016627,0.04292134,0.75661784,-0.009470872,0.6523782,9.775164604187012,0.5517956018447876,-1.2572914361953735,0.19982390105724335,-2.08614182472229, -0.4003777503967285
26,131033294,0.043059602,0.7567207,-0.009547754,0.652249,9.777444839477539,0.5420645475387573,-1.2480900287628174,0.25580042600631714,-2.042881727218628, -0.36896371841430664
27,131049961,0.04323483,0.756849,-0.009661266,0.65208673,9.760727882385254,0.5370172262191772,-1.242487907409668,0.5577357411384583,-2.318730592727661, -0.44689038395881653
28,131066628,0.04334653,0.7569928,-0.0097053135,0.6519118,9.780619621276855,0.5780911445617676,-1.219716191291809,0.7167906165122986,-2.4774649143218994, -0.456956148147583
29,131083295,0.043500174,0.75713855,-0.009820618,0.6517304,9.785920143127441,0.560757577419281,-1.2200583219528198,0.5767018795013428,-2.541471004486084, -0.3109637498855591
30,131099962,0.04359894,0.7572942,-0.009894319,0.65154177,9.799761772155762,0.5575848817825317,-1.2539949417114258,0.5786229372024536,-2.6600327491760254, -0.20709149539470673
31,131116629,0.04370528,0.7574493,-0.009965738,0.65135324,9.786404609680176,0.5787288546562195,-1.2435909509658813,0.4403911828994751,-2.6604039669036865, -0.23229439556598663
32,131133296,0.043797288,0.7576081,-0.010016305,0.6511617,9.765764236450195,0.5658354163169861,-1.2537089586257935,0.3999743163585663,-2.699373722076416, -0.2341000735759735
33,131149963,0.04398865,0.7577713,-0.010176601,0.65095645,9.76762866973877,0.5711053609848022,-1.2423323392868042,0.3280794620513916,-2.7606265544891357, -0.24768763780593872
34,131166630,0.04413065,0.75793445,-0.010295159,0.6507548,9.756267547607422,0.5863661766052246,-1.2715119123458862,0.3568169176578522,-2.75565767288208, -0.17607450485229492
35,131183297,0.04428824,0.7580963,-0.010453247,0.6505531,9.761148452758789,0.5777495503425598,-1.2429096698760986,0.24939726293087006,-2.7389838695526123, -0.05254445597529411
36,131199964,0.044567104,0.7582609,-0.010739049,0.65033764,9.759678840637207,0.5431806445121765,-1.2396783828735352,0.11978420615196228,-2.794307231903076, -0.09294848889112473
37,131216631,0.044672832,0.75843376,-0.010810892,0.65012765,9.78647518157959,0.5663926601409912,-1.2449153661727905,0.0538058839738369,-2.8562514781951904, -0.15041059255599976
38,131233298,0.04483187,0.75860125,-0.010933977,0.64991903,9.784388542175293,0.5821133255958557,-1.2278664112091064,-0.012511802837252617,-2.8126327991485596, -0.1896236091852188
39,131249965,0.044994257,0.7587611,-0.011074876,0.6497188,9.788531303405762,0.5785275101661682,-1.2412207126617432,-0.02697017416357994,-2.74139142036438, -0.11807455122470856
40,131266632,0.045106214,0.75891954,-0.011176337,0.64952433,9.77819538116455,0.5822557806968689,-1.2571570873260498,0.054177261888980865,-2.717072010040283, -0.0405961312353611
41,131283299,0.04525421,0.75905913,-0.011309516,0.64934844,9.758599281311035,0.5709308981895447,-1.255490779876709,-0.09690564125776291,-2.5293562412261963, -0.05411963164806366
42,131299966,0.045411993,0.75919247,-0.011470197,0.6491787,9.774409294128418,0.5761705040931702,-1.2606102228164673,0.22565430402755737,-2.445218801498413, -0.03215674310922623
43,131316633,0.04551324,0.75931734,-0.011550558,0.6490241,9.763958930969238,0.5522307753562927,-1.2619816064834595,0.38915300369262695,-2.330461263656616, -0.11770316958427429
44,131333300,0.045621943,0.75943476,-0.011638,0.6488775,9.770572662353516,0.5784749984741211,-1.2314473390579224,0.25927096605300903,-2.255018949508667, -0.10987848788499832
45,131349967,0.04584025,0.7595389,-0.011840694,0.64873666,9.758001327514648,0.6011185050010681,-1.2262940406799316,0.13084888458251953,-2.1449482440948486, -0.14436598122119904
46,131366634,0.04608838,0.7596382,-0.012067959,0.6485986,9.781111717224121,0.5817752480506897,-1.232445478439331,-0.013139315880835056,-2.110640287399292, -0.16200034320354462
47,131383301,0.046224065,0.75972986,-0.012202696,0.6484792,9.78519344329834,0.5822321176528931,-1.1949843168258667,0.25459662079811096,-2.0030410289764404, -0.024075934663414955
48,131399968,0.04637343,0.7598201,-0.012344138,0.6483601,9.765459060668945,0.581477701663971,-1.2174605131149292,0.3411290943622589,-1.997867226600647, -0.07964269071817398
49,131416635,0.046488754,0.7599059,-0.012456015,0.6482492,9.763118743896484,0.5951357483863831,-1.197595477104187,0.2597319781780243,-1.954146385192871, -0.018658852204680443
50,131433302,0.046649702,0.75998545,-0.012640984,0.64814067,9.782726287841797,0.5980430841445923,-1.210610032081604,0.08994539827108383,-1.9203760623931885, 0.10063869506120682
51,131449969,0.046827283,0.7600686,-0.012853577,0.648026,9.764266014099121,0.6000689268112183,-1.1777151823043823,0.039885371923446655,-1.9735095500946045, 0.1451023370027542
52,131466636,0.047130745,0.76014555,-0.013228567,0.64790636,9.774578094482422,0.6068117618560791,-1.1822887659072876,0.14389854669570923,-1.9420568943023682, 0.19870971143245697
53,131483303,0.047253802,0.76023763,-0.013380178,0.64778614,9.769214630126953,0.615671694278717,-1.1800695657730103,0.20125818252563477,-2.070709705352783, 0.13442185521125793
54,131499970,0.047384035,0.76033,-0.013541209,0.64766496,9.773181915283203,0.5893253684043884,-1.1763474941253662,0.023762183263897896,-2.0944530963897705, 0.1717267483472824
55,131516637,0.047566045,0.76044697,-0.01375772,0.6475096,9.765424728393555,0.6164570450782776,-1.1612098217010498,0.012671884149312973,-2.378190279006958, 0.13708558678627014
56,131533304,0.04775031,0.7605916,-0.013965686,0.6473217,9.74765682220459,0.6196689009666443,-1.1528445482254028,-0.03850869461894035,-2.684351921081543, 0.08605226129293442
57,131549971,0.047931388,0.76076657,-0.0141941,0.6470979,9.771873474121094,0.6152685284614563,-1.144291877746582,0.057788651436567307,-3.0177907943725586, 0.17013874650001526
58,131566638,0.04804167,0.76094574,-0.014382707,0.64687485,9.82038402557373,0.5776525139808655,-1.1454367637634277,0.16189149022102356,-3.0655202865600586, 0.3506186902523041
59,131583305,0.048135657,0.7611458,-0.014559704,0.6466282,9.805082321166992,0.5699588656425476,-1.169847846031189,0.6227151155471802,-3.277336835861206, 0.29712653160095215
60,131599972,0.048256118,0.7613355,-0.0147577645,0.6463915,9.817818641662598,0.5793237090110779,-1.167890191078186,0.4066464602947235,-3.192610263824463, 0.2861514985561371
61,131616639,0.0483656,0.76150805,-0.014940057,0.6461759,9.80399227142334,0.6079916954040527,-1.2130550146102905,0.12488112598657608,-3.036501169204712, 0.3238150179386139
62,131633306,0.048487913,0.76168025,-0.015167967,0.6459585,9.802751541137695,0.6182861328125,-1.1795732975006104,0.11293279379606247,-3.0498194694519043, 0.4644671082496643
63,131649973,0.048578408,0.76183856,-0.015365517,0.64576024,9.795238494873047,0.6053118705749512,-1.196685552597046,0.3016856014728546,-2.897027015686035, 0.47571104764938354
64,131666640,0.04868948,0.7619999,-0.015592497,0.6455559,9.782049179077148,0.5879334807395935,-1.180625557899475,0.38291624188423157,-2.941772222518921, 0.48490601778030396
65,131683307,0.048760604,0.76215446,-0.015781617,0.64536345,9.788905143737793,0.5961217880249023,-1.1665525436401367,0.346943199634552,-2.8737192153930664, 0.535401463508606
66,131699974,0.048862502,0.76232105,-0.016001271,0.6451538,9.776568412780762,0.5879042148590088,-1.1871211528778076,0.26988741755485535,-3.024744749069214, 0.5160382986068726
67,131716641,0.048948415,0.7624799,-0.016232446,0.64495367,9.778079986572266,0.594412624835968,-1.1654237508773804,0.1953928917646408,-2.9623138904571533, 0.6683058142662048
68,131733308,0.0490321,0.76265025,-0.016455062,0.64474016,9.778520584106445,0.5826992392539978,-1.1710975170135498,0.34088581800460815,-3.089749336242676, 0.6125212907791138
69,131749975,0.049080312,0.7628182,-0.01664926,0.6445329,9.776549339294434,0.606666624546051,-1.1546053886413574,0.5224798917770386,-3.0596675872802734, 0.6439736485481262
70,131766642,0.049160067,0.76298314,-0.016895825,0.64432514,9.776527404785156,0.6074289679527283,-1.146346092224121,0.4262401759624481,-3.0623185634613037, 0.7305062413215637
71,131783309,0.049247377,0.76316017,-0.017143631,0.6441022,9.77871036529541,0.6064703464508057,-1.1568419933319092,0.40699219703674316,-3.2102065086364746, 0.695493757724762
72,131799976,0.04927531,0.76333046,-0.017353807,0.6438927,9.773852348327637,0.5818877816200256,-1.1712315082550049,0.5847570896148682,-3.136159658432007, 0.819151759147644
73,131816643,0.04929301,0.76349795,-0.017541643,0.6436875,9.792939186096191,0.5917160511016846,-1.1695196628570557,0.8317660093307495,-3.102658271789551, 0.732632040977478
74,131833310,0.04935709,0.76367056,-0.017775662,0.64347154,9.79714298248291,0.5850048065185547,-1.1701953411102295,0.6647583842277527,-3.192161798477173, 0.7191213965415955
75,131849977,0.049390826,0.7638384,-0.017982673,0.6432637,9.773953437805176,0.5849882364273071,-1.167087197303772,0.6620433330535889,-3.153153419494629, 0.7632903456687927
76,131866644,0.04943637,0.7640079,-0.018206265,0.6430527,9.775944709777832,0.5763026475906372,-1.1701704263687134,0.7528276443481445,-3.185694694519043, 0.7589362859725952
77,131883311,0.049446814,0.7641893,-0.0183919,0.642831,9.79376220703125,0.5808154344558716,-1.1594055891036987,0.6261985898017883,-3.326321601867676, 0.7922840714454651
78,131899978,0.04948254,0.7643785,-0.018585734,0.6425976,9.784130096435547,0.5939805507659912,-1.1569825410842896,0.6635546088218689,-3.428438901901245, 0.6839421987533569
79,131916645,0.049499586,0.7645658,-0.018771524,0.64236796,9.788802146911621,0.5600699782371521,-1.1808807849884033,0.6733258962631226,-3.4249048233032227, 0.749626100063324
80,131933312,0.04951498,0.76476145,-0.01895721,0.6421284,9.789965629577637,0.5916211605072021,-1.163096308708191,0.8682001233100891,-3.520324945449829, 0.7189292907714844
81,131949979,0.049513318,0.7649446,-0.019131431,0.64190525,9.776692390441895,0.577751100063324,-1.1741321086883545,0.7929628491401672,-3.4064507484436035, 0.7808352708816528
82,131966646,0.049513347,0.7651269,-0.01930651,0.64168257,9.781877517700195,0.5738405585289001,-1.1805169582366943,0.7401878237724304,-3.420499324798584, 0.7865725159645081
83,131983313,0.049538568,0.76530915,-0.019486776,0.64145786,9.776222229003906,0.5802114009857178,-1.1700236797332764,0.7277016639709473,-3.4389021396636963, 0.6781154870986938
84,131999980,0.049530447,0.7654991,-0.019632764,0.64122736,9.78769302368164,0.5788885951042175,-1.1516199111938477,0.8002495765686035,-3.5275344848632812, 0.6889751553535461
85,132016647,0.049556024,0.76568806,-0.019802514,0.6409944,9.781041145324707,0.5835906267166138,-1.1416923999786377,0.7290335297584534,-3.549318552017212, 0.6293745040893555
86,132033314,0.049579643,0.76588213,-0.019979319,0.6407553,9.800552368164062,0.5820231437683105,-1.1644350290298462,0.7864444255828857,-3.625861883163452, 0.6613007187843323
87,132049981,0.04962825,0.7660758,-0.02016957,0.640514,9.778359413146973,0.5441640019416809,-1.1747123003005981,0.8290511965751648,-3.6453018188476562, 0.582170307636261
88,132066648,0.04963817,0.7662586,-0.02029861,0.64029056,9.776053428649902,0.5777527689933777,-1.1769500970840454,1.114683747291565,-3.5177247524261475, 0.4701659083366394
89,132083315,0.04963664,0.7664388,-0.020397455,0.6400717,9.772232055664062,0.5976815223693848,-1.1730083227157593,0.9333459734916687,-3.511373281478882, 0.4330403506755829
90,132099982,0.049665798,0.766611,-0.020552645,0.63985825,9.78088092803955,0.5784255862236023,-1.1876927614212036,0.7989432215690613,-3.469304084777832, 0.5525363087654114
91,132116649,0.049722183,0.7667879,-0.020710772,0.6396368,9.790583610534668,0.5751925706863403,-1.1569825410842896,0.7411994934082031,-3.544912576675415, 0.4298899173736572
92,132133316,0.049762867,0.76697034,-0.020841023,0.6394107,9.778733253479004,0.5647291541099548,-1.1743780374526978,0.6318076848983765,-3.6256442070007324, 0.4092589318752289
93,132149983,0.0497857,0.7671561,-0.020958506,0.6391821,9.796530723571777,0.5482138991355896,-1.1734927892684937,0.8824920654296875,-3.667059898376465, 0.4027405381202698
94,132166650,0.049787913,0.7673457,-0.021049002,0.63895136,9.79134750366211,0.5556852221488953,-1.181867003440857,1.0299700498580933,-3.716249704360962, 0.36487218737602234
95,132183317,0.04981816,0.767542,-0.021156048,0.6387097,9.793935775756836,0.5591917634010315,-1.170518159866333,0.8498231172561646,-3.82535982131958, 0.318231463432312
96,132199984,0.04989481,0.7677423,-0.021313516,0.6384578,9.776954650878906,0.5643630623817444,-1.1797288656234741,0.7267924547195435,-3.9140822887420654, 0.3149658143520355
97,132216651,0.049942188,0.7679502,-0.021412889,0.6382006,9.785984992980957,0.5745224952697754,-1.1884335279464722,0.8097902536392212,-3.9990899562835693, 0.19621247053146362
98,132233318,0.05000321,0.76816916,-0.021516852,0.6379287,9.771331787109375,0.579932689666748,-1.1757539510726929,0.682776927947998,-4.148885726928711, 0.16346663236618042
99,132249985,0.0500459,0.76838905,-0.021586705,0.63765794,9.782062530517578,0.5692451596260071,-1.1961675882339478,0.9226013422012329,-4.163203716278076, 0.06826424598693848
100,132266652,0.050115578,0.7686055,-0.021683263,0.6373884,9.774584770202637,0.5761731863021851,-1.1886647939682007,0.9676669836044312,-4.153521537780762, 0.037938810884952545
101,132283319,0.050193235,0.76883453,-0.021778118,0.63710284,9.788249015808105,0.5966758131980896,-1.1906284093856812,0.8454431891441345,-4.319940090179443, 0.006268708035349846
102,132299986,0.050260812,0.76906353,-0.021847364,0.6368185,9.783090591430664,0.593704879283905,-1.2178748846054077,0.867162823677063,-4.338394641876221, -0.053261611610651016
103,132316653,0.050324973,0.7692957,-0.02190849,0.63653094,9.769478797912598,0.564627468585968,-1.1981333494186401,0.8731432557106018,-4.391502380371094, -0.06941041350364685
104,132333320,0.050367262,0.7695179,-0.021949397,0.6362576,9.773256301879883,0.5819483399391174,-1.2210580110549927,0.98541659116745,-4.298105239868164, -0.0550801083445549
105,132349987,0.05043385,0.76975024,-0.02203335,0.6359683,9.778909683227539,0.5946266651153564,-1.232420802116394,0.9905392527580261,-4.4453020095825195, 0.001607196987606585
106,132366654,0.05048226,0.7699621,-0.022090752,0.63570595,9.779989242553711,0.5805657505989075,-1.2392476797103882,0.8936335444450378,-4.245420455932617, 0.01577102020382881
107,132383321,0.050572388,0.7701654,-0.022194825,0.635449,9.778423309326172,0.5735530853271484,-1.215448021888733,0.759986400604248,-4.198241710662842, 0.030229387804865837
108,132399988,0.05065547,0.77036095,-0.022256454,0.635203,9.799796104431152,0.5742596387863159,-1.2281641960144043,0.7094012498855591,-4.131021022796631, -0.10369300842285156
109,132416655,0.05074927,0.7705554,-0.022284674,0.6349586,9.81755256652832,0.5527263283729553,-1.2496094703674316,0.7936927080154419,-4.129599571228027, -0.3233475089073181
110,132433322,0.050840396,0.77073455,-0.022280015,0.6347341,9.79520320892334,0.583017885684967,-1.2505487203598022,0.9795000553131104,-3.969238042831421, -0.48156997561454773
111,132449989,0.05098245,0.7709089,-0.022298334,0.6345102,9.795025825500488,0.565733015537262,-1.259520173072815,0.6763354539871216,-3.965409755706787, -0.591282069683075
112,132466656,0.051139496,0.77107173,-0.022272004,0.63430065,9.785295486450195,0.5442823767662048,-1.2599951028823853,0.7923481464385986,-3.8446075916290283, -0.885149359703064
113,132483323,0.051326632,0.77120787,-0.022207985,0.634122,9.782206535339355,0.5534512996673584,-1.2378395795822144,0.6998863220214844,-3.574995517730713, -1.1832685470581055
114,132499990,0.051523153,0.7713445,-0.022127124,0.6339427,9.757317543029785,0.5794979333877563,-1.2441202402114868,0.7474107146263123,-3.596856117248535, -1.3175815343856812
115,132516657,0.051794782,0.7714734,-0.022047497,0.6337666,9.760092735290527,0.5713835954666138,-1.2700179815292358,0.5351454615592957,-3.549459934234619, -1.671766757965088
116,132533324,0.052045293,0.77159584,-0.021883065,0.6336026,9.760215759277344,0.5812555551528931,-1.262877345085144,0.8499765992164612,-3.4620683193206787, -1.9901834726333618
117,132549991,0.05234683,0.7717179,-0.021693485,0.6334356,9.732267379760742,0.6191116571426392,-1.230238676071167,0.47298330068588257,-3.494788646697998, -2.3023898601531982
118,132566658,0.052721616,0.7718495,-0.021529477,0.6332499,9.722126007080078,0.6301849484443665,-1.23788583278656,0.09194318950176239,-3.6527552604675293, -2.5132334232330322
119,132583325,0.053091865,0.7719856,-0.021315867,0.6330601,9.738879203796387,0.5984206199645996,-1.1957955360412598,0.21576780080795288,-3.70865535736084, -2.7310564517974854
120,132599992,0.053447682,0.7721297,-0.021027133,0.6328641,9.763296127319336,0.5884994268417358,-1.2125988006591797,0.5892521739006042,-3.7806904315948486, -3.062472105026245
121,132616659,0.05381676,0.7722815,-0.020694807,0.63265866,9.749967575073242,0.5738539099693298,-1.2433197498321533,1.1711984872817993,-3.847719669342041, -3.4474570751190186
122,132633326,0.05418748,0.7724261,-0.020284036,0.6324637,9.792095184326172,0.6231253743171692,-1.20209801197052,0.9194257259368896,-3.7906930446624756, -3.7508270740509033
123,132649993,0.054656047,0.77257127,-0.019904302,0.6322581,9.771955490112305,0.5961328148841858,-1.2216726541519165,0.580287754535675,-3.8566582202911377, -4.077618598937988
124,132666660,0.055051204,0.7727277,-0.019443141,0.6320468,9.76379680633545,0.6362990140914917,-1.2208139896392822,1.203099012374878,-3.9521164894104004, -4.170810699462891
125,132683327,0.05556661,0.7728908,-0.019015975,0.6318152,9.755670547485352,0.6191086173057556,-1.1842756271362305,0.9204501509666443,-4.080488204956055, -4.621543884277344
126,132699994,0.055977553,0.77308476,-0.018452264,0.63155854,9.829547882080078,0.6339403390884399,-1.1287397146224976,1.7759015560150146,-4.357616901397705, -4.847293376922607
127,132716661,0.056510266,0.77330905,-0.01792793,0.6312515,9.828323364257812,0.7048771381378174,-1.1479908227920532,0.8452897071838379,-4.799795150756836, -5.167324542999268
128,132733328,0.05700193,0.77355254,-0.017355371,0.63092506,9.752141952514648,0.7054963707923889,-1.253590703010559,1.156804084777832,-5.0131611824035645, -5.228243827819824
129,132749995,0.0575111,0.7737997,-0.01676385,0.6305914,9.768949508666992,0.7644429802894592,-1.2810496091842651,1.3670459985733032,-5.068101406097412, -5.451305389404297
130,132766662,0.05805584,0.7740373,-0.016167846,0.6302655,9.70614242553711,0.7807248830795288,-1.332141637802124,1.0550705194473267,-5.01335334777832, -5.5915608406066895
131,132783329,0.058802553,0.77424634,-0.015749028,0.62995017,9.80386734008789,0.790740966796875,-1.2305172681808472,-0.6458243727684021,-4.89101505279541, -5.543025016784668
132,132799996,0.05964733,0.77445334,-0.015447998,0.6296234,9.866190910339355,0.7129232287406921,-1.1953811645507812,-1.7661751508712769,-5.014864444732666, -5.324432849884033
133,132816663,0.06030705,0.774689,-0.014956103,0.6292826,9.756853103637695,0.7723913192749023,-1.239210844039917,-0.023230722174048424,-5.193334579467773, -5.535840034484863
134,132833330,0.060836706,0.77493894,-0.014327789,0.62893856,9.704760551452637,0.8340682983398438,-1.326452612876892,1.2406985759735107,-5.258876800537109, -5.696661949157715
135,132849997,0.061351486,0.7751497,-0.0136802755,0.6286428,9.66303539276123,0.9824786186218262,-1.3687041997909546,1.3522931337356567,-4.850188255310059, -5.698083877563477
136,132866664,0.06192991,0.7753031,-0.0132526895,0.62840605,9.613632202148438,1.0418663024902344,-1.3325046300888062,0.15614143013954163,-4.3853559494018555, -4.780649185180664
137,132883331,0.0627414,0.7754425,-0.013087539,0.6281572,9.582776069641113,1.079343318939209,-1.323907732963562,-2.494997262954712,-4.5229339599609375, -4.321323871612549
138,132899998,0.06375552,0.7756498,-0.013031717,0.6277999,9.654431343078613,1.0170656442642212,-1.3199832439422607,-3.8710272312164307,-5.431544780731201, -4.683692455291748
139,132916665,0.06469324,0.77592266,-0.012833339,0.6273708,9.679961204528809,1.0189353227615356,-1.3268197774887085,-2.90891170501709,-6.0723876953125, -5.1242570877075195
140,132933332,0.06556014,0.7761983,-0.012553067,0.6269454,9.742319107055664,0.9855009317398071,-1.3429040908813477,-2.4388415813446045,-6.080660343170166, -5.190068244934082
141,132949999,0.0665607,0.77643603,-0.012398249,0.6265486,9.716339111328125,1.021458625793457,-1.354997992515564,-3.3903918266296387,-5.80450439453125, -5.142531394958496
142,132966666,0.06759582,0.7766253,-0.012278112,0.6262057,9.708488464355469,0.9793987274169922,-1.4096968173980713,-3.971198320388794,-5.365182876586914, -5.0228047370910645
143,132983333,0.068696864,0.7767562,-0.01214396,0.6259259,9.702299118041992,0.9608979225158691,-1.4336060285568237,-4.331594467163086,-4.788396835327148, -5.335611820220947
144,133000000,0.06970369,0.77686703,-0.011823069,0.625683,9.70854663848877,0.9023058414459229,-1.3926267623901367,-3.322031259536743,-4.470889568328857, -5.846354961395264
145,133016667,0.07053221,0.77698696,-0.011250669,0.6254518,9.720858573913574,0.8815202116966248,-1.339103102684021,-0.8939729928970337,-4.3246283531188965, -6.5050506591796875
146,133033334,0.07118719,0.77714103,-0.010451557,0.6252001,9.773913383483887,0.9005408883094788,-1.2366458177566528,0.9281211495399475,-4.518158435821533, -6.967616081237793
147,133050001,0.07163374,0.777361,-0.0094090225,0.62489206,9.764755249023438,0.9485082030296326,-1.2342907190322876,3.0935728549957275,-5.031167984008789, -7.404057502746582
148,133066668,0.072071426,0.77762663,-0.008286179,0.6245271,9.72600269317627,1.0675586462020874,-1.2873426675796509,3.6103100776672363,-5.5138654708862305, -7.850589752197266
149,133083335,0.07252703,0.77791625,-0.00713321,0.6241277,9.70566177368164,1.14194655418396,-1.3736352920532227,3.5552170276641846,-5.823087692260742, -8.080657005310059
150,133100002,0.07306791,0.7781693,-0.0060603144,0.62376034,9.675050735473633,1.2323873043060303,-1.4425650835037231,2.477536201477051,-5.58091926574707, -7.9356231689453125
151,133116669,0.07375496,0.7783483,-0.005091601,0.62346476,9.63707160949707,1.2189866304397583,-1.5358271598815918,1.1596729755401611,-4.950667381286621, -7.941795825958252
152,133133336,0.07454189,0.77844226,-0.0041968785,0.62326044,9.710923194885254,1.246249794960022,-1.540403962135315,0.3182058036327362,-4.138449668884277, -7.926555633544922
153,133150003,0.07546758,0.7784702,-0.0033538514,0.62311935,9.660255432128906,1.264477252960205,-1.495721459388733,-0.6109783053398132,-3.5455541610717773, -8.216582298278809
154,133166670,0.076400205,0.778433,-0.0024740007,0.6230562,9.578173637390137,1.2941725254058838,-1.5145620107650757,-0.6360658407211304,-2.8599143028259277, -8.36857795715332
155,133183337,0.07726585,0.7783169,-0.0015554763,0.62309766,9.59375,1.3741203546524048,-1.5422303676605225,-0.05117418244481087,-1.9435688257217407, -8.245344161987305
156,133200004,0.07810055,0.7781691,-0.0006207839,0.62317973,9.57731819152832,1.370890498161316,-1.5305283069610596,0.2500889003276825,-1.5838514566421509, -8.182888984680176
157,133216671,0.078797534,0.7780668,0.00038455537,0.6232197,9.491623878479004,1.5219902992248535,-1.4602396488189697,1.261854887008667,-1.9853050708770752, -7.971225261688232
158,133233338,0.07945177,0.7780617,0.0013302657,0.62314177,9.384346961975098,1.5743545293807983,-1.3067985773086548,1.2941781282424927,-3.078097105026245, -7.514153957366943
159,133250005,0.08026372,0.7781839,0.0019980937,0.62288344,9.44943904876709,1.715265154838562,-1.1899405717849731,-0.658451497554779,-4.763002872467041, -6.781130790710449
160,133266672,0.08113631,0.7784762,0.0025733486,0.6224027,9.374391555786133,1.5351266860961914,-1.1483067274093628,-1.2691478729248047,-6.761908054351807, -6.640900611877441
161,133283339,0.08195418,0.77892226,0.0031434433,0.62173456,9.600663185119629,1.5110259056091309,-1.1185963153839111,-0.8983017802238464,-8.45567798614502, -6.467901229858398
162,133300006,0.08280814,0.77953845,0.0037120301,0.6208455,9.758882522583008,1.341277837753296,-1.121605634689331,-0.9860893487930298,-10.40360164642334, -6.726768493652344
163,133316673,0.08360787,0.78023404,0.004426207,0.6198589,9.835074424743652,1.16790771484375,-1.3504464626312256,-0.01812099665403366,-11.218830108642578, -7.333457946777344
164,133333340,0.0842383,0.780964,0.005382307,0.618846,9.940896987915039,1.2989041805267334,-1.4971426725387573,1.9460479021072388,-11.388836860656738, -7.939341068267822
165,133350007,0.08487112,0.781667,0.0062874267,0.61786246,9.93893814086914,1.4442909955978394,-1.5351457595825195,1.70331609249115,-11.16647720336914, -7.668984413146973
166,133366674,0.08581298,0.78233725,0.0068042567,0.6168781,9.907478332519531,1.6008350849151611,-1.4834126234054565,-1.6204267740249634,-11.290454864501953, -6.900141716003418
167,133383341,0.086738,0.78299373,0.007233818,0.61591,9.759475708007812,1.383985161781311,-1.521864891052246,-1.9009754657745361,-11.217907905578613, -6.346714973449707
168,133400008,0.087513514,0.7837246,0.0077526635,0.6148635,9.673577308654785,1.5648581981658936,-1.4183483123779297,-0.6655336618423462,-11.914139747619629, -6.2464423179626465
169,133416675,0.08837279,0.7845618,0.008208173,0.6136658,9.525236129760742,1.542005181312561,-1.2732040882110596,-1.3060308694839478,-13.246590614318848, -6.342900276184082
170,133433342,0.08919863,0.78557897,0.0087452475,0.61223596,9.43747329711914,1.4898319244384766,-1.167345404624939,-0.6496667265892029,-15.240071296691895, -6.773080348968506
171,133450009,0.08999181,0.78678167,0.009372187,0.6105642,9.549734115600586,1.4400960206985474,-1.0255498886108398,0.04240827634930611,-17.30965805053711, -7.261414051055908
172,133466676,0.09076677,0.78815615,0.010146861,0.60866135,9.564323425292969,1.4019651412963867,-1.1869127750396729,0.8931226134300232,-19.23773956298828, -8.124347686767578
173,133483343,0.09162318,0.7897031,0.011104435,0.6065072,9.581313133239746,1.4181572198867798,-1.4369590282440186,1.351898431777954,-21.255441665649414, -9.612540245056152
174,133500010,0.09260472,0.7913672,0.012204568,0.60416377,9.52069091796875,1.4457043409347534,-1.6365296840667725,1.3636808395385742,-22.722959518432617, -11.031222343444824
175,133516677,0.09376474,0.7931412,0.013347061,0.6016289,9.541699409484863,1.5760235786437988,-1.7056200504302979,0.6621091961860657,-24.230342864990234, -12.128053665161133
176,133533344,0.095128514,0.79504055,0.014410738,0.598877,9.584237098693848,1.7418029308319092,-1.6746959686279297,-0.664280116558075,-26.021963119506836, -12.677632331848145
177,133550011,0.096676335,0.797085,0.015261674,0.59588265,9.629963874816895,1.8064640760421753,-1.6357080936431885,-2.4138004779815674,-28.127656936645508, -12.41962718963623
178,133566678,0.09799888,0.79935336,0.016237045,0.59259313,9.69500732421875,1.6328853368759155,-1.595734715461731,-0.4756937026977539,-30.58812141418457, -12.353384971618652
179,133583345,0.09885751,0.80192655,0.017735606,0.5889198,9.62431812286377,1.3568086624145508,-1.585692286491394,4.466024398803711,-33.57487487792969, -13.575946807861328
180,133600012,0.09945794,0.80486363,0.019662458,0.5847359,9.734026908874512,1.5067174434661865,-1.4758405685424805,7.9430012702941895,-37.583702087402344, -15.221323013305664
181,133616679,0.09984048,0.80827796,0.021936221,0.57986003,9.663373947143555,1.491415023803711,-1.4806437492370605,10.977363586425781,-43.11768341064453, -16.69335174560547
182,133633346,0.09980367,0.8122369,0.024642486,0.5741979,9.584834098815918,1.76251220703125,-1.6316008567810059,15.539995193481445,-49.35630416870117, -17.902772903442383
183,133650013,0.09905229,0.816755,0.027929232,0.5677325,9.5319242477417,2.0367555618286133,-1.8212288618087769,22.362735748291016,-55.583763122558594, -18.783653259277344
184,133666680,0.09772177,0.8218463,0.031258747,0.56039476,10.062478065490723,2.580842971801758,-2.069385051727295,26.362842559814453,-62.63053894042969, -17.235197067260742
185,133683347,0.0972994,0.82740885,0.033364225,0.5521001,10.745035171508789,2.750835657119751,-1.8902575969696045,17.069026947021484,-70.92752075195312, -14.330572128295898
186,133700014,0.09688118,0.83332115,0.035087623,0.5431014,11.530108451843262,0.7751785516738892,-2.139143466949463,16.028390884399414,-76.60841369628906, -12.541585922241211
187,133716681,0.09525177,0.8397262,0.03669925,0.53332955,13.055795669555664,1.3880051374435425,-1.5356191396713257,23.057661056518555,-82.76619720458984, -7.863880157470703
188,133733348,0.09344582,0.84669083,0.038378015,0.5224078,12.134580612182617,0.6535170674324036,-1.7513478994369507,24.98816680908203,-91.55573272705078, -8.286754608154297
189,133750015,0.09077808,0.85411584,0.040096626,0.5105272,12.264243125915527,-0.0006558452732861042,-1.9085206985473633,30.685718536376953,-98.70773315429688, -6.011348247528076
190,133766682,0.08687972,0.8621796,0.043055743,0.49723682,11.001932144165039,0.8594191074371338,-1.9758648872375488,43.024497985839844,-108.29649353027344, -9.796138763427734
191,133783349,0.08386269,0.87050605,0.047309853,0.4826469,11.016966819763184,0.662208616733551,-1.428663730621338,42.76704406738281,-116.54773712158203, -21.23573875427246
192,133800016,0.08153122,0.8788921,0.05292037,0.4670126,11.854413032531738,-1.074244737625122,-1.8042162656784058,43.54864501953125,-122.64041900634766, -32.269996643066406
193,133816683,0.078046784,0.8876832,0.059960864,0.44981322,11.917922973632812,-1.934732437133789,-2.95439076423645,55.868019104003906,-132.40821838378906, -38.07679748535156
194,133833350,0.07610188,0.89662033,0.067139216,0.43101367,11.85023307800293,-0.22462314367294312,-2.156886339187622,47.56204605102539,-143.38973999023438, -44.646636962890625
195,133850017,0.0768101,0.90474045,0.074013084,0.41239208,11.1317720413208,1.5028135776519775,-3.796844482421875,29.78499984741211,-141.50782775878906, -51.01814651489258
196,133866684,0.07839182,0.91267955,0.08029051,0.39296892,12.412372589111328,1.4797261953353882,-4.432755947113037,23.007999420166016,-146.9197235107422, -50.3392219543457
197,133883351,0.08193393,0.9196318,0.08694905,0.37417156,11.780481338500977,4.981322765350342,-4.264822483062744,10.892403602600098,-141.42112731933594, -58.30819320678711
198,133900018,0.09142203,0.92500114,0.090638,0.3574911,12.23436450958252,1.982804536819458,-3.113135576248169,-36.331851959228516,-129.4069061279297, -54.56392288208008
199,133916685,0.09570203,0.9292027,0.09432618,0.34427664,11.770495414733887,-0.8742198944091797,-2.3083860874176025,-6.038936614990234,-101.53617095947266, -40.43210220336914
200,133933352,0.09419239,0.931937,0.09742434,0.33634767,10.633561134338379,-2.509117841720581,1.9245597124099731,25.105308532714844,-61.25172424316406, -20.60799217224121
201,133950019,0.08503825,0.9327439,0.10033994,0.33569232,7.651021480560303,-1.6965709924697876,1.267334222793579,67.46224975585938,-5.6288275718688965, 1.5158799886703491
202,133966686,0.07276138,0.93184507,0.10117116,0.34078613,7.270594596862793,-0.4028201997280121,1.1781493425369263,77.6359634399414,35.80332946777344, 24.26040267944336
203,133983353,0.06356282,0.9287369,0.09831953,0.35176837,7.781911373138428,0.2827318608760834,0.5734469890594482,44.028419494628906,74.43820190429688, 42.081764221191406
204,134000020,0.056444485,0.92348075,0.09241189,0.36804557,7.988516330718994,0.2637757360935211,-0.23061317205429077,18.77975082397461,110.43521881103516, 57.434139251708984
205,134016687,0.050017238,0.9160725,0.084726274,0.3887559,8.280890464782715,1.0416346788406372,-0.8345850706100464,6.16064453125,142.67262268066406, 67.30593872070312
206,134033354,0.043308415,0.90633374,0.07607666,0.41339588,8.621994018554688,0.9760763049125671,-1.909895658493042,2.2014377117156982,173.29049682617188, 74.12036895751953
207,134050021,0.033475567,0.8943933,0.06749295,0.44089103,9.070351600646973,0.49852699041366577,-3.0513501167297363,19.626140594482422,198.84793090820312, 82.3002700805664
208,134066688,0.02021806,0.8802229,0.059459016,0.4703868,9.753546714782715,0.9301402568817139,-3.905045509338379,40.80255126953125,219.53372192382812, 88.76129150390625
209,134083355,0.0056517064,0.8637997,0.05178417,0.5011353,10.491595268249512,1.499027132987976,-4.512652397155762,48.95365524291992,234.93601989746094, 90.15864562988281
210,134100022,-0.008656008,0.84537435,0.044262797,0.5322669,11.20041561126709,1.748275637626648,-4.926176071166992,47.63612747192383,244.0166778564453, 87.77737426757812
211,134116689,-0.022620097,0.82526755,0.037858002,0.56301767,11.544938087463379,2.181098699569702,-5.305365085601807,43.536964416503906,247.75039672851562, 82.27029418945312
212,134133356,-0.034170575,0.8040725,0.030539598,0.5927624,11.758088111877441,2.3032264709472656,-5.489388465881348,28.529829025268555,245.99981689453125, 76.98661804199219
213,134150023,-0.043566838,0.7822452,0.022498569,0.6210382,11.596016883850098,1.9973431825637817,-5.3735175132751465,18.4620304107666,240.24917602539062, 71.11582946777344
214,134166690,-0.05187513,0.7599069,0.015196933,0.6477804,11.150445938110352,1.4606022834777832,-5.4253363609313965,16.088729858398438,233.98715209960938, 62.98691940307617
215,134183357,-0.06035981,0.7372145,0.009911535,0.6728843,10.968069076538086,0.8524395823478699,-5.7317423820495605,26.23489761352539,226.5446014404297, 53.88475036621094
216,134200024,-0.069585495,0.71450204,0.0076840515,0.6961218,10.545838356018066,0.7712233662605286,-5.929841995239258,44.235164642333984,216.25289916992188, 42.68510055541992
217,134216691,-0.079258755,0.6920495,0.008508213,0.7174351,9.877751350402832,1.1079535484313965,-6.646766185760498,60.99645233154297,204.45892333984375, 30.894697189331055
218,134233358,-0.08867224,0.6707099,0.011532568,0.7363102,9.756550788879395,2.0001070499420166,-7.710490703582764,70.14212799072266,186.55645751953125, 20.695344924926758
219,134250025,-0.09557393,0.65226185,0.015103544,0.75179267,9.141509056091309,3.381704330444336,-8.854228973388672,59.82899475097656,156.2152862548828, 7.9512553215026855
220,134266692,-0.09799564,0.63879853,0.0175286,0.7629065,7.05861234664917,4.533636569976807,-9.456340789794922,30.994558334350586,111.6873550415039, -6.446753978729248
221,134283359,-0.09624248,0.6316962,0.018564284,0.76899457,5.832338333129883,4.318386077880859,-10.04794979095459,1.693379521369934,57.238616943359375, -17.846426010131836
222,134300026,-0.09267612,0.6304986,0.020917632,0.7703538,6.419217586517334,3.751361131668091,-11.781023025512695,-2.4968361854553223,4.94903564453125, -29.057451248168945
223,134316693,-0.08908974,0.63545984,0.027085256,0.76649874,5.704868316650391,3.329615831375122,-12.168006896972656,14.495379447937012,-52.05609893798828, -41.289093017578125
224,134333360,-0.06779321,0.6466608,0.009844342,0.75969535,16.432771682739258,0.01861327886581421,11.112064361572266,-189.4791259765625,-86.17757415771484, -29.245012283325195
225,134350027,-0.045259535,0.65456694,-0.02368197,0.7542765,16.706741333007812,-9.104724884033203,-3.124699592590332,-278.64605712890625,-55.77779769897461, 35.75003433227539
226,134366694,-0.038366247,0.66528016,-0.02821165,0.7450737,9.670145988464355,-13.6591796875,-2.198157548904419,-59.184478759765625,-98.66902160644531, -13.371435165405273
227,134383361,-0.045911867,0.67229456,-0.0064810026,0.73883027,10.293856620788574,8.641179084777832,-4.329864025115967,143.0817108154297,-75.7214584350586, -60.16849136352539
228,134400028,-0.032167535,0.68574923,-0.002241107,0.72712344,14.812737464904785,0.7615609765052795,-3.514450788497925,-46.446617126464844,-126.94768524169922, -85.56794738769531
229,134416695,-0.022130629,0.696584,-0.0008912026,0.71713346,9.884129524230957,2.0138120651245117,-2.0050275325775146,-42.74915313720703,-104.94572448730469, -53.68088912963867
230,134433362,-0.016945418,0.7049385,0.0029282796,0.7090601,10.644371032714844,-0.29904410243034363,-2.0076963901519775,-6.9035539627075195,-83.8228530883789, -41.76277542114258
231,134450029,-0.016351072,0.71163595,0.011265544,0.7022679,10.284685134887695,-0.4734605848789215,-1.641963005065918,37.5742073059082,-69.85052490234375, -41.46796417236328
232,134466696,-0.013771873,0.71727544,0.017127834,0.69644326,9.99460220336914,2.5766122341156006,-0.8174121975898743,15.98432445526123,-59.79172897338867, -39.15303421020508
233,134483363,-0.00391168,0.7223678,0.01583477,0.6913167,10.042142868041992,1.838581919670105,-0.898085355758667,-54.18816375732422,-53.88133239746094, -38.75667953491211
234,134500030,0.0085294945,0.7266762,0.010921515,0.6868405,10.69787311553955,-0.40218862891197205,-1.1863620281219482,-84.23878479003906,-47.09955596923828, -33.0933837890625
235,134516697,0.015064291,0.73038596,0.012628236,0.6827518,10.650089263916016,-3.122441291809082,-1.1274477243423462,-23.51224136352539,-41.481475830078125, -38.3493766784668
236,134533364,0.014610044,0.7337337,0.022051293,0.678922,9.367735862731934,-0.054587624967098236,-0.5269657373428345,47.75294876098633,-37.041343688964844, -44.46396255493164
237,134550031,0.014485536,0.7371088,0.030357135,0.6749367,10.25438117980957,2.3478360176086426,-0.3390042185783386,40.91463851928711,-38.104637145996094, -40.405094146728516
238,134566698,0.01749171,0.7405056,0.034410488,0.6709408,9.830108642578125,2.668675422668457,-0.5953443646430969,5.342980861663818,-39.348175048828125, -33.30752944946289
239,134583365,0.021186195,0.74359757,0.036347132,0.66730255,9.568897247314453,1.5946663618087769,-1.3456308841705322,-8.023031234741211,-36.5479736328125, -25.65951156616211
240,134600032,0.024115002,0.7463726,0.03801444,0.66400415,9.66571044921875,1.5888440608978271,-1.3138824701309204,-5.459479331970215,-33.18400955200195, -20.775524139404297
241,134616699,0.026628725,0.74889135,0.0394413,0.66098195,9.601280212402344,1.5905473232269287,-1.2753517627716064,-4.527781963348389,-30.514301300048828, -17.648021697998047
242,134633366,0.029207284,0.7512129,0.04021718,0.658186,9.746898651123047,1.4090895652770996,-1.2430819272994995,-7.90459680557251,-28.58092498779297, -14.586015701293945
243,134650033,0.03198683,0.75352836,0.040897764,0.655362,9.725945472717285,1.0367698669433594,-1.0764156579971313,-9.355767250061035,-28.770349502563477, -15.005271911621094
244,134666700,0.034130525,0.7559541,0.042447936,0.65235484,9.667760848999023,0.8247254490852356,-0.992737352848053,-2.057079553604126,-29.85334587097168, -16.667621612548828
245,134683367,0.035474617,0.7586215,0.044897906,0.6490142,9.651189804077148,1.170257568359375,-0.8374927043914795,6.297623157501221,-32.23660659790039, -17.7885799407959
246,134700034,0.036765464,0.76153463,0.047294926,0.64535004,9.659048080444336,1.6244688034057617,-0.7510083317756653,6.511929512023926,-35.03630447387695, -17.287717819213867
247,134716701,0.0379951,0.76464325,0.04960525,0.64141774,9.633378028869629,1.3140286207199097,-1.083079218864441,6.601719379425049,-37.33620071411133, -16.559785842895508
248,134733368,0.03903092,0.76792353,0.052219965,0.63721514,9.644280433654785,1.355240821838379,-1.2398126125335693,9.114936828613281,-39.385738372802734, -17.325586318969727
249,134750035,0.039847113,0.7713666,0.05519933,0.63273937,9.661626815795898,1.3024909496307373,-1.4130454063415527,12.027388572692871,-41.37688446044922, -18.311826705932617
250,134766702,0.04048501,0.7750075,0.058492064,0.6279356,9.649911880493164,1.5689867734909058,-1.3597605228424072,14.52782154083252,-43.8322639465332, -19.225086212158203
251,134783369,0.041130885,0.7789393,0.061753303,0.62269473,9.535490036010742,1.8016408681869507,-1.3605475425720215,14.623428344726562,-47.44532775878906, -19.100013732910156
252,134800036,0.04171275,0.7832745,0.06479282,0.6168818,9.449506759643555,2.0061774253845215,-1.3309756517410278,14.39445686340332,-52.291175842285156, -17.625286102294922
253,134816703,0.04221549,0.7880872,0.06760069,0.6103826,9.593077659606934,1.7962005138397217,-1.4316219091415405,14.304789543151855,-58.06978225708008, -16.016862869262695
254,134833370,0.04278034,0.7934496,0.07029309,0.6030478,9.879483222961426,1.5887712240219116,-1.4499995708465576,14.054679870605469,-64.99555206298828, -15.641904830932617
255,134850037,0.043463986,0.7993619,0.0731142,0.59479916,9.902750968933105,1.2662853002548218,-1.5697457790374756,14.567099571228027,-72.3189697265625, -16.855854034423828
256,134866704,0.044203363,0.8057955,0.076182686,0.58560747,9.85114574432373,1.3159950971603394,-1.7316269874572754,15.922260284423828,-79.62828826904297, -18.49481964111328
257,134883371,0.04514402,0.8128068,0.078731686,0.57542026,10.54150104522705,0.8521801829338074,-2.0528087615966797,13.433509826660156,-87.77635192871094, -16.45895004272461
258,134900038,0.04620079,0.820358,0.080955565,0.5642027,10.933914184570312,1.640304446220398,-1.986396312713623,12.237360000610352,-95.88172149658203, -15.186577796936035
259,134916705,0.047021244,0.8284611,0.0827294,0.55190337,12.262224197387695,1.5589245557785034,-1.8602221012115479,12.209099769592285,-104.27935028076172, -11.639226913452148
260,134933372,0.048864,0.8371972,0.08325781,0.53831357,12.776208877563477,1.1772398948669434,-1.1976879835128784,-0.23430323600769043,-115.64817810058594, -7.308620929718018
261,134950039,0.049891472,0.8467566,0.08358568,0.5229988,13.812539100646973,-0.09594067186117172,-1.3526692390441895,3.7230167388916016,-128.63250732421875, -2.594769239425659
262,134966706,0.050419174,0.8574177,0.08348282,0.50529563,14.751742362976074,0.22995418310165405,-0.1879376322031021,7.3452229499816895,-146.45431518554688, 1.3440195322036743
263,134983373,0.05145486,0.8688091,0.084510535,0.4851612,14.074213981628418,0.4838772118091583,1.7685552835464478,10.668731689453125,-163.3543701171875, -7.830441474914551
264,135000040,0.05186346,0.88022715,0.08785996,0.46345547,14.765192985534668,-1.8887004852294922,0.6050351858139038,26.345489501953125,-171.34088134765625, -22.098094940185547
265,135016707,0.049441647,0.8911967,0.096090466,0.44055715,14.140612602233887,-0.8957968950271606,-1.4187473058700562,59.562984466552734,-173.99693298339844, -43.489341735839844
266,135033374,0.04833645,0.901156,0.10734808,0.41720253,12.542734146118164,1.7545477151870728,-3.7235782146453857,60.614070892333984,-173.8279571533203, -66.96614837646484
267,135050041,0.048884973,0.90998805,0.119291276,0.39408323,13.109702110290527,2.856039524078369,-5.446577072143555,51.83815002441406,-170.2909698486328, -76.73477935791016
268,135066708,0.05190018,0.9171657,0.12997511,0.37312213,12.750588417053223,1.979093074798584,-2.9820075035095215,30.741647720336914,-154.89479064941406, -76.18059539794922
269,135083375,0.054680508,0.92224693,0.13911295,0.35653645,13.00693130493164,-0.5180274844169617,-1.8504838943481445,23.667598724365234,-122.48760223388672, -66.18842315673828
270,135100042,0.054421514,0.9252566,0.14643542,0.34568092,10.650360107421875,0.14682966470718384,2.139854907989502,32.22607421875,-79.12527465820312, -47.163780212402344
271,135116709,0.055474848,0.9258786,0.1507702,0.3419647,8.44386100769043,0.15306411683559418,1.9807900190353394,8.730975151062012,-30.790851593017578, -31.085308074951172
272,135133376,0.05403599,0.92491883,0.15286529,0.34385675,7.608077526092529,-1.0370069742202759,1.9793493747711182,12.935576438903809,10.107930183410645, -10.52707576751709
273,135150043,0.051187236,0.9221199,0.15225936,0.35198286,7.245917797088623,0.8860260248184204,1.5637439489364624,8.253277778625488,54.352317810058594, 10.295158386230469
274,135166710,0.05005422,0.917213,0.14849116,0.3662861,7.01810884475708,1.5709490776062012,0.9729217290878296,-17.47651481628418,95.50749206542969, 26.131502151489258
275,135183377,0.048209663,0.91014713,0.1428104,0.3858931,7.4044671058654785,0.11812658607959747,-0.24061718583106995,-23.95401954650879,134.28997802734375, 39.5877685546875
276,135200044,0.03981328,0.9009294,0.13784353,0.40956113,7.875564098358154,-0.5453285574913025,-1.578637957572937,14.19405460357666,171.94329833984375, 51.709598541259766
277,135216711,0.026286207,0.8893985,0.13333462,0.43646467,8.233136177062988,0.747968852519989,-2.6201324462890625,43.49018859863281,203.3821258544922, 62.01643753051758
278,135233378,0.011919737,0.8754426,0.12747961,0.466055,8.882859230041504,1.8488121032714844,-3.4889564514160156,41.61638641357422,227.5452117919922, 71.09122467041016
279,135250045,-0.0013106456,0.8591117,0.11970517,0.49759045,10.006123542785645,2.064473867416382,-4.549000263214111,26.668060302734375,245.67031860351562, 77.16702270507812
280,135266712,-0.014122045,0.84065074,0.11097865,0.52989686,10.972867965698242,2.109071969985962,-5.151871681213379,20.250051498413086,257.170654296875, 79.67642211914062
281,135283379,-0.026408352,0.82017356,0.10144198,0.56242996,11.810623168945312,2.145209789276123,-5.576933860778809,14.21001148223877,265.5343017578125, 80.95902252197266
282,135300046,-0.03854753,0.797997,0.091128424,0.59448344,12.35415267944336,2.242910623550415,-6.146728992462158,10.935053825378418,269.5052795410156, 83.74575805664062
283,135316713,-0.049489778,0.7746116,0.08046338,0.6253429,12.725844383239746,2.609848976135254,-6.40266227722168,3.9115378856658936,267.3499755859375, 80.41300201416016
284,135333380,-0.058727317,0.7506097,0.07032832,0.65436226,12.444093704223633,2.6156017780303955,-6.658560276031494,-1.738276720046997,259.231201171875, 70.6256103515625
285,135350047,-0.06722935,0.7263374,0.06186764,0.6812391,11.620614051818848,2.026106595993042,-7.326578140258789,3.0787088871002197,248.55943298339844, 59.49568176269531
286,135366714,-0.076128446,0.7025986,0.056360878,0.70525384,11.05101490020752,1.643439531326294,-8.188819885253906,19.81169319152832,230.8321990966797, 48.23600387573242
287,135383381,-0.08414875,0.6806898,0.053686682,0.72573984,10.343742370605469,2.2643795013427734,-8.967963218688965,29.663068771362305,203.40789794921875, 32.9320182800293
288,135400048,-0.08949299,0.6619601,0.0518891,0.7423662,9.098567962646484,2.9312803745269775,-9.733986854553223,21.06424903869629,168.353515625, 18.991788864135742
289,135416715,-0.0911908,0.6473483,0.049324904,0.75511026,7.9391703605651855,3.751862049102783,-10.197513580322266,-0.6215032339096069,129.24147033691406, 7.847355365753174
290,135433382,-0.088904545,0.637381,0.044811845,0.76408994,7.320981025695801,3.1446170806884766,-10.302069664001465,-30.132028579711914,88.66360473632812, -0.09492359310388565
291,135450049,-0.08586699,0.63131994,0.041545257,0.76963377,6.916318416595459,2.3575050830841064,-11.133102416992188,-28.21847915649414,52.51201248168945, -6.093708515167236
292,135466716,-0.08349492,0.6299923,0.042151254,0.77094847,5.902895450592041,1.8232814073562622,-12.540708541870117,-6.425337791442871,7.458664894104004, -15.443466186523438
293,135483383,-0.08060696,0.6331543,0.046016265,0.76844054,5.95064115524292,3.5206220149993896,-13.581277847290039,7.159908771514893,-34.42973327636719, -28.720088958740234
294,135500050,-0.06413775,0.64305526,0.034226373,0.76236165,12.142126083374023,-0.1531035602092743,1.2250566482543945,-137.2754364013672,-80.71542358398438, -28.082012176513672
295,135516717,-0.050879255,0.65156865,0.00923654,0.7568252,21.719345092773438,-7.084053993225098,0.5740041136741638,-191.7732391357422,-64.48392486572266, 46.542327880859375
296,135533384,-0.04726651,0.66079676,0.011408447,0.7489884,8.119152069091797,-0.8312362432479858,-1.0962750911712646,-7.249130725860596,-87.3025131225586, -24.318510055541992
297,135550051,-0.040567957,0.67039275,0.0144797,0.74075514,11.590130805969238,6.115386009216309,-6.195507049560547,-16.69727325439453,-91.45893859863281, -44.15752029418945
298,135566718,-0.029615453,0.6827906,0.013171959,0.72989494,13.717201232910156,-6.148605823516846,-1.862910270690918,-59.11148452758789,-116.80525207519531, -44.40252685546875
299,135583385,-0.029415876,0.691071,0.025202747,0.72174835,8.965704917907715,-0.2600804269313812,-3.349752187728882,58.936458587646484,-85.03515625, -54.18327331542969
300,135600052,-0.029572545,0.6981483,0.034670435,0.7145017,11.212244987487793,3.4154884815216064,-1.4781442880630493,48.0093879699707,-74.06839752197266, -40.642208099365234
301,135616719,-0.024478192,0.70440483,0.038503118,0.7083307,10.659923553466797,0.6155188083648682,-0.8507800102233887,-4.9544291496276855,-64.91992950439453, -39.700836181640625
302,135633386,-0.020384232,0.70907927,0.041576378,0.7036069,9.17642593383789,1.0563050508499146,-1.0639852285385132,-3.9144365787506104,-49.787662506103516, -31.806406021118164
303,135650053,-0.010155472,0.7134051,0.03865262,0.69961137,10.384696006774902,1.9633997678756714,-0.6009663343429565,-62.98588943481445,-45.446720123291016, -32.42637252807617
304,135666720,0.00067601004,0.7172639,0.03522359,0.6959104,10.641791343688965,-0.79703289270401,-0.6945094466209412,-68.40841674804688,-41.89226150512695, -32.94002914428711
305,135683387,0.006169031,0.72054183,0.037817355,0.6923521,9.899555206298828,-1.4846121072769165,-0.6537590622901917,-13.29885482788086,-37.09148406982422, -37.28452682495117
306,135700054,0.0061544995,0.7235746,0.0460298,0.6886824,9.562938690185547,0.48632538318634033,-0.40727415680885315,40.74775314331055,-34.79706573486328, -39.05003356933594
307,135716721,0.005272445,0.72666866,0.054079574,0.6848362,10.048686981201172,2.308290719985962,-0.4599847197532654,44.35465621948242,-35.694984436035156, -34.1433219909668
308,135733388,0.006228516,0.729891,0.059072297,0.6809779,10.034482955932617,2.7635245323181152,-0.781000018119812,20.796009063720703,-37.15861129760742, -27.443986892700195
309,135750055,0.010363601,0.7331052,0.0599434,0.67738914,9.465929985046387,2.298748254776001,-0.6617953181266785,-14.551371574401855,-37.240055084228516, -21.587369918823242
310,135766722,0.015389635,0.7362517,0.05921952,0.67393595,9.48891830444336,0.926523745059967,-0.8448320627212524,-26.5177001953125,-36.73843002319336, -17.67970848083496
311,135783389,0.018909499,0.7394933,0.059930358,0.6702242,10.104513168334961,0.9001980423927307,-0.8956224322319031,-12.124197006225586,-37.73399353027344, -17.961688995361328
312,135800056,0.02176129,0.74284756,0.061513852,0.6662734,9.601776123046875,1.3070621490478516,-0.8539062738418579,-4.586497783660889,-39.09077835083008, -19.321046829223633
313,135816723,0.02363792,0.7463397,0.06404742,0.66205454,9.333782196044922,1.0938901901245117,-0.7369894981384277,4.888692855834961,-40.54800796508789, -19.692947387695312
314,135833390,0.02396441,0.7500678,0.06790291,0.6574292,9.66965103149414,1.5209076404571533,-0.6977726221084595,19.086673736572266,-42.82601547241211, -19.396635055541992
315,135850057,0.024488682,0.75405765,0.07128474,0.65246934,9.624463081359863,2.0412986278533936,-0.9580022096633911,16.136981964111328,-45.922996520996094, -17.786102294921875
316,135866724,0.025833596,0.75821376,0.073490374,0.64733595,9.71310806274414,1.8184279203414917,-1.2696325778961182,6.734248161315918,-48.185821533203125, -15.307340621948242
317,135883391,0.026901368,0.76247406,0.07578158,0.64200234,9.799773216247559,1.24373197555542,-1.542224645614624,8.692655563354492,-49.549381256103516, -14.500884056091309
318,135900058,0.02721376,0.7668915,0.07903599,0.6363099,9.719669342041016,1.234623908996582,-1.5662740468978882,17.128564834594727,-51.559200286865234, -16.21800422668457
319,135916725,0.027116043,0.7716155,0.08296415,0.6300724,9.674409866333008,1.5335701704025269,-1.4785385131835938,22.601869583129883,-55.433021545410156, -17.931631088256836
320,135933392,0.027014086,0.77681255,0.086960234,0.62311345,9.48865032196045,1.7865996360778809,-1.3903555870056152,23.43097686767578,-61.30851745605469, -18.150915145874023
321,135950059,0.027169466,0.78264683,0.090529315,0.61524796,9.462732315063477,2.0944483280181885,-1.3151670694351196,20.905534744262695,-69.1340103149414, -16.76683235168457
322,135966726,0.027930323,0.78916675,0.09344849,0.60638547,9.67051887512207,2.0749013423919678,-1.218406319618225,15.668845176696777,-77.92723083496094, -15.589616775512695
323,135983393,0.029109567,0.79624015,0.09628597,0.5965596,9.85965633392334,1.3380001783370972,-1.4628620147705078,13.808539390563965,-85.78692626953125, -16.72328758239746
324,136000060,0.030191604,0.80393755,0.09926324,0.5855937,10.38271427154541,0.7784817814826965,-1.888108491897583,15.812007904052734,-94.53597259521484, -16.931825637817383
325,136016727,0.03154184,0.8122574,0.1018578,0.5734702,11.099747657775879,0.9214879274368286,-2.0693535804748535,13.720771789550781,-103.74269104003906, -15.758184432983398
326,136033394,0.03324943,0.8211006,0.10442888,0.5601635,11.401907920837402,1.0612256526947021,-1.9622175693511963,12.58765697479248,-112.72096252441406, -16.973796844482422
327,136050061,0.03487396,0.83076376,0.1059277,0.54533935,13.1345853805542,1.5192111730575562,-1.3642553091049194,10.22020149230957,-124.69898223876953, -10.406159400939941
328,136066728,0.038573917,0.84151083,0.104953885,0.52854174,14.24918270111084,0.5087331533432007,-0.603908121585846,-9.182798385620117,-142.25778198242188, -3.7973806858062744
329,136083395,0.041424025,0.8536901,0.10292592,0.5088261,17.044689178466797,-0.13962110877037048,0.5807145833969116,-5.598507881164551,-164.1792449951172, 5.566098690032959
330,136100062,0.044154745,0.8667645,0.10267717,0.48603198,15.858832359313965,-0.3423035442829132,3.0719282627105713,3.7701518535614014,-185.0381317138672, -4.8250932693481445
331,136116729,0.04838133,0.8790474,0.106312186,0.4622045,14.472369194030762,-0.36764681339263916,1.3903359174728394,8.336742401123047,-188.73326110839844, -33.964332580566406
332,136133396,0.045320857,0.8901307,0.119470105,0.43742457,15.531810760498047,-5.127199649810791,-3.8720884323120117,82.95947265625,-182.43638610839844, -69.6617202758789
333,136150063,0.036866777,0.9005094,0.13688034,0.4110812,13.020392417907715,4.986483097076416,-3.4375264644622803,129.73141479492188,-184.29725646972656, -80.71199035644531
334,136166730,0.039715454,0.9092664,0.14923081,0.38650683,13.678938865661621,4.488730430603027,-4.545519828796387,43.45391845703125,-180.81776428222656, -82.35923767089844
335,136183397,0.04605151,0.9157097,0.15963744,0.36588395,14.378408432006836,1.137501835823059,-3.239593267440796,11.884881019592285,-154.2188720703125, -80.76361083984375
336,136200064,0.05101058,0.92002815,0.16823797,0.3502034,13.650864601135254,0.18896588683128357,1.3652265071868896,9.936771392822266,-117.01557922363281, -66.76863098144531
337,136216731,0.058325693,0.92135817,0.17433117,0.3424998,9.475757598876953,1.9353216886520386,3.2257392406463623,-21.25462532043457,-63.24656295776367, -57.336978912353516
338,136233398,0.063839056,0.92066395,0.17791969,0.3415366,8.329434394836426,-2.6716039180755615,2.170747756958008,-24.555543899536133,-14.856490135192871, -37.00296401977539
339,136250065,0.06054168,0.91842633,0.18130921,0.34634495,7.691227912902832,-0.7564423680305481,2.334026336669922,22.97008514404297,35.80709457397461, -14.508378982543945
340,136266732,0.058345832,0.9140808,0.18120973,0.35807154,6.770096778869629,1.5575215816497803,1.8968913555145264,-1.7998336553573608,81.5121078491211, 5.102367877960205
341,136283399,0.057310063,0.9076536,0.17740211,0.3760437,6.716884136199951,-0.0011896450305357575,0.6144729256629944,-26.80527114868164,122.81310272216797, 25.44921112060547
342,136300066,0.05063564,0.8992616,0.17289248,0.39858857,7.061492443084717,-1.0831193923950195,-0.7631561756134033,0.20067642629146576,162.9216766357422, 43.78191375732422
343,136316733,0.03830651,0.88860166,0.16842544,0.42491513,7.577151775360107,-0.13514181971549988,-1.9062459468841553,29.944358825683594,199.1734161376953, 57.61431121826172
344,136333400,0.023758184,0.87541115,0.16269721,0.45455536,8.216151237487793,1.178183913230896,-2.9418609142303467,35.269554138183594,228.989013671875, 69.7573471069336
345,136350067,0.010055561,0.8597091,0.15389773,0.48694426,9.314630508422852,2.1088476181030273,-4.008384704589844,17.053756713867188,251.8970489501953, 83.2750473022461
346,136366734,-0.002310869,0.84163386,0.14204416,0.5210287,10.578804016113281,2.0132315158843994,-4.895162582397461,-3.0714545249938965,268.2254943847656, 94.49991607666016
347,136383401,-0.015347055,0.8213361,0.12840804,0.55559224,11.745054244995117,1.641776204109192,-5.58595609664917,-6.071684837341309,279.6527099609375, 105.06554412841797
348,136400068,-0.030204358,0.7989366,0.11437788,0.58966583,12.722651481628418,2.0329701900482178,-6.261904239654541,3.2969629764556885,286.6021423339844, 112.46638488769531
349,136416735,-0.044358037,0.77479774,0.09978492,0.6227071,13.475918769836426,2.9730496406555176,-6.46458625793457,-1.7458606958389282,287.61676025390625, 111.58544158935547
350,136433402,-0.056388307,0.74947375,0.08506267,0.6541206,13.616695404052734,3.2181663513183594,-6.874768257141113,-12.190673828125,282.6967468261719, 102.91941833496094
351,136450069,-0.067481875,0.72360456,0.07216437,0.683107,13.110555648803711,2.8546416759490967,-7.136290073394775,-7.230156421661377,271.5186462402344, 89.99449920654297
352,136466736,-0.078067005,0.6977269,0.062468,0.7093524,12.232025146484375,2.895136833190918,-7.523072242736816,6.60383415222168,256.3516540527344, 73.01362609863281
353,136483403,-0.08780753,0.6722558,0.05690834,0.7328873,11.058993339538574,2.7060306072235107,-8.362130165100098,23.64270782470703,238.9884033203125, 50.765777587890625
354,136500070,-0.09709517,0.6480208,0.056225836,0.7533129,10.212904930114746,2.790210723876953,-9.526923179626465,46.58298873901367,215.51434326171875, 28.40007781982422
355,136516737,-0.104319535,0.6268565,0.058872946,0.7698718,9.15928840637207,3.887126922607422,-10.86898136138916,54.05419158935547,179.65093994140625, 6.752377986907959
356,136533404,-0.10597618,0.61152273,0.05974216,0.7818183,6.991279602050781,5.522590637207031,-12.384135246276855,18.308937072753906,128.2572784423828, -9.261308670043945
357,136550071,-0.10143903,0.604244,0.054407068,0.78844106,5.943881511688232,4.852068901062012,-14.351492881774902,-44.794219970703125,64.90718841552734, -9.131385803222656
358,136566738,-0.09498459,0.6052825,0.04917832,0.78879195,4.736659526824951,2.797854423522949,-16.209562301635742,-55.65510177612305,-6.633574485778809, -12.350587844848633
359,136583405,-0.088296294,0.6121902,0.0486389,0.7842584,5.817567825317383,4.441267013549805,-15.38320255279541,-33.37671661376953,-61.50286102294922, -27.87299919128418
360,136600072,-0.069834,0.6237553,0.036330163,0.77764565,12.331070899963379,5.563974857330322,6.31206750869751,-148.54122924804688,-91.77694702148438, -38.86628723144531
361,136616739,-0.047231365,0.6322734,0.0015292551,0.77330285,23.2263240814209,-10.479751586914062,1.642266035079956,-285.7248840332031,-56.151981353759766, 33.77183151245117
362,136633406,-0.041774094,0.6418833,-0.0016569624,0.7656618,7.637101650238037,-10.876384735107422,-3.9832119941711426,-43.28696823120117,-86.3124771118164, -11.655614852905273
363,136650073,-0.045154512,0.65028983,0.011267678,0.75825965,11.7289400100708,3.9801220893859863,-1.6779786348342896,80.92728424072266,-83.5062484741211, -36.548545837402344
364,136666740,-0.037813738,0.66067916,0.022484342,0.74937826,11.937638282775879,2.506098985671997,-5.456942081451416,23.585281372070312,-100.66963195800781, -84.0915756225586
365,136683407,-0.028174592,0.6726852,0.026599787,0.73891366,12.660903930664062,1.0344725847244263,-1.4786274433135986,-23.616952896118164,-114.53141784667969, -62.94078063964844
366,136700074,-0.020947937,0.682321,0.030924773,0.73009783,9.918280601501465,2.7908647060394287,-2.4297292232513428,-11.226729393005371,-94.40238189697266, -52.376651763916016
367,136716741,-0.015738849,0.6899744,0.035168592,0.7228074,9.481736183166504,-0.5189711451530457,-1.746727705001831,-2.2022910118103027,-76.78582000732422, -42.444583892822266
368,136733408,-0.015376055,0.69578886,0.04244933,0.716826,10.624813079833984,0.8889872431755066,-1.0718464851379395,35.765724182128906,-60.54170608520508, -33.38068771362305
369,136750075,-0.010416359,0.70093274,0.04588463,0.7116737,11.11484146118164,1.9676311016082764,-0.6052836179733276,-5.344479560852051,-54.176971435546875, -37.92099380493164
370,136766742,-0.001480747,0.7057059,0.045417476,0.70704615,10.420382499694824,0.904402494430542,-0.7389463782310486,-43.73698806762695,-50.80467987060547, -38.68921661376953
371,136783409,0.006292861,0.70987844,0.04548726,0.70282567,11.152594566345215,0.19237211346626282,-0.7807624340057373,-35.608001708984375,-45.553245544433594, -35.827110290527344
372,136800076,0.009969067,0.7133818,0.04975436,0.69893605,9.698984146118164,-0.19304262101650238,-0.8336274027824402,4.538609981536865,-39.237789154052734, -36.72540283203125
373,136816743,0.008298416,0.716122,0.05830997,0.695486,9.146525382995605,1.12357497215271,-1.0153976678848267,51.16512680053711,-31.279022216796875, -32.333805084228516
374,136833410,0.007233659,0.718886,0.0649079,0.6920533,10.384600639343262,3.0481507778167725,-0.6299607157707214,38.812801361083984,-31.643949508666992, -25.592918395996094
375,136850077,0.011134686,0.7219061,0.066071145,0.6887397,9.222168922424316,3.2072415351867676,-0.19890877604484558,-11.622977256774902,-34.76371765136719, -22.2025146484375
376,136866744,0.017239287,0.72498375,0.06331995,0.6856325,8.946736335754395,1.5683904886245728,-0.04784828796982765,-41.1739501953125,-35.336551666259766, -13.116701126098633
377,136883411,0.02244389,0.7284936,0.061580945,0.68191,10.123414993286133,0.5989823937416077,0.04720566049218178,-31.588197708129883,-39.958866119384766, -13.791549682617188
378,136900078,0.025900371,0.7324907,0.062780984,0.67738104,9.177589416503906,0.5196027755737305,-0.09933283925056458,-8.630558967590332,-45.11915969848633, -20.252912521362305
379,136916745,0.026726859,0.7368206,0.06698167,0.672231,8.925576210021973,0.9602079391479492,-0.28675734996795654,18.922767639160156,-48.14892578125, -23.10737419128418
380,136933412,0.027278874,0.74159425,0.07118727,0.666503,9.659253120422363,1.8890459537506104,-0.5967724919319153,29.816652297973633,-51.85652160644531, -22.636150360107422
381,136950079,0.029157156,0.74659914,0.073717624,0.6605342,9.827357292175293,2.424259662628174,-0.9495695233345032,14.92675495147705,-55.15157699584961, -20.187536239624023
382,136966746,0.03222028,0.7515954,0.07471132,0.6545873,9.7943754196167,1.6812154054641724,-1.5180559158325195,1.1255959272384644,-55.97664260864258, -17.715614318847656
383,136983413,0.034589924,0.7564333,0.0762854,0.64868563,9.8597993850708,1.2635945081710815,-1.9184283018112183,4.873391151428223,-54.85627365112305, -17.453784942626953
384,137000080,0.03598576,0.76102686,0.078899026,0.64289826,10.066842079162598,1.2896523475646973,-2.0722193717956543,10.497644424438477,-52.9774284362793, -18.09150505065918
385,137016747,0.036943898,0.7654394,0.082128786,0.6371757,9.863168716430664,1.654634952545166,-2.0151472091674805,12.960538864135742,-51.82368469238281, -19.070396423339844
386,137033414,0.03782527,0.7698423,0.085639425,0.63133055,9.835541725158691,1.6296290159225464,-1.7173880338668823,11.841497421264648,-52.77364730834961, -19.70408058166504
387,137050081,0.038462136,0.77452695,0.089538604,0.62498933,9.793987274169922,1.6384505033493042,-1.413228988647461,14.395262718200684,-56.54302215576172, -20.443326950073242
388,137066748,0.03939114,0.779727,0.09341275,0.61785793,9.644575119018555,2.0359463691711426,-1.1670141220092773,12.068251609802246,-63.42426300048828, -21.09156608581543
389,137083415,0.041033134,0.78558254,0.09686859,0.6097482,9.735457420349121,2.08561372756958,-0.9681299924850464,6.807358741760254,-72.17853546142578, -21.48451805114746
390,137100082,0.042832576,0.79206383,0.10045926,0.60059,9.722804069519043,1.5564038753509521,-1.5047600269317627,7.4452128410339355,-80.60885620117188, -22.61499786376953
391,137116749,0.04402132,0.79928464,0.10442171,0.59017175,10.389395713806152,1.265011191368103,-1.6184535026550293,13.907349586486816,-89.96983337402344, -21.97445297241211
392,137133416,0.045323487,0.8071246,0.1082778,0.5785946,11.015037536621094,1.255242943763733,-1.9888501167297363,14.65186882019043,-98.88568115234375, -21.86002540588379
393,137150083,0.04666275,0.8155424,0.1121552,0.56580436,11.521130561828613,1.4024131298065186,-1.894818902015686,16.39950942993164,-107.84864807128906, -22.216299057006836
394,137166750,0.048005596,0.82475764,0.11500753,0.5515831,12.58281421661377,1.3922806978225708,-1.5628573894500732,18.109338760375977,-118.4510269165039, -17.930124282836914
395,137183417,0.050208647,0.8348372,0.116762444,0.53562343,13.052578926086426,0.5021177530288696,-1.3436110019683838,10.745405197143555,-132.70504760742188, -14.903179168701172
396,137200084,0.051217187,0.8460154,0.11817548,0.51736784,14.759631156921387,0.21555578708648682,-0.9156675934791565,18.574644088745117,-149.1826171875, -8.516173362731934
397,137216751,0.05376606,0.85798305,0.11944328,0.4966972,15.294723510742188,0.7064576148986816,1.457390546798706,11.344682693481445,-167.4695587158203, -13.438712120056152
398,137233418,0.05762278,0.8696905,0.12283538,0.47458366,15.456974029541016,-1.6873806715011597,1.1875275373458862,11.993977546691895,-175.5701141357422, -31.261062622070312
399,137250085,0.05774817,0.8809928,0.1309879,0.45095342,14.901729583740234,-2.987626552581787,-0.9642099142074585,50.950965881347656,-178.4745330810547, -48.611427307128906
400,137266752,0.05625876,0.8913976,0.14327544,0.4262831,12.705257415771484,0.024692844599485397,-4.079097747802734,74.09376525878906,-179.05638122558594, -69.99951934814453
401,137283419,0.053793527,0.90097636,0.15739626,0.4007173,13.214681625366211,3.449901819229126,-5.754854202270508,85.99555206298828,-180.5488739013672, -79.59318542480469
402,137300086,0.058776345,0.90860856,0.16904715,0.3773582,13.654682159423828,4.089906215667725,-3.571248769760132,29.964435577392578,-170.57020568847656, -86.11335754394531
403,137316753,0.06480139,0.91382617,0.17928664,0.35857943,13.414457321166992,0.8507558703422546,-3.3646116256713867,13.54084587097168,-137.60450744628906, -80.9688720703125
404,137333420,0.06653831,0.91741043,0.18743113,0.3446745,12.973529815673828,-0.46430739760398865,0.5514394044876099,28.58290672302246,-98.74402618408203, -57.132080078125
405,137350087,0.06781903,0.9181166,0.1941617,0.33876795,9.394484519958496,0.2660226821899414,2.800001382827759,16.482742309570312,-41.72861862182617, -47.254547119140625
406,137366754,0.06446485,0.91702837,0.1994822,0.33927867,6.786420822143555,-1.9334286451339722,2.428915500640869,33.075706481933594,8.316300392150879, -27.00396728515625
407,137383421,0.053484432,0.91464347,0.20335215,0.34527484,6.515292644500732,-0.16235707700252533,2.222905158996582,69.66120147705078,55.61703872680664, 0.5457258224487305
408,137400088,0.04401347,0.91032964,0.20306481,0.3579495,6.419941425323486,2.0695436000823975,1.3771635293960571,40.257049560546875,98.43590545654297, 22.856616973876953
409,137416755,0.03924611,0.9039235,0.19806492,0.37703118,7.003326892852783,2.524616003036499,0.3652511239051819,-10.331177711486816,135.59225463867188, 39.80229187011719
410,137433422,0.03430156,0.89541286,0.190852,0.40079305,7.591789245605469,0.696036159992218,-0.8730101585388184,-21.885639190673828,169.6919708251953, 52.41769027709961
411,137450089,0.022946563,0.88473505,0.18380198,0.42770818,8.102209091186523,0.4724156856536865,-2.3780710697174072,13.37129020690918,203.4589080810547, 66.97042083740234
412,137466756,0.00749708,0.8717569,0.17593542,0.4571986,8.6274995803833,1.9146100282669067,-3.5154855251312256,32.23666763305664,230.89036560058594, 81.48239135742188
413,137483423,-0.0080633005,0.85650176,0.16576554,0.48873466,9.637685775756836,2.5562679767608643,-4.41767692565918,23.048791885375977,250.2989501953125, 93.01907348632812
414,137500090,-0.023346854,0.8391168,0.15383291,0.5212231,10.634394645690918,2.6976568698883057,-5.012493133544922,14.503242492675781,262.8341369628906, 100.0282211303711
415,137516757,-0.03820268,0.81975347,0.14053805,0.5538899,11.74243450164795,3.031228542327881,-5.449690818786621,7.256011486053467,270.7212829589844, 104.27094268798828
416,137533424,-0.05216185,0.7986984,0.12591323,0.5860938,12.61970043182373,3.5965828895568848,-5.984913349151611,-2.0038065910339355,274.0550842285156, 106.88156127929688
417,137550091,-0.06367425,0.77633286,0.10955851,0.6174542,13.282868385314941,4.46959114074707,-6.172051906585693,-21.248340606689453,273.2452392578125, 105.73868560791016
418,137566758,-0.071921095,0.7531474,0.092125446,0.64738667,13.157876014709473,4.111910820007324,-6.378209114074707,-41.85516357421875,267.171875, 97.69723510742188
419,137583425,-0.07940848,0.72910005,0.07660799,0.67545444,12.618485450744629,2.4505293369293213,-6.728143215179443,-35.68024444580078,260.0038757324219, 84.82709503173828
420,137600092,-0.0890547,0.70418805,0.0661311,0.7012953,11.95889663696289,1.4110469818115234,-7.266054630279541,0.17722481489181519,251.35020446777344, 70.38340759277344
421,137616759,-0.10042466,0.67881876,0.06169284,0.7247856,11.18879222869873,1.7440165281295776,-7.65142297744751,38.96316146850586,239.4016571044922, 50.72652053833008
422,137633426,-0.111018874,0.6538147,0.061027758,0.7459737,10.711856842041016,2.3468921184539795,-7.909074306488037,54.85835266113281,224.06727600097656, 31.051013946533203
423,137650093,-0.11914992,0.63027686,0.061907265,0.7646712,10.499497413635254,3.2964844703674316,-8.694759368896484,51.6121940612793,203.31695556640625, 14.058366775512695
424,137666760,-0.12342476,0.61074626,0.06304416,0.77960294,8.014634132385254,4.821060657501221,-10.28982162475586,34.55148696899414,164.27471923828125, -2.4584743976593018
425,137683427,-0.11964839,0.59790915,0.06122175,0.7902156,5.162226676940918,5.332383155822754,-12.027914047241211,-18.951936721801758,109.50413513183594, -26.520042419433594
426,137700094,-0.11215087,0.5932483,0.057610255,0.7950847,5.984736919403076,1.9150182008743286,-13.501443862915039,-48.30227279663086,41.61762619018555, -31.112489700317383
427,137716761,-0.104766496,0.59560347,0.056001097,0.794446,6.170358180999756,3.4241440296173096,-13.375032424926758,-40.127010345458984,-20.4263973236084, -31.58873748779297
428,137733428,-0.09457018,0.60514313,0.05112311,0.78882486,5.488655090332031,2.961630344390869,-13.50768756866455,-72.75922393798828,-78.53925323486328, -27.127954483032227
429,137750095,-0.07601249,0.6176306,0.036254335,0.7819464,12.595651626586914,7.520637512207031,8.276097297668457,-163.2206573486328,-95.96346282958984, -28.972272872924805
430,137766762,-0.042790763,0.62619895,-0.0050399047,0.77847195,22.1012020111084,-7.835942268371582,5.263986110687256,-366.5194091796875,-50.47062301635742, 1.8210257291793823
431,137783429,-0.032460727,0.63617665,-0.018133195,0.77064705,8.990398406982422,-18.508777618408203,-7.537133693695068,-117.38350677490234,-85.87183380126953, 4.052364826202393
432,137800096,-0.03947402,0.6457442,-0.004540096,0.76251936,12.38800048828125,-3.2590386867523193,-1.6191790103912354,100.00701904296875,-92.95863342285156, -20.9842529296875
433,137816763,-0.043354493,0.6533669,0.02152167,0.7554926,9.335846900939941,7.182109832763672,-6.119572162628174,152.05117797851562,-81.080810546875, -93.08035278320312
434,137833430,-0.032795165,0.666348,0.028067036,0.74439055,16.167016983032227,2.2372450828552246,-2.218552350997925,-15.21803092956543,-123.40048217773438, -78.2725830078125
435,137850097,-0.022231348,0.677398,0.030711422,0.73463917,10.747095108032227,3.4011120796203613,-2.4375314712524414,-35.02847671508789,-106.38285064697266, -61.04816436767578
436,137866764,-0.0132509535,0.68616205,0.030221893,0.7266999,8.706674575805664,0.7625109553337097,-1.8419990539550781,-43.51675033569336,-85.53461456298828, -39.14445877075195
437,137883431,-0.01101091,0.6923071,0.033184405,0.7207556,9.361588478088379,-0.11120207607746124,-1.2823197841644287,5.362921237945557,-61.91704559326172, -22.465669631958008
438,137900098,-0.007998087,0.6971978,0.03651059,0.7159039,11.94412899017334,1.224568247795105,-0.3844008445739746,3.33479380607605,-50.68041229248047, -28.407447814941406
439,137916765,-0.0006268725,0.7021167,0.036983617,0.7111005,10.602744102478027,1.038280963897705,-0.40481889247894287,-31.615381240844727,-51.52295684814453, -36.167110443115234
440,137933432,0.006284245,0.706304,0.037266932,0.7068991,10.049928665161133,-0.03919859230518341,-0.6869915723800659,-30.47007179260254,-44.92716598510742, -33.17839431762695
441,137950099,0.009644552,0.7100535,0.04125943,0.70287174,10.532362937927246,0.029587728902697563,-0.6186580657958984,4.735252380371094,-40.8809928894043, -34.050743103027344
442,137966766,0.0093654115,0.7132362,0.048214175,0.6992009,9.242050170898438,1.0829806327819824,-0.4808299243450165,36.676570892333984,-35.16756057739258, -31.084293365478516
443,137983433,0.0069680195,0.7161472,0.055521864,0.6957025,9.793710708618164,2.0484180450439453,-0.5256344079971313,48.686397552490234,-32.286930084228516, -22.72046661376953
444,138000100,0.0074877036,0.7192878,0.059645694,0.69210666,10.0768404006958,2.6771910190582275,-0.24120239913463593,19.144058227539062,-35.129756927490234, -20.906347274780273
445,138016767,0.012025364,0.72246957,0.059455484,0.688737,8.664535522460938,2.0582022666931152,-0.3549320697784424,-21.339685440063477,-36.089599609375, -18.63808822631836
446,138033434,0.01775565,0.7256704,0.057004504,0.6854472,9.851130485534668,1.2482967376708984,-0.2829521894454956,-37.99497985839844,-36.4741096496582, -13.019558906555176
447,138050101,0.022787226,0.7292428,0.055808246,0.6815946,9.982534408569336,0.5779674649238586,-0.22151324152946472,-28.324445724487305,-40.62513732910156, -15.904626846313477
448,138066768,0.025687987,0.73319536,0.057409447,0.67710346,8.85303783416748,0.43180859088897705,-0.2791745960712433,-4.222634315490723,-44.37144088745117, -19.910953521728516
449,138083435,0.026283791,0.7375651,0.06121003,0.6719824,9.407139778137207,1.1171886920928955,-0.27301734685897827,17.961040496826172,-48.20418167114258, -20.232173919677734
450,138100102,0.02722076,0.7423811,0.064631395,0.6662976,9.77932071685791,1.9367719888687134,-0.4701104760169983,14.803391456604004,-53.35064697265625, -19.80980682373047
451,138116769,0.029679807,0.74746007,0.06625133,0.6603282,9.790182113647461,1.8703248500823975,-0.9606040716171265,-1.0324993133544922,-57.03883743286133, -17.52039337158203
452,138133436,0.032550357,0.7526037,0.06738289,0.65420777,9.908733367919922,1.1665712594985962,-1.5130505561828613,-5.273595809936523,-58.40781021118164, -16.87615966796875
453,138150103,0.03456296,0.757688,0.06943655,0.6479916,9.947408676147461,1.0484724044799805,-1.849244475364685,3.3482697010040283,-58.03693771362305, -17.84654426574707
454,138166770,0.036488142,0.76259536,0.071861126,0.6418355,9.862346649169922,1.2667840719223022,-1.9075369834899902,5.389410018920898,-56.806724548339844, -19.472393035888672
455,138183437,0.03859022,0.76740175,0.07424592,0.6356831,9.831781387329102,1.264013409614563,-1.890211820602417,4.262378692626953,-56.44055938720703, -20.10340690612793
456,138200104,0.040604226,0.77228945,0.07679282,0.6293039,9.76669692993164,1.5504789352416992,-1.812308430671692,5.5776567459106445,-57.91049575805664, -20.603878021240234
457,138216771,0.042619795,0.7774429,0.079229385,0.62248623,9.783577919006348,1.9773367643356323,-1.5611759424209595,5.401432991027832,-61.42892074584961, -20.014389038085938
458,138233438,0.04483454,0.78301084,0.08150688,0.6150127,9.652386665344238,1.857908010482788,-1.4928349256515503,4.144775867462158,-66.87959289550781, -19.985408782958984
459,138250105,0.046954665,0.7891324,0.083948515,0.6066449,9.655705451965332,1.812230110168457,-1.5136308670043945,6.0298991203308105,-73.95064544677734, -20.439781188964844
460,138266772,0.049026463,0.79570544,0.08660513,0.5974521,9.884056091308594,1.839582085609436,-1.713121771812439,7.822547435760498,-80.23422241210938, -21.418310165405273
461,138283439,0.050609708,0.8028446,0.08933541,0.5872806,10.39483642578125,1.2710312604904175,-2.001391887664795,11.582633972167969,-87.62128448486328, -19.817337036132812
462,138300106,0.052278,0.81043625,0.09192187,0.57620364,10.992697715759277,1.6454778909683228,-1.8831676244735718,11.255881309509277,-94.5719223022461, -19.425432205200195
463,138316773,0.053319193,0.8185765,0.09488786,0.563991,11.307437896728516,1.1577461957931519,-2.1484174728393555,17.179901123046875,-102.57363891601562, -19.136627197265625
464,138333440,0.054120466,0.8274317,0.097233675,0.5504303,12.669437408447266,1.3251296281814575,-1.6121760606765747,17.276809692382812,-113.03954315185547, -14.772956848144531
465,138350107,0.05593666,0.8370686,0.09861248,0.53522253,12.6354398727417,0.37557920813560486,-1.5778629779815674,9.250959396362305,-126.46409606933594, -13.236413955688477
466,138366774,0.056589,0.84777176,0.099508844,0.51785964,14.139225006103516,-0.029143642634153366,-1.1618160009384155,16.05065155029297,-142.25430297851562, -6.3282294273376465
467,138383441,0.0571775,0.8593968,0.10019616,0.4981252,14.803319931030273,0.4929584860801697,0.29831168055534363,17.66706085205078,-159.4874725341797, -5.233828544616699
468,138400108,0.05896087,0.87122303,0.10168286,0.4766074,14.778475761413574,0.10192923992872238,1.462453842163086,14.668708801269531,-171.34469604492188, -14.670239448547363
469,138416775,0.05941767,0.8826172,0.106848404,0.4539167,14.462491035461426,-1.8957880735397339,-0.4890267252922058,35.326534271240234,-174.6813201904297, -33.19877624511719
470,138433442,0.05864479,0.89306676,0.116605215,0.43057626,13.021767616271973,-0.721608579158783,-3.2487096786499023,57.19694900512695,-173.0205078125, -58.267799377441406
471,138450109,0.05520174,0.9026638,0.13020232,0.40644574,12.027755737304688,2.096797466278076,-6.025792121887207,85.2400131225586,-171.7421875, -75.00482177734375
472,138466776,0.056386836,0.9106874,0.1426479,0.3835632,13.075827598571777,3.6052591800689697,-4.499960422515869,51.58647918701172,-164.22312927246094, -81.74519348144531
473,138483443,0.06136417,0.9163697,0.15352884,0.3645961,12.992475509643555,1.0121806859970093,-3.5458128452301025,18.99437141418457,-137.93734741210938, -82.73674774169922
474,138500110,0.06180564,0.9203694,0.16328835,0.34991035,13.063104629516602,-1.0594731569290161,0.29069286584854126,39.53615951538086,-102.52801513671875, -64.30745697021484
475,138516777,0.060881164,0.9219441,0.17107172,0.34212166,9.552481651306152,0.6357487440109253,2.6431806087493896,34.64198303222656,-52.50092315673828, -48.3648681640625
476,138533444,0.057051174,0.9219876,0.17568994,0.34031916,8.021151542663574,-1.7804653644561768,1.2910118103027344,37.951541900634766,-8.99595832824707, -20.78984260559082
477,138550111,0.04723764,0.9210136,0.17855303,0.3429596,7.529531002044678,0.5107285380363464,1.8395401239395142,65.99071502685547,27.98639678955078, 4.815345287322998
478,138566778,0.042436413,0.9183597,0.17579162,0.35201138,7.3779988288879395,3.4892985820770264,1.2949049472808838,12.57874584197998,64.46420288085938, 28.62060546875
479,138583445,0.043782085,0.9139379,0.16785143,0.36691508,7.317904949188232,3.43764328956604,0.5278784036636353,-46.321983337402344,96.6619873046875, 46.01980209350586
480,138600112,0.045586284,0.90760154,0.1575801,0.38645825,7.371828079223633,2.020549774169922,-0.44839608669281006,-60.989322662353516,129.33787536621094, 58.6973762512207
481,138616779,0.041407295,0.899326,0.14765267,0.40950823,7.784842014312744,1.4759724140167236,-1.6892917156219482,-27.141258239746094,162.90176391601562, 71.44043731689453
482,138633446,0.032825578,0.8889392,0.1374195,0.43568978,8.109054565429688,3.0505828857421875,-2.6505188941955566,-4.567059516906738,192.5462646484375, 84.47621154785156
483,138650113,0.025221055,0.876283,0.124923326,0.4646358,9.027813911437988,3.7429723739624023,-3.495577096939087,-20.447908401489258,214.7749481201172, 93.88290405273438
484,138666780,0.018484835,0.86138815,0.111143686,0.49529406,9.914999008178711,3.307211399078369,-4.226414680480957,-31.643665313720703,231.25021362304688, 97.2429428100586
485,138683447,0.010815936,0.8442993,0.0974515,0.5268254,10.701395988464355,3.1468162536621094,-4.717512130737305,-26.78053092956543,244.60238647460938, 98.35905456542969
486,138700114,0.0016712688,0.82519186,0.08418848,0.5585412,11.41030502319336,3.377236843109131,-5.374136924743652,-16.950563430786133,254.00277709960938, 99.90158081054688
487,138716781,-0.007854426,0.8042847,0.07108348,0.58992535,12.289445877075195,3.7852280139923096,-5.663639545440674,-14.029706954956055,259.2686767578125, 99.45697784423828
488,138733448,-0.016700884,0.78192306,0.058391776,0.6204094,12.57863998413086,4.065343856811523,-5.900267124176025,-15.614179611206055,259.859130859375, 93.79608917236328
489,138750115,-0.02439444,0.75841606,0.046700347,0.6496377,12.45830249786377,3.472490072250366,-6.003722190856934,-16.93670082092285,257.454345703125, 83.23358917236328
490,138766782,-0.031927813,0.73398376,0.037712805,0.6773672,12.248800277709961,2.9647867679595947,-6.264904022216797,-5.073724746704102,253.32154846191406, 68.416015625
491,138783449,-0.038959645,0.7092116,0.031772155,0.7032012,11.643369674682617,2.8741371631622314,-6.674982070922852,7.121394157409668,244.61244201660156, 51.07505416870117
492,138800116,-0.04493868,0.68490285,0.028447913,0.7266907,11.075809478759766,2.3787693977355957,-7.386086940765381,15.007863998413086,230.0999298095703, 34.002525329589844
493,138816783,-0.0500989,0.66194725,0.028316302,0.74733824,10.131922721862793,2.0740725994110107,-8.320103645324707,27.217565536499023,208.9215850830078, 16.06220817565918
494,138833450,-0.0539929,0.6414896,0.030665101,0.76461464,9.183496475219727,2.5661191940307617,-9.329120635986328,33.974891662597656,179.77734375, -0.04559598118066788
495,138850117,-0.05480133,0.62493676,0.03272114,0.7780619,8.248918533325195,2.939534902572632,-10.34550952911377,18.159761428833008,141.97303771972656, -12.686227798461914
496,138866784,-0.052777965,0.61380243,0.03303666,0.78700054,7.094632625579834,2.8260159492492676,-11.736368179321289,-4.3664398193359375,93.80278778076172, -17.391925811767578
497,138883451,-0.048878875,0.6098262,0.031886708,0.79038376,5.323023796081543,1.8102620840072632,-14.60615348815918,-21.56873321533203,31.92165184020996, -17.672876358032227
498,138900118,-0.044325344,0.61250323,0.031400748,0.78859955,5.107442378997803,2.0435354709625244,-15.434539794921875,-21.820261001586914,-26.04178237915039, -20.788049697875977
499,138916785,-0.038996376,0.6204551,0.033716433,0.7825459,6.078985214233398,3.4037604331970215,-12.917489051818848,-10.592611312866211,-73.41049194335938, -34.3164176940918
500,138933452,-0.018840367,0.6293623,0.00967148,0.7768235,22.513229370117188,-3.594388008117676,12.501601219177246,-216.052001953125,-73.3379898071289, -1.4378405809402466
501,138950119,-0.008901877,0.63633966,-0.0056485906,0.771337,13.446179389953613,-4.928115367889404,-4.3611674308776855,-124.94873809814453,-62.586936950683594, 15.185025215148926
502,138966786,-0.007893068,0.64605,-0.0010837604,0.7632535,10.389838218688965,-0.875400185585022,-1.4991295337677002,19.32748031616211,-89.91288757324219, -24.464723587036133
503,138983453,-0.0013019089,0.6561573,0.0031701236,0.7546164,11.935005187988281,4.312435150146484,-5.197129726409912,-7.120982646942139,-94.35359191894531, -52.3636589050293
504,139000120,0.0066500837,0.6678312,0.007486706,0.7442456,13.310773849487305,-2.9119210243225098,-2.4362339973449707,-12.91472339630127,-110.2439956665039, -59.594085693359375
505,139016787,0.010565873,0.67730904,0.015346653,0.7354627,9.560696601867676,2.7480337619781494,-2.3691349029541016,23.568191528320312,-91.291259765625, -55.29460525512695
506,139033454,0.015418842,0.6852658,0.018972853,0.7278826,10.520197868347168,1.807098150253296,-1.5096426010131836,-2.4435698986053467,-78.36300659179688, -40.35858917236328
507,139050121,0.017632876,0.6916,0.023881067,0.7216704,9.779711723327637,-0.0759647861123085,-0.926946759223938,5.588710784912109,-63.732933044433594, -33.82514953613281
508,139066788,0.018396687,0.6968178,0.029642578,0.7163992,10.603338241577148,0.45160356163978577,-0.16790737211704254,15.797040939331055,-53.49751663208008, -30.61009407043457
509,139083455,0.022670357,0.70180714,0.033864137,0.7112005,10.180749893188477,1.759955883026123,-0.18899545073509216,-8.425751686096191,-53.038963317871094, -40.384925842285156
510,139100122,0.030502744,0.7065507,0.034055334,0.70618397,10.498260498046875,1.9124735593795776,-0.19853812456130981,-44.83851623535156,-52.50559997558594, -38.18503189086914
511,139116789,0.03470778,0.7110488,0.03724895,0.7012973,10.362637519836426,-0.7078455090522766,-0.8035389184951782,-12.537342071533203,-49.307376861572266, -35.026912689208984
512,139133456,0.031048674,0.71487266,0.047666255,0.69693714,8.904854774475098,1.0699797868728638,-0.6113627552986145,61.27090835571289,-39.75957107543945, -32.37998580932617
513,139150123,0.026399067,0.71839595,0.057360627,0.6927628,10.41804027557373,2.898669481277466,-0.556391716003418,62.675655364990234,-37.289649963378906, -24.03767204284668
514,139166790,0.026645321,0.7219684,0.061894108,0.6886371,10.104199409484863,3.4088196754455566,-0.21316489577293396,13.858189582824707,-40.21241760253906, -21.71108627319336
515,139183457,0.03096962,0.7251966,0.06131107,0.68510723,8.844368934631348,1.980850338935852,-0.40572497248649597,-29.908443450927734,-38.244903564453125, -15.586238861083984
516,139200124,0.03538152,0.72842455,0.059974074,0.68157834,10.113176345825195,1.0527818202972412,-0.4648449718952179,-33.560997009277344,-38.44675064086914, -12.166764259338379
517,139216791,0.038838517,0.7320085,0.060503524,0.6774915,9.59017562866211,1.0639708042144775,-0.4073505401611328,-19.08527374267578,-42.033695220947266, -16.99586296081543
518,139233458,0.041147362,0.7360107,0.062490873,0.6728227,9.010244369506836,0.8185547590255737,-0.31982144713401794,0.8725488781929016,-45.1680908203125, -19.49391746520996
519,139250125,0.041615706,0.74044377,0.06619372,0.6675549,9.565152168273926,1.428901195526123,-0.40543246269226074,18.505050659179688,-48.92829513549805, -19.657297134399414
520,139266792,0.042603787,0.7453195,0.06930323,0.66172594,9.658331871032715,2.134613513946533,-0.6027777194976807,13.522793769836426,-54.235260009765625, -18.988258361816406
521,139283459,0.0447855,0.7504401,0.07108702,0.65557647,9.578263282775879,1.9809638261795044,-1.0655999183654785,1.6070061922073364,-57.960365295410156, -17.59972381591797
522,139300126,0.0471526,0.7556118,0.072650805,0.64926845,9.714895248413086,1.4639984369277954,-1.5480279922485352,-0.24235062301158905,-59.17497634887695, -17.322341918945312
523,139316793,0.048913997,0.7607491,0.074880175,0.64285433,9.882437705993652,1.400874376296997,-1.928072452545166,5.921192169189453,-59.057559967041016, -18.133819580078125
524,139333460,0.050637208,0.76580495,0.07729143,0.63640004,9.955029487609863,1.692550539970398,-1.9738584756851196,6.9209465980529785,-58.828086853027344, -18.980239868164062
525,139350127,0.052722707,0.7708544,0.079507075,0.62982726,9.935860633850098,1.730054259300232,-1.739153265953064,4.221601486206055,-59.688568115234375, -19.58588409423828
526,139366794,0.054795325,0.7761336,0.081948906,0.622815,9.771037101745605,1.7853657007217407,-1.4445323944091797,5.597518444061279,-62.930599212646484, -20.768943786621094
527,139383461,0.05673867,0.7818641,0.08473439,0.6150522,9.783920288085938,1.707138180732727,-1.2531388998031616,8.357393264770508,-68.67957305908203, -22.083602905273438
528,139400128,0.058132995,0.7880856,0.08832071,0.60641676,9.844491958618164,1.9160699844360352,-1.233809471130371,15.402886390686035,-74.83304595947266, -24.1307315826416
529,139416795,0.058999807,0.79495096,0.092276014,0.5967053,10.061690330505371,1.3110015392303467,-1.7196156978607178,20.718963623046875,-82.8995590209961, -23.97834014892578
530,139433462,0.060381044,0.80226296,0.096121736,0.5860795,9.996477127075195,1.7804924249649048,-1.9018218517303467,18.225065231323242,-90.11742401123047, -25.59503173828125
531,139450129,0.06188196,0.81018764,0.09941318,0.57435507,10.091876029968262,1.8408578634262085,-2.390425443649292,16.319875717163086,-98.97327423095703, -23.082744598388672
532,139466796,0.06450749,0.8186175,0.10139643,0.5616253,10.787776947021484,2.2094264030456543,-2.0052812099456787,5.800095081329346,-107.9110336303711, -20.330957412719727
533,139483463,0.06699586,0.82759756,0.102564484,0.5477907,12.398673057556152,1.7684986591339111,-1.6470140218734741,4.452184200286865,-116.54862976074219, -15.329717636108398
534,139500130,0.06912921,0.8373974,0.10329578,0.53227526,13.100769996643066,0.911952555179596,-1.369388461112976,6.403357028961182,-129.1980743408203, -11.724871635437012
535,139516797,0.07008926,0.848171,0.10422784,0.51461655,14.103271484375,0.22205126285552979,-0.9154372215270996,15.890413284301758,-144.2295379638672, -8.949256896972656
536,139533464,0.07013205,0.85997903,0.105490535,0.49435765,15.51956844329834,0.8103184700012207,0.9251915216445923,24.781259536743164,-162.31056213378906, -8.191337585449219
537,139550131,0.0719092,0.8720743,0.10836707,0.47177553,14.3399019241333,1.0503684282302856,2.0918984413146973,21.851638793945312,-177.61294555664062, -24.588844299316406
538,139566798,0.075611494,0.8829593,0.115326546,0.44873792,16.098018646240234,-3.7896721363067627,-0.9463627934455872,23.31490707397461,-175.95065307617188, -56.48820877075195
539,139583465,0.06963949,0.89393467,0.12958059,0.42336765,14.50056266784668,-2.0602924823760986,-3.6805126667022705,106.43451690673828,-179.03782653808594, -72.16098022460938
540,139600132,0.06436493,0.9041093,0.14475307,0.3968505,13.89148998260498,4.984195709228516,-5.1730852127075195,105.43460845947266,-184.0139617919922, -81.16404724121094
541,139616799,0.069569804,0.9120574,0.15575857,0.37289533,14.669584274291992,3.8553295135498047,-4.19586706161499,25.405017852783203,-174.3414764404297, -84.93485260009766
542,139633466,0.07615433,0.917623,0.16593568,0.35303548,14.852667808532715,0.4915390610694885,-3.416266441345215,9.128132820129395,-144.50526428222656, -83.88475799560547
543,139650133,0.07941219,0.921226,0.17482781,0.3383367,12.655930519104004,-0.5306844115257263,1.7532246112823486,20.081045150756836,-104.15161895751953, -67.28487396240234
544,139666800,0.08264388,0.9218106,0.18219686,0.33202347,8.748223304748535,-0.2570047676563263,2.926708936691284,4.981179714202881,-44.93888854980469, -56.67424392700195
545,139683467,0.079703726,0.9207952,0.18781318,0.3324306,7.458789348602295,-3.3054401874542236,1.8918215036392212,30.781450271606445,7.943594455718994, -29.69389533996582
546,139700134,0.071837656,0.9181478,0.19119115,0.33954415,7.077587604522705,0.02845115214586258,2.3147239685058594,47.27566909790039,59.18631362915039, -2.737412929534912
547,139716801,0.067322664,0.91329324,0.18976007,0.35405448,6.704692363739014,0.9868901968002319,1.4063221216201782,4.090580940246582,104.17613220214844, 20.533205032348633
548,139733468,0.06224338,0.9064333,0.18518244,0.37444896,7.128795623779297,-1.1507470607757568,-0.1409943848848343,-8.61794662475586,145.22679138183594, 41.76288604736328
549,139750135,0.05046095,0.8976307,0.18039799,0.3989607,7.374633312225342,-1.4391487836837769,-1.514413833618164,26.54201316833496,184.29066467285156, 59.57877731323242
550,139766802,0.034574084,0.8864829,0.17466436,0.42713588,7.683201313018799,0.47675156593322754,-2.568293809890747,43.89656066894531,218.06553649902344, 75.04646301269531
551,139783469,0.01925358,0.8729497,0.1653955,0.45851102,8.76779842376709,0.9295957088470459,-3.9624788761138916,25.640884399414062,243.03533935546875, 92.83415985107422
552,139800136,0.004203869,0.8569975,0.15340579,0.49193937,10.02475643157959,1.0467901229858398,-4.913934707641602,12.769137382507324,262.30938720703125, 105.83861541748047
553,139816803,-0.011477592,0.8386209,0.14007296,0.5262727,11.12440013885498,0.9070101380348206,-5.668976783752441,10.908447265625,276.47088623046875, 113.36372375488281
554,139833470,-0.02948282,0.8178135,0.12707514,0.5605033,12.110268592834473,1.0311148166656494,-6.470466136932373,25.80274200439453,286.896484375, 117.51126098632812
555,139850137,-0.04834984,0.7947068,0.11457601,0.5941176,12.777229309082031,2.4139468669891357,-6.858775615692139,33.55525207519531,292.96533203125, 116.1562728881836
556,139866804,-0.063800655,0.76987106,0.100902535,0.6269346,13.406889915466309,3.388267755508423,-7.150139808654785,11.282818794250488,293.4017028808594, 107.54157257080078
557,139883471,-0.07697903,0.74383837,0.087430194,0.6581298,13.289403915405273,2.7212376594543457,-7.592644214630127,1.7683074474334717,288.3535461425781, 96.59379577636719
558,139900138,-0.09078951,0.7170733,0.07691932,0.6867655,12.747774124145508,2.3512580394744873,-8.35547924041748,20.31645393371582,277.44744873046875, 85.25363159179688
559,139916805,-0.10571998,0.69008625,0.07060099,0.7124744,12.174551010131836,2.182894229888916,-9.092578887939453,47.329463958740234,262.1207580566406, 71.6143798828125
560,139933472,-0.120277286,0.66373503,0.06905985,0.73499656,10.925178527832031,3.1310293674468994,-9.849528312683105,70.03749084472656,240.32862854003906, 49.781280517578125
561,139950139,-0.13180308,0.6400022,0.06979761,0.7537596,9.939884185791016,3.923920154571533,-10.712536811828613,67.33429718017578,206.7263641357422, 28.46297264099121
562,139966806,-0.13839817,0.6212301,0.071422264,0.76799613,7.440960884094238,5.455765247344971,-12.388142585754395,47.894412994384766,158.05519104003906, 5.544960021972656
563,139983473,-0.13614939,0.61061096,0.06944306,0.77704275,4.466973304748535,6.1811394691467285,-14.228602409362793,-14.12990951538086,92.07225799560547, -16.748504638671875
564,140000140,-0.12869544,0.608451,0.06531156,0.7803584,5.153424263000488,3.019237756729126,-14.74337100982666,-52.680171966552734,22.516843795776367, -26.04407501220703
565,140016807,-0.12185504,0.6126528,0.06610003,0.7780996,4.881977558135986,3.5538859367370605,-17.005722045898438,-26.85055923461914,-38.83661651611328, -35.504066467285156
566,140033474,-0.11084812,0.62343407,0.064152144,0.7713152,6.620144844055176,6.236828804016113,-6.145078182220459,-62.504947662353516,-92.50483703613281, -39.43687057495117
567,140050141,-0.08190239,0.6330387,0.031500634,0.76913077,21.94713020324707,-0.8472793698310852,14.935540199279785,-303.45819091796875,-51.0113525390625, -6.88865852355957
568,140066808,-0.068351544,0.641813,0.013251559,0.76369405,13.392163276672363,-13.894267082214355,-5.941804885864258,-159.0273895263672,-65.68965148925781, 13.509794235229492
569,140083475,-0.07138595,0.6509989,0.024112424,0.7553299,11.163738250732422,-3.15446138381958,-2.1272430419921875,67.1224594116211,-92.84185028076172, -26.58860969543457
570,140100142,-0.06992406,0.6600847,0.03989362,0.7468652,10.69460391998291,5.8405842781066895,-6.900396823883057,72.62083435058594,-95.88716125488281, -71.96839141845703
571,140116809,-0.057973932,0.67353284,0.0447726,0.73551905,14.607858657836914,-1.5854859352111816,-2.6579623222351074,-32.285274505615234,-128.91329956054688, -73.69775390625
572,140133476,-0.04956684,0.68358827,0.050240643,0.72644776,10.525483131408691,2.3378841876983643,-3.0081076622009277,-12.245505332946777,-100.31970977783203, -60.466365814208984
573,140150143,-0.04216819,0.6914158,0.053706042,0.7192231,9.744979858398438,-0.09730212390422821,-2.407390832901001,-17.394893646240234,-79.44499969482422, -47.38585662841797
574,140166810,-0.04026465,0.69682676,0.06123018,0.713486,9.942237854003906,0.48960474133491516,-1.72518789768219,28.94715118408203,-59.54338455200195, -40.83390808105469
575,140183477,-0.036424246,0.7011113,0.06596983,0.7090587,11.354633331298828,1.9353561401367188,-1.0408377647399902,5.763144493103027,-47.76764678955078, -37.832847595214844
576,140200144,-0.028255265,0.7051382,0.066640444,0.7053658,10.962003707885742,0.8684095144271851,-0.7029587626457214,-35.209415435791016,-43.910545349121094, -39.60313034057617
577,140216811,-0.020226737,0.7083785,0.066651754,0.7023877,10.588534355163574,0.5334274768829346,-0.9760763645172119,-37.906124114990234,-36.43926239013672, -36.21581268310547
578,140233478,-0.015184553,0.71106523,0.06938208,0.6995298,10.313380241394043,-0.43537843227386475,-0.558172345161438,-10.21259880065918,-32.18864822387695, -35.3051643371582
579,140250145,-0.016039932,0.71291506,0.07759574,0.6967596,8.80885124206543,0.4144502282142639,-0.4485170543193817,45.03261947631836,-25.494726181030273, -34.17409133911133
580,140266812,-0.018777685,0.71479976,0.08610355,0.69375426,9.931640625,2.677992105484009,0.16133473813533783,55.786109924316406,-25.839855194091797, -26.568559646606445
581,140283479,-0.017123587,0.71730363,0.089682125,0.69075286,9.772242546081543,3.343573808670044,0.25862565636634827,10.609728813171387,-30.746702194213867, -22.91475486755371
582,140300146,-0.012300986,0.7202465,0.08908302,0.68786484,8.902960777282715,2.1578421592712402,0.10215315222740173,-24.9759578704834,-33.74905014038086, -17.077186584472656
583,140316813,-0.0071097566,0.72351223,0.08728593,0.6847341,9.565825462341309,1.0592801570892334,-0.0002567507326602936,-32.34113693237305,-36.61689758300781, -12.653913497924805
584,140333480,-0.003157013,0.7271995,0.08736068,0.68083686,9.523554801940918,0.8023257851600647,-0.12794016301631927,-16.926862716674805,-41.776641845703125, -15.841872215270996
585,140350147,-0.00039758973,0.7312857,0.08926048,0.67620534,8.973749160766602,0.7651407122612,-0.2722129821777344,-1.982914686203003,-46.64966583251953, -19.128814697265625
586,140366814,0.0010899625,0.7357802,0.09260737,0.670858,9.398906707763672,1.1332306861877441,-0.38469308614730835,11.581008911132812,-51.379825592041016, -20.245019912719727
587,140383481,0.0028264576,0.7406773,0.0956879,0.66500604,9.925941467285156,1.6837414503097534,-0.6474316716194153,9.419822692871094,-55.959510803222656, -19.797382354736328
588,140400148,0.005412829,0.74580234,0.097807355,0.658926,9.924851417541504,1.4882678985595703,-1.1756408214569092,0.856173574924469,-58.750885009765625, -18.642223358154297
589,140416815,0.00799241,0.7508997,0.09982596,0.65277934,9.964552879333496,1.2188438177108765,-1.639340877532959,0.48160848021507263,-58.971370697021484, -18.116209030151367
590,140433482,0.0102071045,0.75583243,0.10216945,0.6466644,10.02920150756836,1.1143202781677246,-1.9813038110733032,3.7947049140930176,-57.802833557128906, -18.27105712890625
591,140450149,0.012244962,0.7605514,0.10466836,0.64066863,9.892324447631836,1.4202418327331543,-2.071840524673462,5.306703090667725,-56.097957611083984, -18.440410614013672
592,140466816,0.014302544,0.7651221,0.10718414,0.63474023,9.796242713928223,1.4577947854995728,-2.039585590362549,5.218515872955322,-55.10645294189453, -18.719881057739258
593,140483483,0.016332299,0.7697281,0.10979943,0.6286463,9.679450988769531,1.6275067329406738,-1.7648074626922607,5.925271034240723,-56.10360336303711, -19.115856170654297
594,140500150,0.018378062,0.7745888,0.11234588,0.622136,9.69908332824707,1.8480324745178223,-1.4859503507614136,5.889189720153809,-59.43338394165039, -18.678062438964844
595,140516817,0.020876713,0.7798669,0.11461326,0.6150086,9.65337085723877,1.7688709497451782,-1.49595308303833,2.8180758953094482,-64.90308380126953, -18.88554573059082
596,140533484,0.023306442,0.7856223,0.11708509,0.6070795,9.72502613067627,1.6653878688812256,-1.4954084157943726,4.758579254150391,-71.14862823486328, -19.43212890625
597,140550151,0.02533195,0.7918887,0.11991729,0.59823936,9.914725303649902,1.874645471572876,-1.7846299409866333,9.265613555908203,-77.83499908447266, -19.430137634277344
598,140566818,0.026016915,0.7985692,0.123863935,0.58844566,10.446524620056152,1.697680115699768,-1.752662181854248,11.848005294799805,-85.3240737915039, -16.60948944091797
599,140583485,0.026979014,0.80568486,0.12757419,0.57781416,10.905808448791504,1.522914171218872,-1.9691694974899292,10.097128868103027,-92.04853820800781, -15.909860610961914
600,140600152,0.027381511,0.8133527,0.13155589,0.5660397,11.323309898376465,1.169335126876831,-2.1961915493011475,16.117956161499023,-99.96070861816406, -14.885856628417969
601,140616819,0.028223578,0.82178116,0.13429214,0.5530325,12.711370468139648,1.3236321210861206,-1.6261159181594849,11.635241508483887,-110.19700622558594, -9.502405166625977
602,140633486,0.030418064,0.8309936,0.13571098,0.5386158,12.862263679504395,0.26212042570114136,-1.6788878440856934,2.569685459136963,-122.28341674804688, -7.416076183319092
603,140650153,0.032185137,0.8412806,0.13583705,0.5222638,14.36073112487793,-0.15868784487247467,-1.2777494192123413,7.997288227081299,-136.0574493408203, -0.4578953683376312
604,140666820,0.03390054,0.852295,0.13631836,0.50384676,14.061135292053223,0.6030386686325073,0.2673415243625641,11.66599178314209,-150.54493713378906, -2.1405997276306152
605,140683487,0.03609014,0.863427,0.138167,0.48384002,13.619990348815918,0.03845228627324104,0.8767154216766357,15.154745101928711,-160.46755981445312, -12.088142395019531
606,140700154,0.03717539,0.8742538,0.14348511,0.46228826,13.697702407836914,-1.7848451137542725,-0.27996546030044556,34.65216064453125,-166.79615783691406, -29.719038009643555
607,140716821,0.037325867,0.8843032,0.15260379,0.43968952,12.657729148864746,-0.5821682810783386,-2.772759437561035,53.1788444519043,-168.80120849609375, -50.67829513549805
608,140733488,0.03706758,0.8935545,0.16442816,0.41611293,11.980585098266602,1.9140533208847046,-5.317291736602783,64.66136932373047,-171.2653350830078, -67.02002716064453
609,140750155,0.040834088,0.901741,0.17555507,0.3929074,12.83835506439209,3.2245428562164307,-4.6845383644104,37.24650573730469,-170.70274353027344, -75.37091827392578
610,140766822,0.048760515,0.9080006,0.18483138,0.37282,12.698686599731445,1.757726788520813,-3.1524887084960938,2.164154291152954,-151.75230407714844, -76.59391021728516
611,140783489,0.05292865,0.912578,0.19284254,0.3566679,13.729212760925293,-1.418994426727295,-1.1601028442382812,16.82747459411621,-118.58011627197266, -59.897796630859375
612,140800156,0.052863497,0.91500413,0.20027335,0.34621316,10.49728775024414,-0.20989978313446045,2.230323076248169,33.61777877807617,-72.24388122558594, -46.69748306274414
613,140816823,0.04862918,0.91588175,0.20525587,0.3415642,8.987311363220215,-1.6201074123382568,1.1478606462478638,45.467044830322266,-27.27224349975586, -21.420583724975586
614,140833490,0.037135765,0.91573745,0.2087962,0.34124807,8.029711723327637,-0.14936265349388123,1.4877674579620361,81.32731628417969,12.098479270935059, 4.687933921813965
615,140850157,0.028887095,0.914216,0.2076621,0.34677258,7.357820987701416,3.0642106533050537,1.5999394655227661,41.19528579711914,46.18125915527344, 26.00690269470215
616,140866824,0.02761021,0.91125035,0.20027113,0.35882053,7.607010364532471,3.580063581466675,0.8115741014480591,-27.121644973754883,79.36931610107422, 47.94895553588867
617,140883491,0.029891334,0.90652895,0.18904002,0.37626547,7.661735534667969,2.910414695739746,0.11207205057144165,-66.63211822509766,111.8326644897461, 61.838260650634766
618,140900158,0.030066848,0.8997944,0.17642535,0.39791983,8.125216484069824,1.7333643436431885,-1.0482324361801147,-62.959651947021484,145.68426513671875, 74.15245819091797
619,140916825,0.024530416,0.8909005,0.16385753,0.4229011,8.38238525390625,2.09656023979187,-2.2048683166503906,-31.972583770751953,179.07717895507812, 87.55113220214844
620,140933492,0.016510198,0.87978506,0.15039282,0.45065266,9.002923965454102,3.2591512203216553,-3.126821756362915,-22.863794326782227,205.12828063964844, 98.23511505126953
621,140950159,0.008110822,0.86646926,0.13569684,0.48036623,9.798641204833984,3.281477928161621,-3.9667887687683105,-26.664794921875,224.04849243164062, 104.8199691772461
622,140966826,-0.0015084338,0.8509837,0.120898165,0.51108557,10.509360313415527,3.487664222717285,-4.687814712524414,-20.79597282409668,238.3270721435547, 107.5072250366211
623,140983493,-0.01185783,0.8334593,0.10607025,0.5421755,11.398396492004395,3.5322961807250977,-5.119201183319092,-16.917768478393555,248.2623748779297, 108.5658950805664
624,141000160,-0.02327693,0.81402135,0.09186926,0.57305115,12.072522163391113,3.6025679111480713,-5.58119535446167,-8.145092964172363,254.89944458007812, 107.60716247558594
625,141016827,-0.034944985,0.7928825,0.07873013,0.603256,12.558320045471191,4.109001159667969,-5.949267387390137,-1.8802123069763184,257.8437194824219, 101.70530700683594
626,141033494,-0.045302134,0.7705873,0.06663169,0.63222086,12.601056098937988,4.145511627197266,-6.058237075805664,-3.772994041442871,254.93646240234375, 90.30126953125
627,141050161,-0.054171957,0.7474196,0.05639632,0.659734,12.08486270904541,3.6947078704833984,-6.153153896331787,-2.6268906593322754,249.803466796875, 74.05368041992188
628,141066828,-0.06220496,0.7236041,0.048539206,0.68569076,11.605182647705078,2.915038824081421,-6.439852237701416,4.691971302032471,243.57225036621094, 58.40110397338867
629,141083495,-0.06997929,0.69931346,0.043962646,0.7100218,10.84622859954834,2.304330587387085,-6.904151439666748,19.605934143066406,236.28778076171875, 41.42950439453125
630,141100162,-0.07773918,0.67485476,0.043128207,0.73257613,10.59167766571045,1.878135085105896,-7.458662986755371,38.41249084472656,226.8270263671875, 24.2003231048584
631,141116829,-0.085661925,0.6508208,0.046146285,0.7529708,10.658734321594238,2.5383334159851074,-8.343899726867676,58.97323226928711,212.73611450195312, 8.453370094299316
632,141133496,-0.09119503,0.6290382,0.050098255,0.77037954,10.08267593383789,3.965620994567871,-9.357226371765137,52.71823501586914,186.5015106201172, -5.59023904800415
633,141150163,-0.09203885,0.61205137,0.051013164,0.78378546,7.899802207946777,4.879113674163818,-10.974166870117188,14.692930221557617,144.17616271972656, -13.08824634552002
634,141166830,-0.08811103,0.6033756,0.049133886,0.79105014,4.490761756896973,3.3536148071289062,-14.86644458770752,-23.569826126098633,73.755615234375, -20.19280433654785
635,141183497,-0.0808169,0.6041102,0.045589354,0.7914805,4.968934535980225,3.435392379760742,-15.555706977844238,-49.99972915649414,-5.754891395568848, -24.240406036376953
636,141200164,-0.06964793,0.61169094,0.04086802,0.78696454,4.966722011566162,3.19911527633667,-15.857666969299316,-74.76858520507812,-63.9632682800293, -35.507328033447266
637,141216831,-0.042032603,0.6244853,0.012213349,0.7798091,15.214991569519043,-3.1234235763549805,9.16701602935791,-275.2735900878906,-96.31654357910156, -21.063907623291016
638,141233498,-0.02206778,0.6321963,-0.020058379,0.77423424,19.132549285888672,-12.387455940246582,-2.9528403282165527,-260.4475402832031,-60.6621208190918, 34.60790252685547
639,141250165,-0.021774998,0.6424408,-0.014480438,0.7658892,9.297335624694824,-10.597735404968262,-1.4932208061218262,25.862403869628906,-94.57232666015625, -25.229639053344727
640,141266832,-0.030152034,0.65053517,0.009531606,0.7588176,10.654309272766113,13.02566909790039,-4.569509983062744,161.7090606689453,-81.21728515625, -61.09019470214844
641,141283499,-0.013011537,0.6651701,0.0075991224,0.7465401,15.94813060760498,-0.5923436880111694,-3.9894909858703613,-88.84129333496094,-134.8651580810547, -76.5440673828125
642,141300166,-0.0025994063,0.6770124,0.008536103,0.7359176,10.386160850524902,0.5958962440490723,-2.511058807373047,-43.17134094238281,-112.8101577758789, -55.41414260864258
643,141316833,-0.00073052483,0.6861187,0.01511132,0.72733235,10.07777214050293,0.5484145879745483,-2.379070520401001,25.055864334106445,-89.04928588867188, -38.61994171142578
644,141333500,-0.0012794934,0.6932247,0.023272911,0.7203446,9.614995002746582,0.07496602088212967,-1.8900381326675415,44.23758316040039,-71.23731994628906, -34.229740142822266
645,141350167,-0.0013420237,0.6990666,0.030131856,0.7144203,11.40687370300293,1.1922242641448975,-1.030023455619812,35.30617904663086,-59.95009994506836, -30.649999618530273
646,141366834,0.004994982,0.70439047,0.03167908,0.7090879,10.68713092803955,2.4649319648742676,-0.4406973719596863,-21.661407470703125,-55.828819274902344, -36.66130828857422
647,141383501,0.01605257,0.70900375,0.027977176,0.70446676,10.120829582214355,1.3490629196166992,-0.7286120653152466,-70.29487609863281,-50.13190841674805, -34.36013412475586
648,141400168,0.024028277,0.71284336,0.026467104,0.7004118,11.248457908630371,-1.1040213108062744,-0.870744526386261,-44.8501091003418,-42.793888092041016, -30.188796997070312
649,141416835,0.023835434,0.71589935,0.0330236,0.6970147,9.139429092407227,-0.6687518358230591,-0.844315230846405,33.77897262573242,-32.97349166870117, -30.439851760864258
650,141433502,0.018819915,0.7183025,0.04313688,0.6941376,9.403358459472656,1.7962486743927002,-0.8014737963676453,74.33432006835938,-25.60219955444336, -24.921602249145508
651,141450169,0.01665078,0.7207829,0.049455024,0.691194,10.62497615814209,3.3033335208892822,-0.3768497109413147,42.192893981933594,-27.62664031982422, -19.749988555908203
652,141466836,0.020319853,0.72335356,0.049510892,0.6884007,8.841377258300781,3.153291702270508,-0.1489887237548828,-16.538331985473633,-30.017314910888672, -16.394351959228516
653,141483503,0.02659801,0.7258223,0.045342375,0.68587077,9.156545639038086,1.1498425006866455,-0.18382297456264496,-49.60844421386719,-29.71416473388672, -7.707159042358398
654,141500170,0.031328253,0.72876436,0.04318116,0.6826834,10.343214988708496,-0.07003255188465118,-0.10045276582241058,-32.12263488769531,-34.38750457763672, -10.391617774963379
655,141516837,0.03374327,0.7323102,0.044568647,0.678673,8.974514961242676,0.3297264873981476,0.047276534140110016,-3.490419626235962,-39.905799865722656, -17.31413459777832
656,141533504,0.03423027,0.73636615,0.0478962,0.6740172,9.172285079956055,0.9317679405212402,0.07148148119449615,15.588571548461914,-44.50425720214844, -18.088722229003906
657,141550171,0.034333624,0.7409064,0.051433906,0.6687551,9.742938041687012,1.6804322004318237,-0.20983748137950897,18.822267532348633,-49.652591705322266, -17.363704681396484
658,141566838,0.036962878,0.74589217,0.051895402,0.6630125,9.734835624694824,1.8174666166305542,-0.6143845319747925,8.580037117004395,-53.931217193603516, -15.159905433654785
659,141583505,0.039961297,0.7509997,0.05171726,0.65706027,9.792115211486816,1.1732128858566284,-1.0976444482803345,1.5157709121704102,-56.065982818603516, -13.522112846374512
660,141600172,0.04193195,0.7561077,0.052627977,0.6509787,9.951096534729004,0.9761515259742737,-1.5624712705612183,6.070878982543945,-56.70785140991211, -13.927827835083008
661,141616839,0.04303096,0.7611366,0.054620467,0.6448536,9.945676803588867,1.2794015407562256,-1.722138524055481,8.624881744384766,-56.77143859863281, -14.72032356262207
662,141633506,0.04392453,0.76609284,0.057009928,0.638688,9.827184677124023,1.3699781894683838,-1.6353693008422852,6.353174686431885,-57.124847412109375, -15.034151077270508
663,141650173,0.044369556,0.7711477,0.05989068,0.6322782,9.707816123962402,1.3560645580291748,-1.524205207824707,8.700602531433105,-58.849578857421875, -15.175086975097656
664,141666840,0.044221632,0.77641004,0.063239984,0.62548614,9.649693489074707,1.7359689474105835,-1.5644195079803467,10.72533893585205,-61.891807556152344, -14.282488822937012
665,141683507,0.044030752,0.7819575,0.066544026,0.6182036,9.640915870666504,1.7637118101119995,-1.6380114555358887,10.753340721130371,-65.82022857666016, -13.632160186767578
666,141700174,0.043872416,0.78784513,0.06998198,0.61030966,9.538729667663574,1.404675006866455,-1.7130995988845825,11.88166618347168,-70.52425384521484, -14.412394523620605
667,141716841,0.043649435,0.794205,0.07380283,0.6015701,9.652586936950684,1.4588127136230469,-1.7333483695983887,14.48951530456543,-76.97322845458984, -16.067041397094727
668,141733508,0.043558095,0.8010661,0.077548034,0.5919309,9.84691333770752,1.658713936805725,-1.6436164379119873,15.132569313049316,-83.93460083007812, -16.314531326293945
669,141750175,0.04379307,0.80854386,0.08068513,0.58123064,10.561413764953613,1.5948312282562256,-1.709324836730957,13.204676628112793,-92.43877410888672, -14.590106010437012
670,141766842,0.04383333,0.81696403,0.08229862,0.5691006,12.445015907287598,0.7195681929588318,-1.72030770778656,15.679107666015625,-103.4878921508789, -7.37990665435791
671,141783509,0.044915654,0.8263059,0.08266186,0.5553091,12.902549743652344,1.030184268951416,-1.2043061256408691,6.158931255340576,-117.42105865478516, -4.431724548339844
672,141800176,0.04580588,0.83649576,0.08194762,0.5398719,14.019298553466797,0.10498892515897751,-1.6797102689743042,4.345230579376221,-130.27027893066406, 2.3800041675567627
673,141816843,0.04647951,0.8476617,0.08003458,0.5224023,15.538479804992676,-0.03842910751700401,-0.5372601747512817,2.6009669303894043,-145.88082885742188, 9.96284294128418
674,141833510,0.04681819,0.8593452,0.079313196,0.5030345,14.577013969421387,-0.38858330249786377,0.6257181167602539,10.052462577819824,-158.30052185058594, 3.8675217628479004
675,141850177,0.04495595,0.8713363,0.081098005,0.4818461,13.753180503845215,-0.46495071053504944,1.4741356372833252,32.82659149169922,-168.18727111816406, -3.780876874923706
676,141866844,0.045148626,0.8827511,0.08534935,0.4598126,13.242904663085938,-0.35061994194984436,-0.17977525293827057,28.987030029296875,-171.8033905029297, -25.982746124267578
677,141883511,0.043003462,0.8936249,0.0953264,0.4364609,13.299064636230469,-0.7752916216850281,-3.6748359203338623,61.89128875732422,-175.01470947265625, -54.1033821105957
678,141900178,0.042580787,0.9036789,0.106683254,0.412517,12.528921127319336,5.252172470092773,-3.6044373512268066,55.588958740234375,-176.95957946777344, -68.49575805664062
679,141916845,0.048406933,0.91229725,0.1139097,0.3903783,13.214276313781738,1.8609740734100342,-3.8759913444519043,3.3304405212402344,-167.50657653808594, -61.06737518310547
680,141933512,0.055918884,0.9191063,0.11953544,0.37125227,13.726969718933105,-0.20997126400470734,-2.2931125164031982,-14.490599632263184,-145.65528869628906, -55.98324966430664
681,141950179,0.062100828,0.9236486,0.12417182,0.35720903,11.395609855651855,0.1513403058052063,2.636265993118286,-13.661786079406738,-107.10407257080078, -46.27512741088867
682,141966846,0.06860698,0.9252149,0.12724337,0.35082746,8.346908569335938,-0.06129126623272896,2.6644749641418457,-27.36449432373047,-52.172916412353516, -36.432647705078125
683,141983513,0.06815497,0.9251148,0.12958984,0.35032037,7.735505104064941,-2.579634666442871,2.1230907440185547,9.231141090393066,-5.108765602111816, -13.745375633239746
684,142000180,0.06396189,0.9230589,0.13019995,0.35625732,7.488366603851318,0.9127034544944763,2.5335633754730225,22.173490524291992,43.04514694213867, 7.554970741271973
685,142016847,0.06349937,0.9186257,0.12637337,0.3689507,7.0362725257873535,1.6414759159088135,1.6483176946640015,-19.453575134277344,86.39453887939453, 27.408706665039062
686,142033514,0.063178755,0.91197383,0.11947695,0.38734695,7.5599846839904785,0.14849534630775452,0.3100258409976959,-34.051734924316406,126.52812194824219, 46.995155334472656
687,142050181,0.057755556,0.90319306,0.11230562,0.41023672,8.405783653259277,-0.4509660005569458,-1.0219957828521729,-7.408937454223633,164.405029296875, 62.50142288208008
688,142066848,0.047280468,0.8921369,0.105664715,0.43668228,8.952991485595703,0.5372619032859802,-2.168830156326294,21.801326751708984,196.98431396484375, 73.10472106933594
689,142083515,0.034977544,0.8786137,0.098261416,0.46600375,9.504541397094727,1.682023048400879,-3.2154345512390137,27.825904846191406,223.08921813964844, 82.41584777832031
690,142100182,0.023127664,0.86261123,0.089154184,0.49741197,10.49601936340332,2.378047227859497,-4.1830973625183105,17.614307403564453,242.90811157226562, 90.09920501708984
691,142116849,0.012595916,0.84430516,0.0784854,0.52993435,11.661232948303223,2.438840866088867,-4.77175235748291,3.39639949798584,256.3302001953125, 93.63534545898438
692,142133516,0.0018979183,0.82395744,0.06785324,0.5625714,12.365654945373535,2.3842265605926514,-5.488090515136719,4.246821880340576,264.5234069824219, 92.95337677001953
693,142150183,-0.009640861,0.8018834,0.057836015,0.59459686,12.83806037902832,2.5577216148376465,-6.027933597564697,11.641746520996094,268.1424560546875, 91.92676544189453
