PacketCounter,SampleTimeFine,Quat_W,Quat_X,Quat_Y,Quat_Z,Acc_X,Acc_Y,Acc_Z,Gyr_X,Gyr_Y,Gyr_Z 
1,104906951,0.6607579,0.09180496,-0.7440379,0.037131183,0,0,0,0,0, 0
2,104923618,0.6602618,0.092190616,-0.7444299,0.03714104,9.773796081542969,0.6646655797958374,-1.209922194480896,0.19808223843574524,-3.9718515872955322, 0.26521313190460205
3,104940285,0.6599179,0.092124306,-0.7447552,0.03689546,9.786361694335938,0.6556891202926636,-1.2265996932983398,0.6545901298522949,-4.054746150970459, 0.3354431390762329
4,104956952,0.6595665,0.092173345,-0.74506044,0.03689394,9.809152603149414,0.6470392942428589,-1.2273695468902588,0.8293839693069458,-4.068807601928711, 0.3239173889160156
5,104973619,0.65921706,0.09244182,-0.7453222,0.03717795,9.77000904083252,0.6530987024307251,-1.234161615371704,0.6912291049957275,-4.085609436035156, 0.2951158881187439
6,104990286,0.6588726,0.092636265,-0.7455928,0.03737732,9.784889221191406,0.642833411693573,-1.216277837753296,0.4411212205886841,-4.005276203155518, 0.24125245213508606
7,105006953,0.65856254,0.09273026,-0.7458482,0.037509963,9.786334037780762,0.6521428227424622,-1.2388896942138672,0.4917319118976593,-3.9748353958129883, 0.2143719345331192
8,105023620,0.65825504,0.09252886,-0.7461505,0.037393384,9.770973205566406,0.6463914513587952,-1.2350727319717407,0.6531559228897095,-3.9624006748199463, 0.33406010270118713
9,105040287,0.65793705,0.09264703,-0.7464082,0.037554804,9.762415885925293,0.6641128063201904,-1.2370378971099854,0.6435383558273315,-3.886202573776245, 0.32733675837516785
10,105056954,0.6576187,0.092864916,-0.7466501,0.037782986,9.771932601928711,0.6725208163261414,-1.2318094968795776,0.4481518864631653,-3.8375000953674316, 0.3812515139579773
11,105073621,0.6573145,0.09301231,-0.746893,0.03791262,9.78129768371582,0.6445135474205017,-1.2439392805099487,0.5724375247955322,-3.7742366790771484, 0.2919143736362457
12,105090288,0.6569946,0.093305364,-0.7471239,0.038187042,9.775230407714844,0.6461958885192871,-1.2473115921020508,0.7377419471740723,-3.796468496322632, 0.31409499049186707
13,105106955,0.65668035,0.09349702,-0.7473673,0.03836104,9.784757614135742,0.6628400683403015,-1.2384787797927856,0.7748419046401978,-3.7625062465667725, 0.2307896614074707
14,105123622,0.6563826,0.0936815,-0.74759805,0.038508497,9.773355484008789,0.659675121307373,-1.2418432235717773,0.6566264033317566,-3.6467106342315674, 0.16695000231266022
15,105140289,0.65608627,0.09377541,-0.74784267,0.038582057,9.783331871032715,0.654018759727478,-1.2391353845596313,0.7141269445419312,-3.667059898376465, 0.21065807342529297
16,105156956,0.6558008,0.09391092,-0.74807024,0.038692586,9.785834312438965,0.6553487777709961,-1.257622480392456,0.6952502727508545,-3.555144786834717, 0.201693594455719
17,105173623,0.6555225,0.094096445,-0.7482824,0.03885395,9.777612686157227,0.6787478923797607,-1.2522430419921875,0.5526644587516785,-3.4397852420806885, 0.25031930208206177
18,105190290,0.6552396,0.09456188,-0.74845004,0.03926585,9.782025337219238,0.6621893644332886,-1.2419546842575073,0.47582629323005676,-3.336233377456665, 0.3250315487384796
19,105206957,0.65496635,0.094698645,-0.7486656,0.039386105,9.762600898742676,0.6559059023857117,-1.2434442043304443,0.4147144556045532,-3.4154789447784424, 0.32558220624923706
20,105223624,0.65468776,0.094843715,-0.74888414,0.0395136,9.761224746704102,0.6779721975326538,-1.2435551881790161,0.5331603288650513,-3.4497742652893066, 0.3090364336967468
21,105240291,0.65439844,0.09494049,-0.7491217,0.039570175,9.76246452331543,0.6557246446609497,-1.2225444316864014,0.31221243739128113,-3.598828077316284, 0.22760087251663208
22,105256958,0.65410215,0.09508952,-0.7493553,0.039689492,9.776908874511719,0.638721227645874,-1.2283190488815308,0.6531686782836914,-3.6274495124816895, 0.26459839940071106
23,105273625,0.6537932,0.09539184,-0.74957246,0.0399511,9.774341583251953,0.6395273208618164,-1.2414528131484985,0.8727462887763977,-3.661015272140503, 0.2570682466030121
24,105290292,0.65347284,0.09566661,-0.7498053,0.04016818,9.77859115600586,0.6568136215209961,-1.2655240297317505,1.0076099634170532,-3.779294729232788, 0.12559829652309418
25,105306959,0.65315807,0.09582966,-0.7500521,0.040289644,9.779656410217285,0.6725720167160034,-1.2609121799468994,0.7641230225563049,-3.7742366790771484, 0.17056140303611755
26,105323626,0.6528281,0.09614142,-0.7502864,0.040532332,9.787799835205078,0.6674745082855225,-1.260562777519226,0.6311931014060974,-3.8398821353912354, 0.16691160202026367
27,105340293,0.65251493,0.096275255,-0.7505373,0.04061194,9.77413272857666,0.6552009582519531,-1.234598159790039,0.4101170003414154,-3.785275936126709, 0.155501127243042
28,105356960,0.652218,0.09609372,-0.7508295,0.040409297,9.770110130310059,0.6506261825561523,-1.2531962394714355,0.39789968729019165,-3.8081605434417725, 0.11199793219566345
29,105373627,0.6518921,0.09636868,-0.7510671,0.04059785,9.777229309082031,0.6683893799781799,-1.2427575588226318,0.3012502193450928,-3.8531112670898438, 0.09528566151857376
30,105390294,0.65157413,0.09658053,-0.7513091,0.04072095,9.781624794006348,0.6574149131774902,-1.246504545211792,0.38934507966041565,-3.81748366355896, 0.028769470751285553
31,105406961,0.65126264,0.096661955,-0.7515677,0.040740076,9.776684761047363,0.6725487112998962,-1.2481789588928223,0.16400453448295593,-3.8353357315063477, 0.10813041776418686
32,105423628,0.65093803,0.09696405,-0.751799,0.040942203,9.773826599121094,0.6461096405982971,-1.2668472528457642,0.09149497747421265,-3.8565049171447754, 0.08496374636888504
33,105440295,0.65062207,0.097161435,-0.75204116,0.04104805,9.768146514892578,0.6843887567520142,-1.2582465410232544,0.26010337471961975,-3.815063238143921, 0.019433636218309402
34,105456962,0.6502843,0.097531505,-0.7522713,0.041304555,9.760113716125488,0.675757884979248,-1.2410399913787842,0.180691197514534,-3.9294111728668213, 0.061707403510808945
35,105473629,0.64995897,0.09773887,-0.7525177,0.041444678,9.775830268859863,0.6812084317207336,-1.2306876182556152,0.3109702169895172,-3.88131046295166, 0.17177800834178925
36,105490296,0.6496477,0.09774458,-0.75278884,0.04138807,9.78507137298584,0.6573541164398193,-1.2384718656539917,0.20410121977329254,-3.8860490322113037, 0.07444972544908524
37,105506963,0.64931107,0.09826259,-0.7529904,0.041774657,9.771463394165039,0.6659738421440125,-1.2619459629058838,0.16561812162399292,-3.8695285320281982, 0.07982838153839111
38,105523630,0.6489937,0.098555386,-0.75321597,0.041952368,9.753128051757812,0.69171541929245,-1.263758659362793,0.21316811442375183,-3.8109142780303955, -0.008055195212364197
39,105540297,0.6486868,0.09887255,-0.75342757,0.042150486,9.746438980102539,0.7050230503082275,-1.2742246389389038,-0.2051321119070053,-3.728261709213257, 0.05260208621621132
40,105556964,0.6483737,0.09911271,-0.7536572,0.042298917,9.755727767944336,0.6738170385360718,-1.286020040512085,0.15619264543056488,-3.787529468536377, 0.1064399853348732
41,105573631,0.64807814,0.09921195,-0.753897,0.04232182,9.783753395080566,0.6647306680679321,-1.2570669651031494,0.32851487398147583,-3.684527635574341, 0.04612206667661667
42,105590298,0.6477717,0.09946433,-0.75411874,0.042470254,9.774224281311035,0.6653464436531067,-1.2885994911193848,0.4212456941604614,-3.707758903503418, -0.000883638218510896
43,105606965,0.64746994,0.09984613,-0.75431365,0.042713195,9.753190040588379,0.6764222979545593,-1.2969211339950562,0.13964684307575226,-3.6228270530700684, -0.055566754192113876
44,105623632,0.6471875,0.10017226,-0.7545011,0.04291786,9.749401092529297,0.6843365430831909,-1.2840659618377686,0.1688581109046936,-3.4634130001068115, -0.022667236626148224
45,105640299,0.6469294,0.10022655,-0.754715,0.04292184,9.772894859313965,0.6928368210792542,-1.274524211883545,0.34873610734939575,-3.3507301807403564, 0.11162654310464859
46,105656966,0.64669645,0.10032222,-0.75489867,0.042980444,9.759954452514648,0.6768546104431152,-1.2923134565353394,0.3265683650970459,-3.0948851108551025, 0.19261394441127777
47,105673633,0.6464385,0.10093508,-0.75500774,0.04351003,9.751975059509277,0.6971845030784607,-1.2948875427246094,0.39855286478996277,-3.0308659076690674, 0.3270549774169922
48,105690300,0.64621,0.10106493,-0.7551791,0.043623917,9.75532054901123,0.6956110596656799,-1.2737408876419067,0.3752324879169464,-3.0129759311676025, 0.3208311200141907
49,105706967,0.64597106,0.10139914,-0.7553222,0.04391093,9.77602767944336,0.6808674931526184,-1.2652782201766968,0.24011269211769104,-3.017406940460205, 0.33774828910827637
50,105723634,0.6457486,0.101438545,-0.7555069,0.04391357,9.781562805175781,0.6691482067108154,-1.2811394929885864,0.47061416506767273,-3.033952236175537, 0.1331796497106552
51,105740301,0.64550984,0.10187215,-0.75563234,0.044261787,9.791979789733887,0.6791917681694031,-1.2672187089920044,0.7532631754875183,-2.954489231109619, 0.12413835525512695
52,105756968,0.6453005,0.101826824,-0.75582016,0.044211753,9.783369064331055,0.7117125391960144,-1.2747430801391602,0.6248410940170288,-2.9499688148498535, 0.20051544904708862
53,105773635,0.64509964,0.1019681,-0.7559652,0.044337947,9.77672290802002,0.6903374791145325,-1.2971223592758179,0.6004961133003235,-2.771550178527832, 0.2776736617088318
54,105790302,0.64490473,0.10217439,-0.7560907,0.044553827,9.793275833129883,0.7135112285614014,-1.2942602634429932,0.8279752731323242,-2.648494005203247, 0.4140997529029846
55,105806969,0.6447467,0.10229009,-0.7561996,0.044727784,9.784489631652832,0.6786248087882996,-1.2771865129470825,1.0665702819824219,-2.329756498336792, 0.535657525062561
56,105823636,0.6446054,0.102529354,-0.7562687,0.045046676,9.769546508789062,0.6833733916282654,-1.3106422424316406,1.5763274431228638,-2.061899185180664, 0.636174738407135
57,105840303,0.644495,0.10274338,-0.7563142,0.045372557,9.748641014099121,0.7168940901756287,-1.2889268398284912,1.6746158599853516,-1.771079659461975, 0.7406360507011414
58,105856970,0.64443296,0.102903284,-0.7563253,0.045704965,9.749366760253906,0.7145832777023315,-1.2605000734329224,1.2127420902252197,-1.3647087812423706, 1.0574523210525513
59,105873637,0.64441,0.102948554,-0.75632125,0.045995157,9.773372650146484,0.6918538808822632,-1.2637412548065186,1.3146294355392456,-1.0409386157989502, 1.30635666847229
60,105890304,0.644411,0.10324482,-0.7562461,0.046549857,9.80178451538086,0.6401292681694031,-1.3101311922073364,2.0205283164978027,-0.6159341931343079, 1.418232798576355
61,105906971,0.64447325,0.10347445,-0.75613016,0.047059096,9.81321907043457,0.6484066247940063,-1.3105913400650024,2.7736823558807373,-0.04495028778910637, 1.2879794836044312
62,105923638,0.6446004,0.10393165,-0.75591445,0.04776987,9.819881439208984,0.6437029242515564,-1.2871980667114258,2.504518747329712,0.658534586429596, 1.291757345199585
63,105940305,0.64479196,0.10435117,-0.7556512,0.048430044,9.794303894042969,0.6667229533195496,-1.2579094171524048,2.079552412033081,1.1786644458770752, 1.197758674621582
64,105956972,0.6450237,0.1045585,-0.7553941,0.048904784,9.778733253479004,0.6641867160797119,-1.2318490743637085,1.2701913118362427,1.3619489669799805, 1.2823318243026733
65,105973639,0.6452638,0.10477674,-0.7551301,0.049347084,9.782079696655273,0.6570820808410645,-1.1572136878967285,0.7463028430938721,1.3760806322097778, 1.140674352645874
66,105990306,0.6454718,0.10507895,-0.75487924,0.04982042,9.774333953857422,0.6397134065628052,-1.1459778547286987,0.908488929271698,1.104233980178833, 0.9268404841423035
67,106006973,0.6456302,0.10555503,-0.7546401,0.05038063,9.780720710754395,0.6296808123588562,-1.108992576599121,0.8562389016151428,0.7012181282043457, 0.6488017439842224
68,106023640,0.6457755,0.1055682,-0.754507,0.050484385,9.77970027923584,0.6423082947731018,-1.0885009765625,0.3931741416454315,0.21531955897808075, 0.44962453842163086
69,106040307,0.6458643,0.10588797,-0.75436383,0.050817054,9.77903938293457,0.6651601195335388,-1.0920912027359009,-0.11115910857915878,-0.18302834033966064, 0.39351987838745117
70,106056974,0.6459241,0.10597746,-0.75429535,0.05088589,9.769112586975098,0.6598168015480042,-1.0611357688903809,-0.8395330309867859,-0.6952823400497437, 0.210773304104805
71,106073641,0.64595187,0.10607914,-0.75425404,0.05093529,9.741009712219238,0.6752416491508484,-1.0781357288360596,-1.071916937828064,-1.0350219011306763, 0.12639226019382477
72,106090308,0.64593846,0.10612947,-0.75426,0.05091165,9.743745803833008,0.6865262389183044,-1.0679218769073486,-1.3182727098464966,-1.4923495054244995, 0.06476811319589615
73,106106975,0.64587456,0.106278546,-0.7542916,0.05094485,9.760300636291504,0.6992009282112122,-1.0716551542282104,-1.490236520767212,-1.937588095664978, -0.001716050785034895
74,106123642,0.6457664,0.10631823,-0.7543848,0.050851632,9.798636436462402,0.6503872871398926,-1.0541878938674927,-2.1527090072631836,-2.4866600036621094, -0.005263409577310085
75,106140309,0.64560634,0.10647861,-0.75450134,0.050818864,9.78682804107666,0.6280985474586487,-1.074067234992981,-1.8517085313796997,-2.9147250652313232, -0.23281943798065186
76,106156976,0.6454213,0.1066058,-0.75464815,0.05072287,9.785005569458008,0.6437745094299316,-1.077581763267517,-1.5242629051208496,-3.183107614517212, -0.44192150235176086
77,106173643,0.64520967,0.10682438,-0.7547995,0.050704736,9.785896301269531,0.656883180141449,-1.1059774160385132,-1.3369061946868896,-3.374985694885254, -0.4527813494205475
78,106190310,0.64498544,0.10706481,-0.7549564,0.050712533,9.759092330932617,0.6819779276847839,-1.0934168100357056,-0.8594598174095154,-3.4556145668029785, -0.4802253246307373
79,106206977,0.64474785,0.107376635,-0.7551103,0.05078247,9.758803367614746,0.7132008671760559,-1.1208946704864502,-0.6092620491981506,-3.5343985557556152, -0.5020857453346252
80,106223644,0.6445059,0.10765463,-0.75527424,0.05082812,9.746033668518066,0.7048004269599915,-1.1288248300552368,-0.5869662165641785,-3.6042187213897705, -0.4671627879142761
81,106240311,0.64426327,0.107928656,-0.7554395,0.0508678,9.753517150878906,0.6811997294425964,-1.1125798225402832,-0.4706590175628662,-3.6209826469421387, -0.49319809675216675
82,106256978,0.6440214,0.10819108,-0.75560576,0.050903376,9.796142578125,0.6913738250732422,-1.126295566558838,-0.43396881222724915,-3.6304337978363037, -0.4657669961452484
83,106273645,0.64377284,0.10853545,-0.7557618,0.050996896,9.790242195129395,0.6909899711608887,-1.1159380674362183,-0.00932302325963974,-3.6390655040740967, -0.5943299531936646
84,106290312,0.6435466,0.10884678,-0.75590235,0.051108543,9.788775444030762,0.7214068174362183,-1.122820258140564,0.15363138914108276,-3.432819128036499, -0.3962540924549103
85,106306979,0.6433328,0.10918356,-0.7560251,0.05126635,9.793588638305664,0.711532711982727,-1.1525150537490845,0.40053775906562805,-3.287799596786499, -0.31804564595222473
86,106323646,0.6431512,0.10951917,-0.75611705,0.051471706,9.80306339263916,0.7174334526062012,-1.1505054235458374,0.6563446521759033,-2.962480068206787, -0.13542714715003967
87,106340313,0.6430048,0.1098523,-0.7561768,0.051710926,9.779336929321289,0.7090638875961304,-1.16786527633667,0.8337638974189758,-2.626607894897461, -0.008874800056219101
88,106356980,0.6429,0.11014849,-0.7562072,0.05193862,9.76965618133545,0.7281701564788818,-1.1569263935089111,0.7417886257171631,-2.2806830406188965, 0.07383501529693604
89,106373647,0.6428229,0.11041553,-0.75621825,0.052165385,9.766324996948242,0.7238266468048096,-1.128747582435608,0.6480845808982849,-2.052729845046997, 0.19338229298591614
90,106390314,0.6427585,0.11070717,-0.75621325,0.052414406,9.772270202636719,0.7257444858551025,-1.1038146018981934,0.801555871963501,-1.9316073656082153, 0.16403013467788696
91,106406981,0.64268833,0.11101327,-0.75620735,0.052709688,9.780601501464844,0.7084155082702637,-1.1081920862197876,1.2039185762405396,-1.9415194988250732, 0.284025639295578
92,106423648,0.6426153,0.11138211,-0.75618875,0.05308664,9.7885160446167,0.7076916098594666,-1.0833079814910889,1.4943921566009521,-1.9087352752685547, 0.38598981499671936
93,106440315,0.6425525,0.11172064,-0.7561668,0.053447817,9.77670955657959,0.7029359340667725,-1.1156061887741089,1.654049038887024,-1.8395426273345947, 0.40617260336875916
94,106456982,0.64249194,0.11204115,-0.75614625,0.05379418,9.811554908752441,0.7175681591033936,-1.0880155563354492,1.2337573766708374,-1.8754645586013794, 0.48326683044433594
95,106473649,0.64245546,0.11234909,-0.7561089,0.054112945,9.785789489746094,0.695331871509552,-1.0844135284423828,0.9339221715927124,-1.7206610441207886, 0.42472895979881287
96,106490316,0.6424222,0.11264512,-0.7560672,0.054471523,9.80620288848877,0.6951588988304138,-1.096389651298523,1.0947316884994507,-1.6716641187667847, 0.660020112991333
97,106506983,0.6424013,0.112952106,-0.7560128,0.054836914,9.788908958435059,0.705743134021759,-1.0780103206634521,1.3134514093399048,-1.5623877048492432, 0.5974738597869873
98,106523650,0.6423881,0.11324821,-0.75595397,0.055192523,9.81175422668457,0.7013904452323914,-1.0809807777404785,1.4057081937789917,-1.5166305303573608, 0.575024425983429
99,106540317,0.64239454,0.11352447,-0.75588197,0.055534683,9.805288314819336,0.6920817494392395,-1.0476324558258057,1.1287964582443237,-1.3889381885528564, 0.6233426332473755
100,106556984,0.6424077,0.11380484,-0.75580317,0.055880103,9.797725677490234,0.6809220910072327,-1.0838186740875244,1.0415853261947632,-1.3551039695739746, 0.6317693591117859
101,106573651,0.642431,0.11405068,-0.75572395,0.056179993,9.783916473388672,0.6767194867134094,-1.0756902694702148,1.0322879552841187,-1.3211671113967896, 0.5417534112930298
102,106590318,0.64245176,0.11430886,-0.75564486,0.05648211,9.788996696472168,0.7208951711654663,-1.0297951698303223,0.9047111868858337,-1.3728536367416382, 0.5238245725631714
103,106606985,0.6424726,0.11459801,-0.75556004,0.056792367,9.773422241210938,0.689403772354126,-1.0162571668624878,0.7385101914405823,-1.4000797271728516, 0.45919090509414673
104,106623652,0.642462,0.11487909,-0.75550514,0.057074472,9.784470558166504,0.7138921618461609,-0.9910549521446228,0.7506505846977234,-1.7292286157608032, 0.3847987651824951
105,106640319,0.64243436,0.115158066,-0.7554682,0.05731094,9.76530647277832,0.7021867036819458,-1.0107065439224243,0.5482975244522095,-1.9592177867889404, 0.2137443721294403
106,106656986,0.6423871,0.115453355,-0.75544566,0.05754371,9.771728515625,0.6906803250312805,-1.0164839029312134,0.5757030844688416,-2.162877321243286, 0.1422337293624878
107,106673653,0.6423088,0.115759246,-0.75544816,0.05777231,9.767589569091797,0.69061678647995,-0.9836438894271851,0.5941826105117798,-2.469768524169922, 0.10820724815130234
108,106690320,0.64221627,0.11607078,-0.7554621,0.05799049,9.769217491149902,0.7275758981704712,-1.0060720443725586,0.6179256439208984,-2.630373001098633, 0.04336870461702347
109,106706987,0.64212096,0.11634134,-0.7554863,0.058187608,9.79931926727295,0.7191163897514343,-1.0038827657699585,0.12409992516040802,-2.7295711040496826, 0.2133345752954483
110,106723654,0.6420104,0.11660107,-0.7555291,0.05833422,9.77761173248291,0.6896138191223145,-0.993144690990448,-0.031951840966939926,-2.945486068725586, 0.04754357039928436
111,106740321,0.641887,0.116869584,-0.7555817,0.058470972,9.7881441116333,0.7083739638328552,-1.002507209777832,-0.14960378408432007,-3.1028764247894287, -0.006018985062837601
112,106756988,0.6417289,0.117137805,-0.75566477,0.058597043,9.818124771118164,0.7025519013404846,-0.9769605398178101,-0.07359809428453445,-3.445676326751709, -0.028750253841280937
113,106773655,0.64157265,0.117383376,-0.75575036,0.058711827,9.826542854309082,0.6810078024864197,-0.9622891545295715,-0.22283048927783966,-3.4765396118164062, 0.04242103174328804
114,106790322,0.64141035,0.11765389,-0.7558346,0.058861595,9.823830604553223,0.6807578206062317,-0.998569667339325,-0.01228128932416439,-3.5202481746673584, 0.08575772494077682
115,106806989,0.64124644,0.11790799,-0.75592417,0.058986764,9.80794620513916,0.6794219613075256,-1.016095757484436,-0.11498822271823883,-3.5883522033691406, 0.052832599729299545
116,106823656,0.64109397,0.11819994,-0.7559948,0.05915384,9.806883811950684,0.7258474230766296,-1.0177795886993408,-0.18192702531814575,-3.482264518737793, 0.10136866569519043
117,106840323,0.6409757,0.11843817,-0.7560491,0.05926578,9.807032585144043,0.7085508704185486,-1.0358374118804932,-0.3557731807231903,-3.259279727935791, 0.051462311297655106
118,106856990,0.640865,0.11869567,-0.7560917,0.05940249,9.796537399291992,0.7114113569259644,-1.0450286865234375,-0.29736343026161194,-3.192891836166382, 0.07880386710166931
119,106873657,0.6407796,0.11891003,-0.756121,0.059523195,9.80317211151123,0.7073425054550171,-1.042800784111023,-0.3147929012775421,-3.0060603618621826, 0.16802571713924408
120,106890324,0.64072156,0.11915496,-0.7561211,0.059658814,9.800122261047363,0.7222416996955872,-1.0323808193206787,-0.4644095003604889,-2.7839596271514893, 0.10454463958740234
121,106906991,0.64065766,0.11936869,-0.7561333,0.059760496,9.793047904968262,0.7357708811759949,-1.0163805484771729,-0.5492643713951111,-2.8952338695526123, 0.09410746395587921
122,106923658,0.64059234,0.11960233,-0.75614417,0.059856746,9.788349151611328,0.709475040435791,-0.9992144107818604,-0.369463175535202,-2.92911958694458, -0.0493684783577919
123,106940325,0.6404997,0.11988633,-0.75616544,0.060011297,9.796537399291992,0.7058078646659851,-1.016265630722046,0.02980678156018257,-3.127502918243408, -0.0058653089217841625
124,106956992,0.64039284,0.12021448,-0.7561888,0.06019929,9.80353832244873,0.7016391158103943,-1.0161586999893188,0.3143254518508911,-3.234435558319092, -0.06053561344742775
125,106973659,0.6402797,0.120548554,-0.7562168,0.060382463,9.80544376373291,0.7259247303009033,-1.0277690887451172,0.5093020796775818,-3.30891752243042, -0.1364900767803192
126,106990326,0.64018977,0.120856404,-0.756228,0.06058192,9.80394458770752,0.7171394228935242,-1.0451236963272095,0.33659571409225464,-3.125953197479248, 0.07570473849773407
127,107006993,0.64011467,0.121136814,-0.7562325,0.06075815,9.79812240600586,0.7295740842819214,-1.0535695552825928,0.12660999596118927,-3.048884868621826, 0.10085642337799072
128,107023660,0.64007306,0.12139095,-0.7562126,0.060937364,9.789813041687012,0.7263321876525879,-1.031245231628418,-0.06382684409618378,-2.784010648727417, 0.2335173636674881
129,107040327,0.6400541,0.121610634,-0.75617915,0.06111349,9.776153564453125,0.7608625888824463,-1.0148662328720093,-0.14786210656166077,-2.6145570278167725, 0.3652050793170929
130,107056994,0.6400144,0.12183331,-0.75616276,0.061287563,9.759730339050293,0.7627265453338623,-0.9985392689704895,-0.3168290853500366,-2.839679718017578, 0.4019336700439453
131,107073661,0.639936,0.12207578,-0.75617707,0.06144771,9.752440452575684,0.7451125979423523,-1.0035722255706787,-0.0739438608288765,-3.2093353271484375, 0.24949969351291656
132,107090328,0.63982296,0.12237754,-0.7562103,0.061613847,9.75436782836914,0.7074217796325684,-1.0372010469436646,0.3478908836841583,-3.5128071308135986, -0.01550848875194788
133,107106995,0.6396708,0.1227282,-0.7562691,0.06177878,9.76894760131836,0.7356954216957092,-1.043009638786316,0.5261169075965881,-3.8789029121398926, -0.22435447573661804
134,107123662,0.6395053,0.123050645,-0.75635,0.061856583,9.784435272216797,0.7407981157302856,-1.03436279296875,0.11543002724647522,-4.120954990386963, -0.46059316396713257
135,107140329,0.63929963,0.12338139,-0.75646615,0.061905384,9.776243209838867,0.7379001975059509,-1.002665638923645,-0.13867996633052826,-4.549686908721924, -0.5511725544929504
136,107156996,0.6390526,0.12372506,-0.75661457,0.06195549,9.759922981262207,0.7365360856056213,-0.9854069352149963,0.12375415861606598,-4.927115440368652, -0.5944964289665222
137,107173663,0.6387461,0.12408309,-0.75681263,0.061979737,9.785048484802246,0.7103818655014038,-0.9367755651473999,0.15555234253406525,-5.506884574890137, -0.7234691381454468
138,107190330,0.6383727,0.124458626,-0.75706756,0.061960723,9.806231498718262,0.6762586236000061,-0.8736453056335449,0.20746928453445435,-6.171252727508545, -0.9547519087791443
139,107206997,0.63805544,0.124697745,-0.75730765,0.06181611,9.89240550994873,0.6664348840713501,-0.8857992887496948,-1.1799129247665405,-5.906711578369141, -0.8160974383354187
140,107223664,0.6377143,0.12506285,-0.757538,0.061775073,9.8594970703125,0.6376309394836426,-1.051629900932312,-0.038406241685152054,-5.989645004272461, -1.0217417478561401
141,107240331,0.6374743,0.12545648,-0.75767493,0.0617736,9.778610229492188,0.7253502607345581,-1.1347780227661133,-0.37245991826057434,-5.100820541381836, -1.0104851722717285
142,107256998,0.6373532,0.12564147,-0.75776196,0.061580066,9.809903144836426,0.8196998834609985,-1.096723198890686,-1.761846661567688,-4.319582462310791, -0.9681473970413208
143,107273665,0.6373245,0.1256359,-0.7578184,0.061192222,9.735939979553223,0.8233628869056702,-1.123833179473877,-3.748457431793213,-3.820723295211792, -0.8730089068412781
144,107290332,0.63729507,0.12551177,-0.75790995,0.06061636,9.741013526916504,0.8227720856666565,-1.0365338325500488,-5.560570240020752,-4.13377571105957, -0.9885480403900146
145,107306999,0.63717455,0.1254989,-0.7580631,0.059992325,9.748417854309082,0.7177713513374329,-1.0126316547393799,-5.223494052886963,-4.990891933441162, -1.6923084259033203
146,107323666,0.63692015,0.12576336,-0.75827116,0.059509605,9.757109642028809,0.6462249755859375,-1.0090502500534058,-2.941798686981201,-5.934860706329346, -2.4616243839263916
147,107340333,0.63661885,0.12599269,-0.75852984,0.058947265,9.850963592529297,0.6713349223136902,-0.9441784620285034,-2.462405204772949,-6.411372184753418, -2.7613184452056885
148,107357000,0.6362452,0.12642965,-0.75880486,0.05850691,9.853904724121094,0.6490097641944885,-1.0178000926971436,-1.2970399856567383,-6.905120372772217, -3.1909968852996826
149,107373667,0.6358063,0.12702902,-0.75909907,0.058160186,9.820676803588867,0.7676646709442139,-1.0555154085159302,-0.4411660432815552,-7.373128890991211, -3.5187501907348633
150,107390334,0.6353218,0.12768826,-0.7594237,0.057772588,9.806891441345215,0.7434372901916504,-1.1185274124145508,-0.37135860323905945,-7.832979679107666, -3.9621572494506836
151,107407001,0.63481873,0.1284358,-0.7597458,0.057411827,9.798372268676758,0.7852789759635925,-1.148123860359192,0.4657606780529022,-7.932549476623535, -4.357490062713623
152,107423668,0.63433063,0.12928076,-0.7600366,0.057062093,9.764735221862793,0.7812426090240479,-1.1750414371490479,0.6625942587852478,-7.7917046546936035, -4.795069694519043
153,107440335,0.6338454,0.1300243,-0.7603506,0.056576297,9.788959503173828,0.8964440822601318,-1.1290979385375977,0.4563479423522949,-7.905579566955566, -5.023303985595703
154,107457002,0.6333939,0.13058639,-0.760682,0.055880237,9.799798011779785,0.8318972587585449,-1.0520923137664795,-1.8026732206344604,-7.975180625915527, -4.9189839363098145
155,107473669,0.6328565,0.1310923,-0.76109606,0.055141278,9.885736465454102,0.6594743728637695,-0.9004490375518799,-2.816654920578003,-8.881820678710938, -4.588490962982178
156,107490336,0.6322116,0.13165212,-0.7615869,0.054420356,9.842903137207031,0.7301040291786194,-0.8200205564498901,-1.6802194118499756,-9.762310028076172, -4.841314315795898
157,107507003,0.6314306,0.13251975,-0.76211196,0.054031078,9.778792381286621,0.7270500659942627,-1.0418152809143066,1.7100900411605835,-10.467453002929688, -4.979059219360352
158,107523670,0.6304696,0.1338965,-0.76266813,0.05401152,9.747786521911621,0.867415189743042,-1.171151876449585,5.82961368560791,-11.447270393371582, -5.915217876434326
159,107540337,0.6294451,0.13534985,-0.76325977,0.053982656,9.774124145507812,1.0423368215560913,-1.3055506944656372,5.854561805725098,-12.023480415344238, -6.2342634201049805
160,107557004,0.6284403,0.13650498,-0.7639038,0.053668752,9.808242797851562,1.1005144119262695,-1.3874762058258057,4.437614440917969,-12.191819190979004, -6.141135215759277
161,107573671,0.62755096,0.1374969,-0.76449007,0.053191803,9.792640686035156,1.087988018989563,-1.4265114068984985,2.030479907989502,-11.51428508758545, -5.914078235626221
162,107590338,0.62682945,0.13825956,-0.76498324,0.052630264,9.788285255432129,0.9751936197280884,-1.4593164920806885,2.314229965209961,-10.065897941589355, -5.6071600914001465
163,107607005,0.6262286,0.13915409,-0.7653403,0.052233987,9.899561882019043,0.9438307285308838,-1.2953283786773682,2.471453905105591,-8.863509178161621, -5.501047611236572
164,107623672,0.62568533,0.14023064,-0.7656089,0.051927187,9.846596717834473,0.9091224074363708,-1.3117263317108154,3.489827871322632,-8.205108642578125, -6.1349873542785645
165,107640339,0.62511814,0.14135964,-0.7658836,0.05164538,9.85762882232666,0.9977908730506897,-1.2763627767562866,4.317912578582764,-8.331366539001465, -6.390486240386963
166,107657006,0.6246298,0.14225237,-0.76615053,0.051142585,9.767834663391113,1.0500247478485107,-1.3606518507003784,3.5584053993225098,-7.886767387390137, -6.462098598480225
167,107673673,0.624196,0.14331374,-0.76631826,0.05096171,9.764607429504395,1.1409499645233154,-1.4949413537979126,5.361720085144043,-6.998903274536133, -5.949678897857666
168,107690340,0.6238889,0.1443959,-0.7663709,0.050874647,9.65921401977539,1.1912120580673218,-1.682145595550537,4.771731376647949,-5.879333019256592, -5.564245223999023
169,107707007,0.6237431,0.14524512,-0.76634055,0.050703127,9.636202812194824,1.2850006818771362,-1.6603838205337524,3.6393797397613525,-4.6294450759887695, -4.927730560302734
170,107723674,0.6237336,0.14598219,-0.76622057,0.050515004,9.562578201293945,1.2410069704055786,-1.6436941623687744,2.8227953910827637,-3.5227713584899902, -4.498013496398926
171,107740341,0.62373835,0.14669621,-0.7660835,0.050466638,9.514426231384277,1.3280965089797974,-1.5916378498077393,3.6079134941101074,-3.212306261062622, -3.822362184524536
172,107757008,0.6237284,0.14734279,-0.76597536,0.05034821,9.504640579223633,1.3862545490264893,-1.5126609802246094,2.391451358795166,-3.5291101932525635, -3.5912721157073975
173,107773675,0.6237007,0.14768817,-0.7659565,0.049966156,9.501716613769531,1.388091802597046,-1.4643568992614746,0.49134764075279236,-4.090937614440918, -3.197732925415039
174,107790342,0.6236536,0.14800334,-0.76595736,0.04960613,9.519925117492676,1.3577910661697388,-1.4599839448928833,-0.2308344691991806,-4.33831787109375, -2.740777015686035
175,107807009,0.62358207,0.14817262,-0.76601,0.04918428,9.539740562438965,1.3239836692810059,-1.4958709478378296,-0.3116553723812103,-4.618316173553467, -2.356868028640747
176,107823676,0.6234846,0.1483134,-0.76608783,0.048781846,9.520549774169922,1.3366520404815674,-1.514801025390625,-0.4995116889476776,-4.866361618041992, -2.037631034851074
177,107840343,0.62336856,0.14848419,-0.7661701,0.04845328,9.554306983947754,1.2927331924438477,-1.4563333988189697,-0.26171058416366577,-4.962346076965332, -1.7914930582046509
178,107857010,0.6232648,0.1486924,-0.7662292,0.048214912,9.6133394241333,1.2548214197158813,-1.4296817779541016,0.4564119279384613,-4.722405433654785, -1.642632246017456
179,107873677,0.6232112,0.14895165,-0.76623344,0.04803811,9.625934600830078,1.210832953453064,-1.512848973274231,0.9921911954879761,-4.19146728515625, -1.7215193510055542
180,107890344,0.6231979,0.14921527,-0.76620513,0.047842983,9.617499351501465,1.2408993244171143,-1.5764288902282715,0.9362275004386902,-3.865135908126831, -1.8799850940704346
181,107907011,0.62318176,0.14959876,-0.7661518,0.047709007,9.608487129211426,1.2137101888656616,-1.610021948814392,1.356186032295227,-3.8071744441986084, -2.1748640537261963
182,107923678,0.62312585,0.15006709,-0.76611334,0.047588844,9.503266334533691,1.26902437210083,-1.6442495584487915,2.2257628440856934,-4.051365375518799, -2.622190237045288
183,107940345,0.6229499,0.15066797,-0.7661459,0.047466293,9.386516571044922,1.233957290649414,-1.5889419317245483,2.7799196243286133,-5.048673629760742, -3.1895625591278076
184,107957012,0.62257063,0.15139264,-0.7663188,0.047347553,9.369146347045898,1.3316630125045776,-1.3778252601623535,3.764446496963501,-6.729008197784424, -3.6705949306488037
185,107973679,0.6219084,0.15237091,-0.76666164,0.047360007,9.398371696472168,1.1981158256530762,-1.3147953748703003,5.8359904289245605,-8.902158737182617, -4.1795973777771
186,107990346,0.6210624,0.15323994,-0.76717275,0.047383733,9.695332527160645,1.4283990859985352,-1.0054305791854858,5.680816650390625,-10.547762870788574, -3.345302104949951
187,108007013,0.62037027,0.15341751,-0.767728,0.046880506,9.862678527832031,1.3224530220031738,-1.5628464221954346,-0.3614465296268463,-10.313302993774414, -1.9121677875518799
188,108023680,0.6198911,0.15295695,-0.76825505,0.046078954,9.973945617675781,1.4063260555267334,-1.663078784942627,-4.660462856292725,-9.166020393371582, 0.033059604465961456
189,108040347,0.6197181,0.15204526,-0.7686347,0.045085605,9.806215286254883,1.3267098665237427,-1.812772274017334,-7.650875568389893,-6.964006423950195, 1.2937300205230713
190,108057014,0.6197822,0.15097745,-0.76885384,0.04404216,9.761685371398926,1.2929434776306152,-1.7521182298660278,-9.004838943481445,-5.0614423751831055, 1.7121390104293823
191,108073681,0.6198993,0.1502352,-0.7689497,0.04325526,9.625472068786621,1.147997498512268,-1.6053072214126587,-6.360351085662842,-4.102617263793945, 0.9535928964614868
192,108090348,0.61988044,0.14995328,-0.7690444,0.04281498,9.612616539001465,1.244889497756958,-1.3533077239990234,-2.1529908180236816,-4.571047306060791, -0.038367822766304016
193,108107015,0.61967444,0.15001199,-0.76921076,0.04260227,9.659005165100098,1.197368860244751,-1.3925740718841553,0.6851973533630371,-5.752638339996338, -0.7461876273155212
194,108123682,0.61919916,0.15027627,-0.76954365,0.042571224,9.729625701904297,1.3456008434295654,-1.4091237783432007,2.565797805786133,-7.803217887878418, -0.7706862688064575
195,108140349,0.61847746,0.15013453,-0.77017194,0.042195205,9.83560562133789,1.5828132629394531,-1.3308311700820923,-0.540569007396698,-10.590405464172363, 0.2212105542421341
196,108157016,0.61752176,0.1496607,-0.77106106,0.04163638,9.60756778717041,1.4334466457366943,-1.3333158493041992,-2.724194049835205,-13.054814338684082, 1.5415462255477905
197,108173683,0.6163329,0.14913997,-0.77213,0.041306842,9.718546867370605,1.4705536365509033,-1.270990252494812,-1.3143678903579712,-14.807531356811523, 2.967649459838867
198,108190350,0.6150363,0.14876623,-0.7732336,0.041338645,9.645740509033203,1.311286449432373,-1.5289099216461182,1.1478919982910156,-15.251648902893066, 3.8303380012512207
199,108207017,0.61365587,0.14867581,-0.77431464,0.04194107,9.551728248596191,1.3292078971862793,-1.6715717315673828,6.562562942504883,-14.987183570861816, 4.464009761810303
200,108223684,0.6122675,0.14871748,-0.77535963,0.04276714,9.597079277038574,1.3976625204086304,-1.7664345502853394,7.5343475341796875,-14.796162605285645, 4.867409706115723
201,108240351,0.61086005,0.14847569,-0.7764877,0.043264735,9.630084037780762,1.369701862335205,-1.7117589712142944,4.062979221343994,-15.571846008300781, 5.222659111022949
202,108257018,0.60937023,0.14787433,-0.77777684,0.04317832,9.578036308288574,1.1661313772201538,-1.5926101207733154,-0.21391747891902924,-17.15691375732422, 4.799203872680664
203,108273685,0.6076088,0.1472799,-0.7792907,0.04273406,9.48668384552002,1.0940845012664795,-1.5060687065124512,-1.2639884948730469,-19.865468978881836, 3.3946030139923096
204,108290352,0.6054785,0.14704123,-0.7810183,0.042251434,9.44235610961914,1.1151151657104492,-1.427211880683899,-0.6761252880096436,-23.01970100402832, 1.9022650718688965
205,108307019,0.6029745,0.14695117,-0.7829988,0.041716736,9.48168659210205,1.136281967163086,-1.5191612243652344,0.8434218764305115,-26.1054630279541, 0.997687578201294
206,108323686,0.60015404,0.14696668,-0.78518677,0.041205753,9.625072479248047,1.2007601261138916,-1.6919031143188477,1.1097567081451416,-28.768587112426758, 0.9684637188911438
207,108340353,0.5971148,0.14693993,-0.78753287,0.04067901,9.684463500976562,1.2173670530319214,-1.9255473613739014,1.0891131162643433,-30.62386131286621, 1.3207679986953735
208,108357020,0.5938703,0.14699541,-0.7899932,0.040267244,9.736919403076172,1.0585248470306396,-2.0398552417755127,0.780120849609375,-32.295440673828125, 1.9378702640533447
209,108373687,0.5903695,0.14715002,-0.79259694,0.04001103,9.7399263381958,1.0667364597320557,-2.056964159011841,2.217153310775757,-34.161563873291016, 2.2503604888916016
210,108390354,0.58658814,0.14727053,-0.79539436,0.039668,9.843066215515137,0.9947041273117065,-1.9442771673202515,1.8666305541992188,-36.57133483886719, 2.3384315967559814
211,108407021,0.58228254,0.14758095,-0.7985063,0.039432354,9.734994888305664,0.893079400062561,-1.9546730518341064,3.653346538543701,-40.6823616027832, 2.185307741165161
212,108423688,0.5773094,0.1480798,-0.8020166,0.039444882,9.731504440307617,1.1046862602233887,-1.9026297330856323,6.321844577789307,-45.77519607543945, 2.719608783721924
213,108440355,0.5715612,0.14865695,-0.80601007,0.039584905,9.786137580871582,1.1472851037979126,-1.9378455877304077,8.010506629943848,-51.896915435791016, 3.487657070159912
214,108457022,0.56488174,0.14917779,-0.81057936,0.040198486,10.293981552124023,1.5057477951049805,-1.999320387840271,11.213837623596191,-58.86634063720703, 6.501527786254883
215,108473689,0.5573673,0.14865777,-0.81587404,0.039901264,10.748620986938477,1.5720503330230713,-2.0918776988983154,2.758167266845703,-67.0439682006836, 9.752083778381348
216,108490356,0.54906833,0.14775465,-0.821661,0.039575495,11.606754302978516,0.0849660262465477,-1.936664342880249,1.8064926862716675,-73.32658386230469, 12.518534660339355
217,108507023,0.539915,0.14735256,-0.8277465,0.040188022,12.108464241027832,-0.0840570330619812,-2.006593942642212,9.766069412231445,-78.56736755371094, 13.70490550994873
218,108523690,0.5296192,0.14749685,-0.8342837,0.041460127,11.837560653686523,-0.17485472559928894,-2.04988956451416,16.55657958984375,-86.3492660522461, 13.75492000579834
219,108540357,0.51839995,0.14767832,-0.8411784,0.04326633,11.545971870422363,-0.42417359352111816,-2.3164520263671875,20.562589645385742,-92.54179382324219, 16.056425094604492
220,108557024,0.5059712,0.14810792,-0.84851253,0.045650117,11.059504508972168,-0.049825333058834076,-2.418342113494873,25.84730339050293,-100.7083969116211, 17.430194854736328
221,108573691,0.4924106,0.14819643,-0.8563312,0.047610987,11.061013221740723,0.6357391476631165,-1.658298134803772,23.16425895690918,-109.43827056884766, 18.766756057739258
222,108590358,0.47799483,0.14774458,-0.8644888,0.0484966,10.705476760864258,0.43992742896080017,-1.5159530639648438,15.752823829650879,-116.70237731933594, 18.932416915893555
223,108607025,0.46250388,0.14779632,-0.8728984,0.04790742,9.762893676757812,0.7774752378463745,-1.4976551532745361,9.638328552246094,-125.76085662841797, 11.696372985839844
224,108623692,0.44697005,0.14847483,-0.8810675,0.04351071,10.663236618041992,-0.19022762775421143,-2.4234158992767334,-11.088822364807129,-129.4900665283203, -4.408477783203125
225,108640359,0.4305587,0.15093568,-0.8889616,0.039812427,10.998279571533203,0.23481494188308716,-3.1965088844299316,-0.40929141640663147,-133.94203186035156, -13.129125595092773
226,108657026,0.41345334,0.15324119,-0.8968701,0.03460697,10.958956718444824,2.4374561309814453,-3.396879196166992,-9.355669021606445,-139.90493774414062, -16.473770141601562
227,108673693,0.39691713,0.15327214,-0.90461826,0.025110282,12.229677200317383,2.0719282627105713,-3.9857735633850098,-42.77157211303711,-140.08511352539062, -14.933664321899414
228,108690360,0.38040206,0.15181625,-0.91215706,0.014692639,12.500066757202148,1.8275989294052124,-3.657179832458496,-52.485694885253906,-140.2965545654297, -8.46241569519043
229,108707027,0.3650763,0.14707384,-0.919286,0.0014178178,12.678231239318848,1.9767186641693115,-2.0668632984161377,-80.16700744628906,-134.65362548828125, 4.044998645782471
230,108723694,0.35341534,0.13871846,-0.92498016,-0.016329333,11.904312133789062,2.8932182788848877,1.8442130088806152,-121.17037200927734,-112.68273162841797, 14.027191162109375
231,108740361,0.3481414,0.12941386,-0.92774594,-0.036571298,9.816474914550781,0.9121724963188171,1.933732032775879,-145.69479370117188,-67.83428955078125, 11.751507759094238
232,108757028,0.34812042,0.12163477,-0.9283403,-0.046921723,9.448761940002441,-1.6723421812057495,1.4574782848358154,-84.15884399414062,-20.26508903503418, 24.874069213867188
233,108773695,0.35335895,0.11595173,-0.9270034,-0.048555125,8.98597240447998,0.394509494304657,1.8434553146362305,-28.621294021606445,25.59577178955078, 32.24038314819336
234,108790362,0.36428624,0.10975988,-0.923564,-0.04772802,8.954253196716309,0.778759241104126,1.0461734533309937,-19.43815803527832,68.4572525024414, 41.60843276977539
235,108807029,0.3799672,0.10319774,-0.91817427,-0.043949563,9.235706329345703,0.8298397064208984,0.05758818984031677,-5.878003120422363,105.36978912353516, 51.40330123901367
236,108823696,0.3995726,0.09628173,-0.9108081,-0.038736887,9.572301864624023,1.572503924369812,-0.7627980709075928,-1.166748046875,135.98704528808594, 57.152931213378906
237,108840363,0.42241606,0.08866652,-0.90142894,-0.033601727,9.676478385925293,1.5427404642105103,-1.6968128681182861,-6.276564598083496,161.35745239257812, 60.863372802734375
238,108857030,0.447879,0.080725454,-0.8900047,-0.027921125,9.8081636428833,1.650239109992981,-2.4873931407928467,-5.945192337036133,183.639892578125, 63.841915130615234
239,108873697,0.47541457,0.07243922,-0.8765003,-0.021928271,10.157671928405762,1.9561364650726318,-3.137057304382324,-6.684194087982178,202.73472595214844, 66.18497467041016
240,108890364,0.5044495,0.06419945,-0.8609112,-0.015532058,10.57844066619873,1.8208097219467163,-3.6770834922790527,-5.1962761878967285,218.73374938964844, 66.45447540283203
241,108907031,0.53434074,0.05692469,-0.8433155,-0.0076662935,10.91490650177002,1.5568064451217651,-4.271302700042725,6.219512939453125,231.49630737304688, 65.10084533691406
242,108923698,0.5643993,0.05100944,-0.82392275,0.0017323378,11.335219383239746,1.455471396446228,-4.708579063415527,19.90398406982422,239.76824951171875, 62.22840118408203
243,108940365,0.59400856,0.046095926,-0.8030561,0.011407413,11.884968757629395,1.7134913206100464,-4.978570461273193,25.49235725402832,243.09933471679688, 57.2076416015625
244,108957032,0.62255937,0.041500628,-0.78121316,0.02009604,12.267406463623047,1.8512251377105713,-5.075063705444336,21.72151756286621,241.01548767089844, 51.30442810058594
245,108973699,0.6496532,0.037035655,-0.75881666,0.02786743,12.211233139038086,1.7990745306015015,-4.974667072296143,17.818498611450195,235.49388122558594, 46.83803176879883
246,108990366,0.67490774,0.033053156,-0.7363138,0.03534668,11.805830001831055,1.226195216178894,-5.00051212310791,18.910837173461914,226.56375122070312, 43.46376419067383
247,109007033,0.6979884,0.03094715,-0.71413016,0.04327509,11.00137710571289,0.8565171360969543,-5.185495376586914,30.291444778442383,214.1986083984375, 36.75897216796875
248,109023700,0.71910334,0.030197484,-0.6923926,0.050705016,10.329044342041016,0.6661878228187561,-5.742154121398926,42.144371032714844,202.24749755859375, 28.723613739013672
249,109040367,0.7381097,0.033124197,-0.6711968,0.059932917,9.503636360168457,0.7547248005867004,-6.703741550445557,56.17464065551758,189.63577270507812, 20.326963424682617
250,109057034,0.7547004,0.037393853,-0.65148336,0.0678146,8.907365798950195,1.6113791465759277,-7.799155235290527,62.174400329589844,170.56375122070312, 9.231488227844238
251,109073701,0.7682261,0.041712277,-0.63463646,0.0729784,7.7924089431762695,2.498380422592163,-8.942357063293457,49.71418380737305,141.88743591308594, -2.82137393951416
252,109090368,0.77746665,0.043965813,-0.62296087,0.07438118,6.342410087585449,3.22931170463562,-10.032882690429688,21.036218643188477,96.45791625976562, -9.951416969299316
253,109107035,0.78138876,0.04151675,-0.6185514,0.07143109,5.65976095199585,4.783407688140869,-12.314244270324707,-24.851228713989258,36.50614547729492, -8.086843490600586
254,109123702,0.7794179,0.0347929,-0.6223191,0.06337675,4.965992450714111,5.261471748352051,-13.859539985656738,-71.86521911621094,-31.28947639465332, -12.011828422546387
255,109140369,0.7725673,0.026142469,-0.63254195,0.048450332,6.9368577003479,6.518412113189697,-6.184136390686035,-113.24125671386719,-87.07231140136719, -36.841712951660156
256,109157036,0.76768786,-0.008028015,-0.6405633,0.01642031,20.454055786132812,0.0071637630462646484,12.775915145874023,-322.91693115234375,-61.185455322265625, -17.66431999206543
257,109173703,0.759989,-0.037715565,-0.6488279,-0.00411292,14.261796951293945,-20.02256202697754,-8.958026885986328,-248.7245330810547,-76.23999786376953, 23.505870819091797
258,109190370,0.7509671,-0.032036297,-0.65956235,-0.0003739045,11.016521453857422,-9.68238639831543,-1.3165489435195923,44.23711013793945,-100.0284652709961, -8.599764823913574
259,109207037,0.7438317,-0.00547839,-0.6682538,0.011035094,9.352985382080078,8.546338081359863,-6.135697841644287,187.27786254882812,-82.503662109375, -63.41370391845703
260,109223704,0.7309796,0.0009421606,-0.6823965,0.0018795118,16.467632293701172,1.525909662246704,-2.8286943435668945,-10.870430946350098,-134.19105529785156, -75.63410186767578
261,109240371,0.7194619,0.0008846361,-0.69447273,-0.009028277,10.387667655944824,3.2356483936309814,-1.924744725227356,-53.63851547241211,-117.40050506591797, -54.17667007446289
262,109257038,0.710474,-0.0010187192,-0.703493,-0.017985182,9.288619041442871,0.17750811576843262,-2.1498935222625732,-51.66627502441406,-90.28141021728516, -35.3792724609375
263,109273705,0.70388603,0.0030439205,-0.7100527,-0.018986236,9.38493537902832,-0.561840295791626,-1.2793126106262207,15.669990539550781,-65.95356750488281, -25.06603240966797
264,109290372,0.6983735,0.0070665907,-0.7154044,-0.020525938,11.455939292907715,1.4462636709213257,-0.6806615591049194,12.664894104003906,-54.876583099365234, -27.38393783569336
265,109307039,0.69297236,0.007365766,-0.7204151,-0.027153647,10.286225318908691,1.1654967069625854,-0.46716415882110596,-30.29314613342285,-53.479942321777344, -33.489990234375
266,109323706,0.68823814,0.0062300554,-0.7246177,-0.034910563,9.920175552368164,-0.0013290825299918652,-0.698934018611908,-42.90654373168945,-46.670379638671875, -31.673892974853516
267,109340373,0.68379694,0.008425458,-0.7285373,-0.0398043,10.402717590332031,-1.1250728368759155,-0.7332326173782349,-12.960875511169434,-42.96363067626953, -34.675682067871094
268,109357040,0.6796115,0.015646243,-0.7323453,-0.039424043,9.672896385192871,0.28075167536735535,-0.47898340225219727,37.035133361816406,-39.49136734008789, -35.01775360107422
269,109373707,0.6756077,0.023752317,-0.7359513,-0.036961168,9.903787612915039,2.182960271835327,-0.69530189037323,51.584232330322266,-37.185264587402344, -29.725345611572266
270,109390374,0.6717045,0.028377417,-0.73935306,-0.036948137,10.252559661865234,2.826803207397461,-0.7134796380996704,22.952150344848633,-37.023433685302734, -23.48485565185547
271,109407041,0.668176,0.029100483,-0.742358,-0.03998511,9.427167892456055,2.1767354011535645,-0.8096514344215393,-10.743757247924805,-34.884620666503906, -17.69816780090332
272,109423708,0.6650077,0.028002698,-0.7450217,-0.043855816,9.6574068069458,1.225757122039795,-0.9259077310562134,-23.527252197265625,-32.15577697753906, -12.193921089172363
273,109440375,0.66181064,0.02782627,-0.74769515,-0.0467402,9.993195533752441,0.7530791163444519,-0.907721996307373,-14.252869606018066,-31.888517379760742, -12.412525177001953
274,109457042,0.65841585,0.028993927,-0.7505294,-0.04851694,9.522503852844238,1.031365990638733,-0.6950443983078003,-2.3540353775024414,-33.00265121459961, -14.322251319885254
275,109473709,0.65473515,0.030834366,-0.75359887,-0.04960265,9.398826599121094,1.16875422000885,-0.4787156879901886,4.39356803894043,-35.19080352783203, -14.71821117401123
276,109490376,0.65066195,0.033396408,-0.7569965,-0.0498015,9.56497573852539,1.464393973350525,-0.5295013189315796,12.434999465942383,-38.278961181640625, -14.531610488891602
277,109507043,0.64623153,0.035840534,-0.7606608,-0.04995465,9.517013549804688,1.5259195566177368,-0.7473955154418945,12.319291114807129,-41.37213134765625, -13.77431583404541
278,109523710,0.64150715,0.037847802,-0.7645254,-0.05037321,9.59980583190918,1.550652027130127,-1.0109206438064575,9.134846687316895,-44.02342224121094, -12.72054386138916
279,109540377,0.63661736,0.03975103,-0.76847,-0.05091435,9.689083099365234,1.1934987306594849,-1.4532908201217651,8.102442741394043,-45.32039260864258, -12.750371932983398
280,109557044,0.63165766,0.041967314,-0.77241135,-0.05126665,9.758923530578613,1.0654622316360474,-1.7460378408432007,10.48866081237793,-45.518489837646484, -13.606488227844238
281,109573711,0.6266799,0.044437654,-0.7762988,-0.051556922,9.75310230255127,1.238644003868103,-1.7598472833633423,11.907258033752441,-45.27521896362305, -14.712800025939941
282,109590378,0.62160337,0.04684832,-0.7802045,-0.05192229,9.70279312133789,1.4521418809890747,-1.7397395372390747,11.285290718078613,-45.9268798828125, -14.749995231628418
283,109607045,0.6163511,0.04872541,-0.78419715,-0.052649852,9.814007759094238,1.6038105487823486,-1.610474705696106,7.1518778800964355,-47.55166244506836, -13.471732139587402
284,109623712,0.6106933,0.05057047,-0.78844434,-0.05340498,9.728086471557617,1.4309486150741577,-1.5080455541610718,7.096011638641357,-50.843624114990234, -13.477524757385254
285,109640379,0.6043936,0.052611884,-0.79311305,-0.05396561,9.715675354003906,1.575965404510498,-1.3156006336212158,9.35395336151123,-55.95985412597656, -13.816065788269043
286,109657046,0.5972633,0.054598756,-0.7983118,-0.05471755,9.80371379852295,1.5255212783813477,-1.3010257482528687,8.583102226257324,-62.79195022583008, -14.430895805358887
287,109673713,0.5892909,0.05669918,-0.8040202,-0.055436336,9.894824028015137,1.2515863180160522,-1.5574886798858643,9.740819931030273,-69.46253204345703, -15.044914245605469
288,109690380,0.5804581,0.059124056,-0.8102279,-0.05571322,10.037360191345215,1.2941943407058716,-1.8938930034637451,14.025428771972656,-75.95506286621094, -15.185614585876465
289,109707047,0.5706433,0.061153486,-0.81702226,-0.05569101,10.573387145996094,1.141370415687561,-1.97702157497406,14.737756729125977,-83.80648040771484, -11.930423736572266
290,109723714,0.55980384,0.06259378,-0.8243536,-0.05606418,10.909021377563477,1.0797659158706665,-1.9947993755340576,10.842373847961426,-92.07329559326172, -10.344862937927246
291,109740381,0.5476919,0.0639897,-0.8323426,-0.056079656,11.659058570861816,1.0276740789413452,-1.9021284580230713,13.499388694763184,-101.69339752197266, -8.931057929992676
292,109757048,0.5341634,0.06441338,-0.8410344,-0.05640831,12.499777793884277,0.8496184945106506,-1.4277747869491577,8.940832138061523,-112.97944641113281, -4.790624141693115
293,109773715,0.518931,0.06426986,-0.8504961,-0.056894932,12.566925048828125,-0.2211167961359024,-1.6231874227523804,6.997954845428467,-125.97986602783203, -2.421278715133667
294,109790382,0.50155103,0.063726485,-0.86094135,-0.056266446,14.106156349182129,-0.28461024165153503,-1.2334176301956177,13.421367645263672,-141.7423095703125, 3.473247528076172
295,109807049,0.4817436,0.06246879,-0.872283,-0.056068085,14.958383560180664,0.5191523432731628,0.7265125513076782,9.816844940185547,-159.71347045898438, 5.65364933013916
296,109823716,0.45980358,0.062250033,-0.8840274,-0.056584563,14.177083015441895,0.21655191481113434,1.8212132453918457,10.04289722442627,-173.80955505371094, -3.607563018798828
297,109840383,0.43682545,0.06574047,-0.89521503,-0.058756348,14.079178810119629,-0.8463635444641113,0.5020679235458374,11.9386568069458,-177.6949005126953, -32.044342041015625
298,109857050,0.41348746,0.076001175,-0.90558374,-0.056309547,13.435134887695312,-2.255192995071411,-3.5051522254943848,60.53382110595703,-172.69386291503906, -60.37963104248047
299,109873717,0.38836047,0.08930484,-0.91569304,-0.052037306,12.578879356384277,5.390679836273193,-4.33379602432251,81.37528991699219,-181.00717163085938, -74.98795318603516
300,109890384,0.36404848,0.09789621,-0.9244408,-0.057399064,14.369690895080566,4.087914943695068,-3.6984736919403076,7.171499729156494,-179.8668670654297, -71.56137084960938
301,109907051,0.34358516,0.1041642,-0.9310819,-0.06470128,15.362792015075684,0.6109949350357056,-2.912099838256836,-14.375046730041504,-152.39505004882812, -61.543968200683594
302,109923718,0.3280949,0.10940468,-0.93572176,-0.06935387,12.546287536621094,0.36088085174560547,1.5090067386627197,-4.287696361541748,-114.44938659667969, -47.945648193359375
303,109940385,0.31928483,0.11343611,-0.93803656,-0.07264596,9.292183876037598,0.7932451963424683,1.657933235168457,-4.3875932693481445,-65.84920501708984, -35.677066802978516
304,109957052,0.3163932,0.11627445,-0.9387272,-0.071884304,8.48204231262207,-0.5106034278869629,1.4761793613433838,13.721468925476074,-21.599227905273438, -17.401813507080078
305,109973719,0.31984547,0.1171884,-0.93755734,-0.07037613,7.427832126617432,1.4223018884658813,1.3781778812408447,8.362044334411621,22.99264907836914, -1.7204854488372803
306,109990386,0.32971185,0.11512902,-0.9342548,-0.072138384,6.631533145904541,2.1839561462402344,1.1718735694885254,-25.446189880371094,64.91925811767578, 11.636688232421875
307,110007053,0.34558538,0.11150752,-0.9288607,-0.07318005,6.447865009307861,0.123919278383255,0.10690560936927795,-30.1368408203125,108.01780700683594, 24.62912940979004
308,110023720,0.36664483,0.108942576,-0.92150146,-0.0673686,6.671908378601074,-0.253584086894989,-0.9704659581184387,11.174980163574219,151.5767364501953, 35.264320373535156
309,110040387,0.39229426,0.1067918,-0.9118329,-0.057114474,7.287292003631592,1.004382848739624,-1.8971105813980103,35.85508346557617,189.99342346191406, 44.23948669433594
310,110057054,0.4217572,0.103316925,-0.8995884,-0.046773594,8.001792907714844,1.770675539970398,-2.8832461833953857,29.01470947265625,220.39215087890625, 52.394989013671875
311,110073721,0.45404977,0.098158516,-0.88477284,-0.037167173,8.875593185424805,1.6043968200683594,-3.953037738800049,16.752044677734375,244.29127502441406, 59.77898406982422
312,110090388,0.4878978,0.09256011,-0.8675678,-0.026743677,9.725276947021484,1.4447020292282104,-4.74267053604126,18.683752059936523,261.66217041015625, 63.8066291809082
313,110107055,0.52238077,0.086948805,-0.8481427,-0.014578815,10.567499160766602,1.2248687744140625,-5.468027591705322,28.212635040283203,274.01788330078125, 68.44341278076172
314,110123722,0.5567304,0.08096388,-0.8267381,-0.0008058356,11.491323471069336,1.573628306388855,-5.934907913208008,36.12052917480469,281.29638671875, 75.21754455566406
315,110140389,0.5902245,0.07354621,-0.80379236,0.0120123215,12.601627349853516,2.445784091949463,-6.0880126953125,25.66402816772461,281.81878662109375, 78.86009979248047
316,110157056,0.62230587,0.06398868,-0.77984554,0.021961559,13.097838401794434,2.8813867568969727,-6.139312744140625,1.903342366218567,276.8250427246094, 78.67448425292969
317,110173723,0.6526739,0.05282334,-0.7552048,0.029875634,12.68769645690918,2.3721232414245605,-6.3931450843811035,-15.042162895202637,269.9915466308594, 78.56185150146484
318,110190390,0.68090904,0.04265129,-0.7301445,0.037856296,12.298445701599121,1.7792994976043701,-6.905015468597412,-9.388514518737793,260.6684265136719, 74.00486755371094
319,110207057,0.7066185,0.035555616,-0.70518255,0.04630231,11.935592651367188,1.9107751846313477,-7.433028221130371,8.06015396118164,246.9251708984375, 61.4376220703125
320,110223724,0.7295236,0.032365143,-0.6810128,0.05449529,10.934517860412598,2.558321714401245,-7.791179656982422,26.23611831665039,228.2474822998047, 42.377349853515625
321,110240391,0.74968153,0.032667093,-0.65811896,0.061565734,10.018206596374512,2.9419937133789062,-8.70977783203125,38.62264633178711,207.51356506347656, 21.733871459960938
322,110257058,0.7660216,0.03782833,-0.6381145,0.067751534,8.709639549255371,3.190701484680176,-10.627605438232422,59.299983978271484,173.1903533935547, -2.516206979751587
323,110273725,0.77693045,0.04641727,-0.6239068,0.070464216,6.079710483551025,5.774131774902344,-11.826155662536621,60.818477630615234,116.45733642578125, -31.775306701660156
324,110290392,0.7818357,0.048885837,-0.6181288,0.06527236,4.854391098022461,3.6708333492279053,-15.772682189941406,-7.96321439743042,46.25535583496094, -42.08537673950195
325,110307059,0.7797069,0.046580855,-0.6217622,0.057442784,5.423471450805664,3.0292341709136963,-16.009742736816406,-46.70211410522461,-32.791683197021484, -29.62049102783203
326,110323726,0.7724481,0.035653323,-0.6326664,0.042262554,5.964528560638428,5.1740264892578125,-9.887656211853027,-125.5923843383789,-92.47296142578125, -27.77480697631836
327,110340393,0.76661813,-0.008587204,-0.64199615,0.008022926,23.512739181518555,-3.3762166500091553,13.989093780517578,-385.51025390625,-72.82357025146484, 15.20692253112793
328,110357060,0.7588373,-0.03159875,-0.6504399,-0.0097897975,13.126616477966309,-19.061992645263672,-7.6616034507751465,-200.9845428466797,-79.02434539794922, 8.228865623474121
329,110373727,0.7512057,-0.019717082,-0.6597687,-0.002659542,11.206354141235352,-3.676246404647827,-2.5267791748046875,92.7572250366211,-85.93379974365234, -18.07351303100586
330,110390394,0.74338484,-0.000008758332,-0.6688628,0.0014990313,10.564896583557129,8.089926719665527,-5.510801792144775,119.67597961425781,-84.99325561523438, -68.95580291748047
331,110407061,0.7316796,0.0050381334,-0.68158853,-0.0075614234,15.597807884216309,0.0069749727845191956,-3.7849719524383545,-16.11199378967285,-121.18869018554688, -68.96791076660156
332,110423728,0.7214779,0.008231196,-0.6922269,-0.014971272,10.908021926879883,4.104875564575195,-1.849587082862854,-17.869821548461914,-103.62518310546875, -51.96894073486328
333,110440395,0.713044,0.0069313594,-0.7007207,-0.022609903,8.425987243652344,0.9175667762756348,-1.523315191268921,-41.56660079956055,-85.02536010742188, -31.609283447265625
334,110457062,0.7066148,0.009504979,-0.7071358,-0.02376075,9.533747673034668,-0.48751604557037354,-0.8398134112358093,8.257966995239258,-64.24995422363281, -18.243436813354492
335,110473729,0.7007978,0.012672849,-0.71277744,-0.025898207,11.644937515258789,1.052050232887268,0.09965762495994568,6.180501937866211,-57.478755950927734, -25.89118003845215
336,110490396,0.6946662,0.01339546,-0.7184571,-0.032854017,10.131072044372559,0.9532325267791748,-0.1158359944820404,-29.182048797607422,-60.069854736328125, -37.17154312133789
337,110507063,0.6888891,0.013315718,-0.7236302,-0.040180527,9.877511024475098,0.1177540272474289,-0.18037517368793488,-34.994117736816406,-56.12494659423828, -34.93754959106445
338,110523730,0.68316144,0.017517587,-0.728789,-0.04301893,10.20464038848877,-0.022420352324843407,-0.2558051645755768,7.602660655975342,-54.227657318115234, -34.97694778442383
339,110540397,0.6777801,0.024757156,-0.7336733,-0.041535072,9.01561450958252,1.6961121559143066,-0.2237319052219391,43.40316390991211,-49.7935676574707, -29.844070434570312
340,110557064,0.67258203,0.031023454,-0.73835474,-0.03877891,10.15938663482666,2.7300007343292236,-0.6403286457061768,45.19772720336914,-47.993316650390625, -18.985624313354492
341,110573731,0.6673573,0.033730786,-0.7429416,-0.03917157,9.999857902526855,3.140784978866577,-0.5709521770477295,12.739519119262695,-49.31790542602539, -15.490857124328613
342,110590398,0.66257304,0.032315865,-0.74705714,-0.043111973,9.000387191772461,1.9752424955368042,-0.6445949077606201,-24.518930435180664,-46.847450256347656, -10.676520347595215
343,110607065,0.6580746,0.029862864,-0.7508633,-0.047440387,9.91145133972168,0.9655008316040039,-0.9422211050987244,-31.390949249267578,-44.37571716308594, -7.080552101135254
344,110623732,0.65340716,0.029182605,-0.75473285,-0.050854113,9.964496612548828,0.45914605259895325,-1.110632061958313,-18.59004020690918,-44.77820587158203, -12.135980606079102
345,110640399,0.6486705,0.03108013,-0.75865275,-0.052027825,9.249262809753418,0.508972704410553,-1.209256887435913,4.644687175750732,-44.021690368652344, -15.473260879516602
346,110657066,0.6438397,0.03450728,-0.76266164,-0.05125663,9.722067832946777,1.2820042371749878,-1.065670132637024,21.66264533996582,-43.9527473449707, -14.804278373718262
347,110673733,0.63879836,0.037165124,-0.7667731,-0.05113405,9.798541069030762,1.8397043943405151,-0.9034751653671265,14.944110870361328,-45.9450798034668, -13.694502830505371
348,110690400,0.6335918,0.038338117,-0.77093977,-0.052384052,9.607894897460938,1.6199581623077393,-1.093883991241455,1.253272294998169,-47.94560623168945, -11.933571815490723
349,110707067,0.6281534,0.03920777,-0.7752287,-0.05391701,9.843733787536621,1.1304328441619873,-1.3246432542800903,-1.4577090740203857,-49.903587341308594, -11.606218338012695
350,110723734,0.62244135,0.040716477,-0.7796822,-0.054818057,9.912405967712402,1.047261357307434,-1.5176584720611572,4.8072004318237305,-51.6791877746582, -12.34471607208252
351,110740401,0.61649,0.04260851,-0.7842553,-0.05539477,9.777647972106934,1.1857781410217285,-1.6321935653686523,8.299788475036621,-53.24925994873047, -13.075116157531738
352,110757068,0.61018896,0.04478304,-0.78902674,-0.05568999,9.7531099319458,1.309303879737854,-1.6552611589431763,11.195539474487305,-55.797584533691406, -13.486039161682129
353,110773735,0.6033639,0.047017496,-0.7941129,-0.055913836,9.689955711364746,1.702879786491394,-1.5328441858291626,12.12020492553711,-59.92971420288086, -13.620022773742676
354,110790402,0.5958876,0.0486094,-0.7995859,-0.05672764,9.770276069641113,1.7543466091156006,-1.3334612846374512,6.596712589263916,-65.54422760009766, -12.682981491088867
355,110807069,0.5875096,0.050137658,-0.8055935,-0.05778026,9.767996788024902,1.5281920433044434,-1.3340296745300293,5.543086051940918,-72.82018280029297, -13.48363208770752
356,110823736,0.5780898,0.052188233,-0.8121964,-0.058531787,9.71112060546875,1.4011071920394897,-1.3875385522842407,9.92288875579834,-80.710693359375, -15.371706008911133
357,110840403,0.5675779,0.054632846,-0.8193803,-0.05904799,9.736534118652344,1.1756795644760132,-1.8822038173675537,13.436402320861816,-88.90567779541016, -16.8734130859375
358,110857070,0.55582,0.056897838,-0.8272322,-0.059279032,10.579885482788086,1.2567861080169678,-1.783430576324463,15.08661937713623,-98.5238037109375, -15.013588905334473
359,110873737,0.5428844,0.058697358,-0.83559394,-0.060118977,11.100381851196289,1.1334724426269531,-1.9412550926208496,10.519968032836914,-107.63729858398438, -14.984764099121094
360,110890404,0.5285168,0.060128067,-0.8446292,-0.060469985,12.525859832763672,0.9272497892379761,-1.7476027011871338,12.815658569335938,-118.37763214111328, -11.377055168151855
361,110907071,0.5123009,0.06009437,-0.8544928,-0.06147222,13.579305648803711,0.2731424570083618,-1.4651025533676147,4.828583717346191,-133.064453125, -5.689166069030762
362,110923738,0.49360973,0.059241578,-0.8654636,-0.06174818,15.027372360229492,-0.5154811143875122,-0.7636734247207642,7.701513290405273,-151.64295959472656, 1.0576279163360596
363,110940405,0.47193336,0.05813665,-0.8775556,-0.061608642,16.309528350830078,-0.16771551966667175,1.1650218963623047,11.007811546325684,-173.27366638183594, 3.1049413681030273
364,110957072,0.44790277,0.05890681,-0.8899287,-0.06277189,15.109472274780273,0.3132789433002472,3.0447580814361572,10.296391487121582,-188.29348754882812, -13.374024391174316
365,110973739,0.42386025,0.06467306,-0.9010476,-0.06537301,16.155763626098633,-4.01846170425415,-1.306514024734497,16.364715576171875,-183.12908935546875, -48.930171966552734
366,110990406,0.3985787,0.07756591,-0.9119131,-0.05944481,12.9292573928833,0.4339744448661804,-3.5150938034057617,90.3763656616211,-183.244873046875, -68.99015045166016
367,111007073,0.37281063,0.08975691,-0.92173743,-0.057935342,12.855003356933594,5.546144962310791,-5.255026817321777,60.57917404174805,-186.19650268554688, -77.47251892089844
368,111023740,0.34965193,0.09805938,-0.92955625,-0.06366563,14.325617790222168,2.041627883911133,-3.6400578022003174,2.3815579414367676,-170.62240600585938, -71.55144500732422
369,111040407,0.33159506,0.10575301,-0.9350263,-0.06772891,14.698487281799316,-1.0794039964675903,-1.722572922706604,7.135447025299072,-131.65196228027344, -63.02809143066406
370,111057074,0.32016203,0.113288395,-0.93812317,-0.06772968,10.428851127624512,1.606812596321106,2.5742998123168945,26.962085723876953,-80.96633911132812, -51.447021484375
371,111073741,0.31631744,0.11725177,-0.93883383,-0.06918663,7.886781215667725,0.44077491760253906,1.6765801906585693,2.732693910598755,-29.7471981048584, -29.955608367919922
372,111090408,0.31759733,0.120102935,-0.9383497,-0.06486417,7.442638874053955,-1.2725322246551514,1.822826623916626,32.94236755371094,9.91897201538086, -8.751200675964355
373,111107075,0.3249513,0.120140426,-0.93614286,-0.060079657,6.948925018310547,2.1478893756866455,1.3354988098144531,23.986865997314453,51.85640335083008, 11.670034408569336
374,111123742,0.33843198,0.11531477,-0.93187964,-0.061373614,6.836447715759277,2.9126765727996826,0.7317703366279602,-31.877220153808594,88.73358154296875, 30.222963333129883
375,111140409,0.3573067,0.10730014,-0.9254738,-0.065705925,6.821596622467041,1.0390387773513794,-0.22106190025806427,-63.910301208496094,124.41999816894531, 44.15383529663086
376,111157076,0.3805108,0.09992145,-0.91716415,-0.06354114,6.929581165313721,-1.0588202476501465,-1.6646226644515991,-25.059242248535156,161.63406372070312, 56.596988677978516
377,111173743,0.40731198,0.094526686,-0.90685815,-0.052633144,7.527005672454834,-0.18671855330467224,-2.7753705978393555,31.89199447631836,196.34317016601562, 67.1385726928711
378,111190410,0.4373122,0.08882902,-0.8940518,-0.03922986,8.105018615722656,1.9175102710723877,-3.6124725341796875,43.592437744140625,224.7469940185547, 75.55587005615234
379,111207077,0.46987137,0.08012143,-0.8786069,-0.029185653,9.436480522155762,2.6559550762176514,-4.576652526855469,11.595808029174805,245.50341796875, 83.07731628417969
380,111223744,0.50378036,0.06976951,-0.8607369,-0.021676332,10.646369934082031,2.1329174041748047,-5.2461347579956055,-10.273033142089844,259.7345886230469, 83.78669738769531
381,111240411,0.53810114,0.059756793,-0.8406475,-0.013721311,11.46886920928955,1.8686178922653198,-6.070079803466797,-7.005378723144531,270.1051330566406, 82.33757019042969
382,111257078,0.5721072,0.05125928,-0.81856644,-0.0038948534,12.262883186340332,1.457805871963501,-6.686408996582031,9.338628768920898,276.5738830566406, 79.67816162109375
383,111273745,0.60509586,0.04547878,-0.79481274,0.007989024,12.816025733947754,1.1155353784561157,-7.055466651916504,31.898780822753906,278.2563781738281, 71.8903579711914
384,111290412,0.63640934,0.043555975,-0.7698121,0.021813259,12.706852912902832,1.2625856399536133,-7.454360008239746,59.12510299682617,274.7425842285156, 58.62083053588867
385,111307079,0.6654805,0.044015255,-0.7442653,0.035605077,12.14693832397461,1.516981601715088,-7.720977783203125,70.11434936523438,264.98480224609375, 46.09683609008789
386,111323746,0.69179577,0.044897035,-0.71914285,0.0472923,11.522425651550293,2.273958444595337,-7.876776218414307,61.99645233154297,248.31784057617188, 35.16898727416992
387,111340413,0.7150056,0.044812363,-0.695468,0.05552815,11.168831825256348,2.380828619003296,-8.448034286499023,40.793426513671875,225.47032165527344, 25.058263778686523
388,111357080,0.73480403,0.044843093,-0.6739794,0.06167922,10.179191589355469,2.2937395572662354,-9.539950370788574,31.601478576660156,197.90469360351562, 16.30006217956543
389,111373747,0.7506698,0.044322252,-0.65595037,0.06526825,8.794767379760742,2.894763469696045,-10.675348281860352,16.673948287963867,161.86788940429688, 8.705322265625
390,111390414,0.7620997,0.03980961,-0.64303744,0.06420743,7.225976943969727,3.053972005844116,-11.784488677978516,-25.855688095092773,116.09336853027344, 6.322190284729004
391,111407081,0.76850104,0.032372948,-0.63619673,0.06010271,5.816019058227539,2.023794412612915,-13.424457550048828,-55.95133590698242,62.79416275024414, 7.242461204528809
392,111423748,0.7698233,0.027833968,-0.63517505,0.05612611,5.241121292114258,1.3119888305664062,-14.207931518554688,-41.35942459106445,8.9922456741333, -1.320458173751831
393,111440415,0.7661343,0.029979073,-0.6397195,0.05384088,4.729474067687988,1.5197200775146484,-16.174440383911133,0.21959862112998962,-44.256507873535156, -18.52820587158203
394,111457082,0.7590856,0.028600391,-0.6487033,0.046428423,10.456801414489746,6.109547138214111,2.5055649280548096,-41.84246826171875,-81.77510070800781, -27.841205596923828
395,111473749,0.75770473,0.0036349958,-0.6521483,0.0239418,21.78713607788086,1.7637288570404053,10.872546195983887,-231.56715393066406,-23.062658309936523, -4.051280975341797
396,111490416,0.7525876,-0.011331214,-0.6582523,0.013702818,10.4898099899292,-11.090133666992188,-3.778625965118408,-124.86457824707031,-55.21541213989258, 15.665199279785156
397,111507083,0.745556,-0.010639978,-0.6662535,0.011832365,10.798980712890625,-4.4140753746032715,-1.456863284111023,-6.272449970245361,-75.70823669433594, -12.10962963104248
398,111523750,0.7389495,-0.000015965605,-0.6736356,0.013009162,10.583982467651367,2.081878185272217,-2.5523829460144043,58.69291687011719,-71.55245971679688, -42.07821273803711
399,111540417,0.7302844,0.012611071,-0.6829576,0.009746252,12.91762638092041,1.6778265237808228,-4.532458782196045,48.130611419677734,-91.02867889404297, -73.68250274658203
400,111557084,0.7210329,0.015974943,-0.69271255,0.002419054,11.604018211364746,4.270378589630127,-1.1399375200271606,-17.450157165527344,-95.54788970947266, -50.47591018676758
401,111573751,0.7132584,0.016062371,-0.7006929,-0.0058612814,9.451175689697266,0.646043062210083,-1.859277367591858,-38.36183166503906,-79.7242660522461, -39.711448669433594
402,111590418,0.70697814,0.019037386,-0.7069303,-0.008322747,9.550350189208984,-0.8059805631637573,-1.1809622049331665,3.5989954471588135,-63.16783142089844, -25.206268310546875
403,111607085,0.7014394,0.02440099,-0.71225286,-0.009128929,10.855090141296387,0.6459841132164001,-0.31332626938819885,23.1028995513916,-54.731781005859375, -28.8789005279541
404,111623752,0.69574815,0.028076213,-0.7176167,-0.013157951,10.380387306213379,1.3384666442871094,-0.005573354661464691,-0.7946977019309998,-56.319515228271484, -36.1553955078125
405,111640419,0.69001853,0.02848511,-0.72295254,-0.020077487,10.327942848205566,2.1053950786590576,0.21058855950832367,-30.673505783081055,-57.237937927246094, -33.854305267333984
406,111657086,0.6845878,0.027598446,-0.7278865,-0.027556447,9.805557250976562,0.3995046615600586,-0.3677525520324707,-39.706451416015625,-54.155967712402344, -30.064697265625
407,111673753,0.6797445,0.033144135,-0.7322107,-0.026769506,9.313926696777344,-0.10903016477823257,-0.5569342374801636,31.709857940673828,-45.565372467041016, -23.362308502197266
408,111690420,0.6751168,0.040559933,-0.7362372,-0.022966886,10.21748161315918,2.1788034439086914,-0.5373873710632324,55.526527404785156,-42.05601501464844, -18.742948532104492
409,111707087,0.67039925,0.04341772,-0.74034303,-0.023923429,10.230498313903809,2.535775661468506,-0.503030002117157,10.324856758117676,-44.929443359375, -17.729494094848633
410,111723754,0.6660768,0.042788748,-0.7441192,-0.028245365,9.11471939086914,1.7085118293762207,-0.7118783593177795,-23.037309646606445,-42.990577697753906, -15.48771858215332
411,111740421,0.66204596,0.04068719,-0.74759907,-0.03369946,9.969351768493652,1.2464746236801147,-0.8115805387496948,-35.70924758911133,-40.77271270751953, -13.14508056640625
412,111757088,0.65786177,0.040190697,-0.7511036,-0.038031466,9.824475288391113,0.5335914492607117,-0.8117669820785522,-22.580245971679688,-41.00340270996094, -16.30794906616211
413,111773755,0.6534304,0.042704772,-0.754749,-0.03948907,9.256990432739258,0.3804455101490021,-0.6917948126792908,5.987710475921631,-41.35140609741211, -18.89387321472168
414,111790422,0.64860207,0.046892494,-0.7586826,-0.038954433,9.781515121459961,1.2593297958374023,-0.5211560726165771,24.04033851623535,-43.682289123535156, -18.673585891723633
415,111807089,0.6433602,0.049909748,-0.76290977,-0.0395673,9.840250968933105,1.945935606956482,-0.5196393728256226,13.054694175720215,-47.85612869262695, -17.704999923706055
416,111823756,0.6378826,0.051204413,-0.7672867,-0.041897245,9.854330062866211,1.383636713027954,-0.8338744640350342,-3.437361001968384,-50.84368896484375, -16.263050079345703
417,111840423,0.63212216,0.053062215,-0.77180976,-0.04377409,9.854424476623535,0.8548316955566406,-1.1878268718719482,1.5745129585266113,-52.68074417114258, -17.27701759338379
418,111857090,0.62608165,0.056224003,-0.7764561,-0.04445898,9.785866737365723,1.0835086107254028,-1.4175448417663574,13.710959434509277,-53.89609909057617, -19.072052001953125
419,111873757,0.6198981,0.059631705,-0.78112584,-0.044869266,9.841248512268066,1.397226333618164,-1.6595110893249512,16.304092407226562,-54.59604263305664, -19.250530242919922
420,111890424,0.61353725,0.0628705,-0.7858453,-0.04546486,9.8693265914917,1.4378403425216675,-1.6517391204833984,14.680936813354492,-55.90293884277344, -19.173274993896484
421,111907091,0.6068114,0.06598726,-0.7907568,-0.046145562,9.72722339630127,1.8227587938308716,-1.404855489730835,13.935254096984863,-58.77997970581055, -18.911827087402344
422,111923758,0.59945625,0.068605125,-0.7960548,-0.047355853,9.562806129455566,1.971031665802002,-1.2563599348068237,9.393012046813965,-64.2422103881836, -18.430322647094727
423,111940425,0.59112436,0.070845686,-0.8019705,-0.048953597,9.597748756408691,2.0155975818634033,-1.1193956136703491,6.39862060546875,-72.47845458984375, -17.98441505432129
424,111957092,0.58162093,0.07290963,-0.808579,-0.0510054,9.714156150817871,1.8333525657653809,-1.2528458833694458,4.0027689933776855,-82.08122253417969, -18.909099578857422
425,111973759,0.5708455,0.075286776,-0.8159028,-0.052632697,9.975260734558105,1.5807243585586548,-1.358456015586853,8.5226411819458,-91.74180603027344, -19.043222427368164
426,111990426,0.55876005,0.07764026,-0.82394964,-0.053536996,11.275125503540039,1.1519653797149658,-1.6731693744659424,13.449167251586914,-101.61894226074219, -16.18796730041504
427,112007093,0.54535764,0.07973897,-0.8326392,-0.054211687,12.372299194335938,0.8060229420661926,-1.7256848812103271,14.72330093383789,-111.59090423583984, -14.035870552062988
428,112023760,0.5303304,0.08173786,-0.84209275,-0.054303393,12.706449508666992,0.8918178081512451,-1.4849683046340942,18.873937606811523,-123.56694793701172, -11.51334285736084
429,112040427,0.5137743,0.082603715,-0.8521617,-0.055075955,13.038036346435547,0.3993927240371704,-1.4533177614212036,11.900266647338867,-135.58355712890625, -7.707609176635742
430,112057094,0.49502274,0.08285035,-0.86320966,-0.054383583,14.991406440734863,-0.0035295679699629545,-0.7209188938140869,19.92682647705078,-151.44029235839844, 0.7542728185653687
431,112073761,0.47386152,0.083326995,-0.8749595,-0.054388367,15.225044250488281,0.5240365266799927,1.4250340461730957,18.208871841430664,-168.6363067626953, -3.5654189586639404
432,112090428,0.45093,0.08599108,-0.88666344,-0.055641353,14.185357093811035,-0.058234021067619324,2.3485472202301025,18.84827995300293,-179.2991943359375, -21.552902221679688
433,112107095,0.42777637,0.09365039,-0.89721143,-0.057000045,15.359593391418457,-3.413978099822998,-1.547180414199829,33.40705490112305,-175.5019073486328, -53.18325424194336
434,112123762,0.40284216,0.10803317,-0.90742195,-0.051311225,13.355469703674316,-0.5154100060462952,-3.5157110691070557,97.62357330322266,-178.5631103515625, -74.9833984375
435,112140429,0.37737533,0.1234607,-0.9165484,-0.04780024,12.975093841552734,5.687644958496094,-4.9325995445251465,86.93609619140625,-180.30572509765625, -88.57907104492188
436,112157096,0.35397476,0.13467956,-0.9240142,-0.052548666,14.601990699768066,2.7111921310424805,-3.3280422687530518,21.777734756469727,-171.50570678710938, -84.1637954711914
437,112173763,0.33515763,0.14444467,-0.929297,-0.056680627,15.448836326599121,0.09647610038518906,-1.8435866832733154,17.198644638061523,-137.24746704101562, -73.82770538330078
438,112190430,0.32267612,0.15263101,-0.9322227,-0.059539568,11.839545249938965,1.6990242004394531,2.9022371768951416,14.503549575805664,-90.97369384765625, -60.75767517089844
439,112207097,0.31846714,0.15808694,-0.9324505,-0.06421443,8.731374740600586,0.34985554218292236,2.825214147567749,-12.891406059265137,-35.2872314453125, -46.778656005859375
440,112223764,0.32044122,0.16202348,-0.9311966,-0.06276143,7.976647853851318,-1.476641058921814,2.6376872062683105,15.743310928344727,13.355687141418457, -22.548133850097656
441,112240431,0.32935426,0.16343002,-0.92807883,-0.059047066,6.972071647644043,1.0928032398223877,2.4870994091033936,16.1080322265625,63.101112365722656, -0.5009278059005737
442,112257098,0.3453973,0.16047266,-0.92276144,-0.058830466,6.493753433227539,1.7329778671264648,1.6738221645355225,-24.957921981811523,107.69205474853516, 19.83643913269043
443,112273765,0.36744118,0.15451077,-0.9152709,-0.058248725,6.891007900238037,-0.30889707803726196,0.27871471643447876,-37.242515563964844,149.96192932128906, 39.78480911254883
444,112290432,0.3939265,0.1483297,-0.90566397,-0.050924636,7.491366863250732,-1.0601465702056885,-1.301850438117981,-0.9599183201789856,190.20347595214844, 57.69997787475586
445,112307099,0.42410088,0.14237258,-0.89355516,-0.037790403,8.171842575073242,0.20766320824623108,-2.4199635982513428,31.12575340270996,225.849853515625, 70.7768325805664
446,112323766,0.45735902,0.1353012,-0.8786278,-0.023023607,9.030936241149902,1.495236873626709,-3.5418078899383545,34.10353469848633,254.2403564453125, 80.45943450927734
447,112340433,0.49279493,0.12604477,-0.8609256,-0.008547995,10.366304397583008,1.8326036930084229,-4.6584038734436035,22.954381942749023,275.4487609863281, 90.56983184814453
448,112357100,0.5292334,0.115506,-0.84055805,0.0057096267,11.643181800842285,1.7824114561080933,-5.412143707275391,16.240583419799805,290.1212158203125, 95.22391510009766
449,112373767,0.5655434,0.10508984,-0.8177381,0.020529889,12.559980392456055,1.4727280139923096,-6.429104804992676,20.066593170166016,298.7408752441406, 94.67393493652344
450,112390434,0.60060185,0.09593675,-0.79293466,0.03644416,12.99348258972168,1.9452307224273682,-7.008796691894531,32.24015808105469,300.07110595703125, 90.62177276611328
451,112407101,0.6338499,0.08716326,-0.76684207,0.050896667,13.047690391540527,2.6810452938079834,-7.484699249267578,27.291133880615234,294.55224609375, 82.18536376953125
452,112423768,0.6645346,0.07835864,-0.7405224,0.062295716,12.729002952575684,3.0590217113494873,-8.04133129119873,12.605401992797852,280.3412780761719, 69.88347625732422
453,112440435,0.69175744,0.06877318,-0.715425,0.07006713,12.246184349060059,3.3910276889801025,-8.50544548034668,-8.133445739746094,255.693359375, 59.503604888916016
454,112457102,0.71522546,0.0593636,-0.69223964,0.075718075,11.347084045410156,2.681755304336548,-9.46426010131836,-16.917600631713867,227.27491760253906, 51.347694396972656
455,112473769,0.7350006,0.05372504,-0.6709733,0.081748985,9.701476097106934,2.473156690597534,-10.55938720703125,3.911284923553467,198.74307250976562, 38.04322814941406
456,112490436,0.75119114,0.052345145,-0.6520937,0.088012025,8.572237968444824,2.2853827476501465,-11.409425735473633,26.45846176147461,168.18202209472656, 22.54440689086914
457,112507103,0.763264,0.05555453,-0.6368117,0.093877405,7.190264701843262,2.892771005630493,-12.304195404052734,47.675228118896484,128.6041717529297, 3.7849950790405273
458,112523770,0.7706237,0.060040686,-0.62700456,0.0969515,5.655914306640625,4.2152228355407715,-14.24685001373291,40.40567398071289,77.75833129882812, -11.222358703613281
459,112540437,0.7716761,0.062003773,-0.6257018,0.09575604,4.341798782348633,4.001745700836182,-15.959558486938477,5.5631422996521,5.8943915367126465, -15.127400398254395
460,112557104,0.7674589,0.06126218,-0.6319256,0.08901934,4.952110767364502,6.537722110748291,-15.752681732177734,-35.33420944213867,-56.790306091308594, -26.10426139831543
461,112573771,0.7621414,0.031352364,-0.6439016,0.05956979,18.252168655395508,1.6746563911437988,13.042566299438477,-291.0713195800781,-83.20741271972656, -15.934928894042969
462,112590438,0.7571367,0.0009292326,-0.6521617,0.037795708,18.90129852294922,-13.47544002532959,-5.896416187286377,-258.2813415527344,-60.836517333984375, 25.687862396240234
463,112607105,0.7490061,0.008834882,-0.6613241,0.03952874,9.203248023986816,-7.3884735107421875,-1.1449226140975952,46.53620147705078,-89.10372161865234, -23.366422653198242
464,112623772,0.74145883,0.026146097,-0.66908,0.04344626,10.416199684143066,9.322686195373535,-3.618124485015869,105.27256774902344,-81.56016540527344, -55.34065246582031
465,112640439,0.7312938,0.030628057,-0.68061167,0.03223677,14.223180770874023,-0.9482759833335876,-4.982533931732178,-30.373458862304688,-111.58490753173828, -71.7049560546875
466,112657106,0.7217772,0.0342927,-0.6907994,0.025650973,11.255500793457031,2.8659942150115967,-1.564729928970337,-12.678566932678223,-100.4562759399414, -45.08293914794922
467,112673773,0.71384,0.036287297,-0.69907355,0.020299096,9.513615608215332,0.975864827632904,-2.19950532913208,-15.129352569580078,-82.81006622314453, -31.678943634033203
468,112690440,0.707622,0.041024912,-0.7051286,0.019540222,9.705610275268555,-0.6556215286254883,-1.2051026821136475,20.30097770690918,-62.82225036621094, -23.097270965576172
469,112707107,0.7020925,0.046310104,-0.71032757,0.018886253,11.531803131103516,0.6968460083007812,-0.4535380005836487,23.39508628845215,-55.32497787475586, -25.61263656616211
470,112723774,0.6969431,0.04782697,-0.71542645,0.012171862,10.03286075592041,1.8898447751998901,-0.2577202618122101,-24.497343063354492,-54.41883087158203, -36.54243469238281
471,112740441,0.6924082,0.044540007,-0.72012866,0.001488317,10.307947158813477,0.8602739572525024,-0.28944364190101624,-67.20219421386719,-50.41305160522461, -32.070194244384766
472,112757108,0.6877524,0.046364613,-0.7244552,-0.0034691775,10.507823944091797,-1.52570641040802,-0.35610654950141907,-14.469953536987305,-47.53683853149414, -30.222976684570312
473,112773775,0.6832391,0.055112645,-0.7281117,-0.00075961265,8.553558349609375,0.9679814577102661,0.026042893528938293,56.388877868652344,-41.057682037353516, -28.737741470336914
474,112790442,0.6785283,0.06344772,-0.7318222,0.0032026465,10.064096450805664,2.5591728687286377,-0.20497730374336243,60.803001403808594,-41.83817672729492, -20.77337074279785
475,112807109,0.67360824,0.06695145,-0.7360469,0.002162074,9.936820030212402,3.4931252002716064,0.23762542009353638,13.185125350952148,-47.37900924682617, -19.536561965942383
476,112823776,0.6690885,0.065097615,-0.74031776,-0.0035835858,8.757942199707031,1.8346198797225952,-0.17217333614826202,-35.598079681396484,-47.69160842895508, -14.129857063293457
477,112840443,0.66442764,0.062781654,-0.74465513,-0.009143364,9.754855155944824,0.634610652923584,-0.46960142254829407,-36.69900131225586,-48.67601776123047, -10.869062423706055
478,112857110,0.6591511,0.063133374,-0.74924487,-0.012900136,9.728461265563965,0.2885156273841858,-0.7059018015861511,-14.98947525024414,-52.063480377197266, -16.233549118041992
479,112873777,0.6533778,0.06614557,-0.7540023,-0.014252929,9.083980560302734,0.6528435349464417,-0.8111542463302612,9.685847282409668,-54.12403106689453, -19.042705535888672
480,112890444,0.64725626,0.07015064,-0.75890493,-0.014209759,9.769956588745117,1.3181371688842773,-0.8311274647712708,21.561866760253906,-55.864315032958984, -17.906225204467773
481,112907111,0.640853,0.07324964,-0.76401705,-0.014844784,10.078983306884766,1.8256607055664062,-1.009006381034851,14.159566879272461,-58.703338623046875, -16.12770652770996
482,112923778,0.63439405,0.07480907,-0.7692003,-0.016708681,9.935858726501465,1.4330229759216309,-1.3641839027404785,0.9717011451721191,-60.10774230957031, -13.41671371459961
483,112940445,0.62786764,0.07630832,-0.7743511,-0.018437793,9.984103202819824,1.0194027423858643,-1.7518583536148071,1.4674158096313477,-60.27932357788086, -12.538209915161133
484,112957112,0.6212058,0.07826756,-0.77948064,-0.019692548,9.984236717224121,1.0646601915359497,-1.8209387063980103,6.0538811683654785,-60.61371612548828, -12.983664512634277
485,112973779,0.61429816,0.0804156,-0.78468955,-0.020827018,9.892065048217773,1.2460917234420776,-1.7473077774047852,7.656124114990234,-62.1947135925293, -13.489056587219238
486,112990446,0.6068363,0.082628295,-0.7902137,-0.02201784,9.819976806640625,1.4662654399871826,-1.5357550382614136,7.986842632293701,-66.55918884277344, -13.9933443069458
487,113007113,0.598506,0.08472743,-0.7962855,-0.023267198,9.812738418579102,1.709634780883789,-1.1823358535766602,7.786230564117432,-73.64458465576172, -13.448972702026367
488,113023780,0.5890904,0.08659121,-0.8030316,-0.024801003,9.94818115234375,1.8346080780029297,-1.0203957557678223,6.022879123687744,-82.61029815673828, -13.115575790405273
489,113040447,0.5784718,0.088790685,-0.8104302,-0.026262049,10.09785270690918,1.1681500673294067,-1.0650980472564697,8.637539863586426,-91.85377502441406, -14.494416236877441
490,113057114,0.5663475,0.0917438,-0.8186007,-0.026959952,10.311655044555664,0.29716232419013977,-1.6601711511611938,16.963396072387695,-102.77574920654297, -15.482123374938965
491,113073781,0.5528237,0.09471515,-0.82743746,-0.027619842,10.987034797668457,0.9254594445228577,-1.9471955299377441,18.269088745117188,-113.27671813964844, -15.326557159423828
492,113090448,0.5377987,0.09701973,-0.8370022,-0.028064255,12.549269676208496,1.2087587118148804,-1.7985708713531494,18.08622932434082,-124.63844299316406, -10.560084342956543
493,113107115,0.5212372,0.096916884,-0.8473715,-0.029676614,13.828428268432617,0.9553362727165222,-1.5703237056732178,3.6651082038879395,-137.8000946044922, -0.8224403262138367
494,113123782,0.50250864,0.0951931,-0.85875225,-0.031110834,15.290428161621094,-0.3010290861129761,-0.7803133726119995,0.5638535022735596,-154.40061950683594, 9.439555168151855
495,113140449,0.48115125,0.09367327,-0.87102485,-0.032167584,15.926172256469727,-0.2099665403366089,1.1175074577331543,5.413400650024414,-172.9075927734375, 9.470419883728027
496,113157116,0.45753658,0.094369434,-0.8835137,-0.034039177,14.538361549377441,0.6041454076766968,3.1166059970855713,9.374677658081055,-187.44143676757812, -6.945323944091797
497,113173783,0.43423152,0.09945579,-0.89448136,-0.03814301,15.973128318786621,-4.0946760177612305,-1.3859864473342896,9.107857704162598,-181.49261474609375, -41.62139129638672
498,113190450,0.40927187,0.11266542,-0.90487355,-0.03173356,13.903277397155762,-0.024204157292842865,-3.3674871921539307,98.94203186035156,-180.87193298339844, -61.17141342163086
499,113207117,0.3841712,0.12512605,-0.9142432,-0.030256981,13.333152770996094,6.275081634521484,-4.693367004394531,66.02849578857422,-183.0232696533203, -71.2543716430664
500,113223784,0.3616256,0.13332637,-0.9219685,-0.037751164,14.255451202392578,2.043733596801758,-3.7535674571990967,-4.01937198638916,-171.35218811035156, -69.00347137451172
501,113240451,0.34312594,0.14104529,-0.92757976,-0.044347834,14.313323974609375,-0.7107171416282654,-1.7319036722183228,-3.7308149337768555,-139.93966674804688, -64.65428161621094
502,113257118,0.33110458,0.14810376,-0.9306523,-0.048183203,10.054677963256836,1.768067479133606,3.412684202194214,5.264532089233398,-90.40045928955078, -54.50334167480469
503,113273785,0.32713458,0.15212624,-0.93108654,-0.05402595,7.361414432525635,0.30989232659339905,2.6569464206695557,-23.481983184814453,-36.17291259765625, -39.70533752441406
504,113290452,0.3289376,0.15455374,-0.9300991,-0.05318954,8.004855155944824,-1.5495651960372925,2.567469596862793,9.156596183776855,10.195601463317871, -13.854707717895508
505,113307119,0.3374003,0.15451536,-0.9271781,-0.051255025,7.132777214050293,2.0863969326019287,2.675269842147827,2.796971082687378,57.22641372680664, 4.725066184997559
506,113323786,0.35272655,0.15010835,-0.9220486,-0.053646304,6.885027885437012,1.8507237434387207,1.775686502456665,-42.9302978515625,99.7977294921875, 22.605119705200195
507,113340453,0.37359378,0.1439808,-0.9147828,-0.053568445,7.172476768493652,-0.13719405233860016,0.28604888916015625,-37.928993225097656,141.87786865234375, 39.32637405395508
508,113357120,0.39865783,0.13873804,-0.90537375,-0.046068754,7.683099269866943,-0.20768827199935913,-1.0918176174163818,6.051568508148193,181.33541870117188, 52.23090744018555
509,113373787,0.42722377,0.13396381,-0.89353913,-0.03349182,8.416214942932129,1.138187289237976,-2.4179205894470215,34.78899002075195,214.68264770507812, 62.04327392578125
510,113390454,0.45866597,0.12799768,-0.8791167,-0.019905563,9.26163387298584,2.4806482791900635,-3.605407476425171,34.207122802734375,240.54161071777344, 70.6669921875
511,113407121,0.4921349,0.119913116,-0.8621825,-0.008103015,10.531760215759277,3.140507459640503,-4.6265482902526855,14.582505226135254,258.81103515625, 75.99187469482422
512,113423788,0.52647877,0.1105084,-0.84297293,0.0022648736,11.587268829345703,2.7218778133392334,-5.3443074226379395,0.7227933406829834,270.4203186035156, 77.21428680419922
513,113440455,0.56076175,0.10120391,-0.8216538,0.013762572,12.28982925415039,2.347193717956543,-5.987378120422363,7.661109924316406,278.56939697265625, 79.18952941894531
514,113457122,0.5940917,0.092744865,-0.79860187,0.02624559,12.968035697937012,2.599109649658203,-6.489346504211426,17.259733200073242,280.5137634277344, 77.1607666015625
515,113473789,0.62583214,0.08518969,-0.77436525,0.037887197,13.053306579589844,2.6901333332061768,-6.825361728668213,17.486968994140625,276.0003662109375, 68.3698959350586
516,113490456,0.65552914,0.07870103,-0.7494862,0.04856372,12.786650657653809,2.227957010269165,-7.005856513977051,18.247873306274414,267.1569519042969, 58.7732048034668
517,113507123,0.682782,0.07358355,-0.7245405,0.058612775,12.00661563873291,1.764479160308838,-7.0733489990234375,22.46768569946289,254.21499633789062, 49.730613708496094
518,113523790,0.7073831,0.069364585,-0.7001937,0.067279994,11.23542308807373,1.614081859588623,-7.315004825592041,20.852813720703125,237.31336975097656, 40.19723892211914
519,113540457,0.72916204,0.06593263,-0.6771153,0.07409908,10.3607816696167,1.6409013271331787,-7.59580659866333,16.489986419677734,216.52371215820312, 29.380529403686523
520,113557124,0.7480079,0.062956445,-0.65599126,0.07871687,9.883820533752441,2.268123149871826,-8.05968952178955,8.817187309265137,192.07601928710938, 18.648775100708008
521,113573791,0.76378924,0.05944919,-0.6377441,0.079840116,9.073266983032227,2.9920406341552734,-9.154189109802246,-9.948212623596191,162.4935760498047, 6.027904510498047
522,113590458,0.77585363,0.05475974,-0.62374014,0.0774664,7.498050689697266,2.672715187072754,-10.847803115844727,-32.32346725463867,123.42626190185547, -3.313833475112915
523,113607125,0.7830302,0.051604632,-0.6154062,0.073999025,6.155213356018066,2.20166015625,-12.14837646484375,-30.02647590637207,71.32484436035156, -10.937459945678711
524,113623792,0.78449005,0.051976386,-0.61390513,0.07067037,5.149091720581055,1.8959674835205078,-15.296072959899902,-11.914234161376953,8.969310760498047, -19.736726760864258
525,113640459,0.78050923,0.055170916,-0.61904424,0.067423135,5.431290626525879,3.4131710529327393,-15.534516334533691,2.3685169219970703,-50.71394729614258, -26.15560531616211
526,113657126,0.7735977,0.05124323,-0.62915516,0.05554011,9.576045989990234,6.622104644775391,1.3127440214157104,-73.80696105957031,-89.41201782226562, -38.86097717285156
527,113673793,0.7711496,0.016931837,-0.6357522,0.029340528,23.747655868530273,-5.641972064971924,7.415677070617676,-297.6604919433594,-44.89448165893555, 13.652297019958496
528,113690460,0.7647204,0.004857689,-0.6440455,0.019611586,9.753252029418945,-12.466636657714844,-5.4022417068481445,-107.52581787109375,-73.96444702148438, 4.618035793304443
529,113707127,0.7571638,0.01240573,-0.6527559,0.021421434,11.723282814025879,-1.2431409358978271,-1.2845790386199951,46.75477600097656,-83.22901153564453, -21.76288604736328
530,113723794,0.749769,0.027145082,-0.6608221,0.020590922,10.844219207763672,6.6946120262146,-3.8493733406066895,72.43238067626953,-80.3480224609375, -67.9001693725586
531,113740461,0.7394272,0.031167492,-0.67243654,0.010260551,14.024991035461426,0.44634872674942017,-3.4446375370025635,-25.931968688964844,-112.14263916015625, -66.9365005493164
532,113757128,0.73030585,0.0338798,-0.68227565,0.0023817776,10.565982818603516,3.3914194107055664,-1.5860509872436523,-21.39110565185547,-96.73421478271484, -48.88052749633789
533,113773795,0.7226759,0.03570119,-0.6902576,-0.0031068583,9.376386642456055,-0.40887755155563354,-1.3617258071899414,-14.960972785949707,-79.78368377685547, -33.08406066894531
534,113790462,0.71636343,0.041479714,-0.69648486,-0.0034173997,10.535317420959473,0.39147382974624634,-0.6133877635002136,28.91414451599121,-63.41474151611328, -26.568864822387695
535,113807129,0.71039855,0.04526647,-0.70230293,-0.0074424422,11.08626937866211,1.8206101655960083,-0.012630067765712738,1.2123278379440308,-60.819557189941406, -35.45030975341797
536,113823796,0.7045803,0.04520859,-0.7080111,-0.015594199,9.921972274780273,1.5358940362930298,0.06939918547868729,-37.5367317199707,-61.05965042114258, -37.04698181152344
537,113840463,0.6991921,0.044820607,-0.71316767,-0.022664763,10.650653839111328,1.0472029447555542,-0.15796636044979095,-34.059715270996094,-56.007869720458984, -30.31110191345215
538,113857130,0.6942449,0.04992186,-0.7176087,-0.023868958,9.160449981689453,-0.2048519402742386,-0.5157760381698608,20.852500915527344,-47.749107360839844, -29.18189811706543
539,113873797,0.6897695,0.058949664,-0.7213574,-0.019656064,9.45898151397705,1.8972877264022827,-0.42917174100875854,66.04496002197266,-39.60824203491211, -22.900588989257812
540,113890464,0.6851911,0.06472508,-0.7252583,-0.018007366,10.669766426086426,3.000455617904663,-0.2939354181289673,37.9707145690918,-42.3148307800293, -18.876157760620117
541,113907131,0.6808014,0.06487381,-0.7292607,-0.021907173,9.1180419921875,2.8138086795806885,-0.1279669851064682,-16.261520385742188,-45.02840042114258, -16.855073928833008
542,113923798,0.6767186,0.06259905,-0.73307884,-0.026997598,9.314190864562988,1.2097162008285522,-0.38511908054351807,-33.72405242919922,-43.54497528076172, -10.275223731994629
543,113940465,0.67229784,0.062354285,-0.7370189,-0.030511307,9.865478515625,0.9317773580551147,-0.44519102573394775,-16.15628433227539,-44.77913284301758, -13.184661865234375
544,113957132,0.66747576,0.064697966,-0.74111325,-0.032269876,8.94274616241455,1.0319924354553223,-0.45233017206192017,4.911425590515137,-46.248321533203125, -18.222095489501953
545,113973799,0.66231644,0.06910146,-0.7453496,-0.031872187,9.246336936950684,1.5544661283493042,-0.5265939831733704,25.538427352905273,-47.216949462890625, -18.848281860351562
546,113990466,0.6568501,0.073017694,-0.7498058,-0.03174254,9.768380165100098,2.218982696533203,-0.656563937664032,22.149150848388672,-50.0394172668457, -17.540021896362305
547,114007133,0.65133095,0.074945614,-0.7543501,-0.03327362,9.70896053314209,1.9957963228225708,-1.0440559387207031,4.668968677520752,-51.99454116821289, -14.74854850769043
548,114023800,0.64580566,0.07616188,-0.75886416,-0.03549163,9.707406997680664,1.1935409307479858,-1.5230153799057007,-2.074816942214966,-52.4203987121582, -14.146772384643555
549,114040467,0.640251,0.07826308,-0.7632696,-0.03705569,9.902494430541992,1.1137386560440063,-1.8142945766448975,5.259193420410156,-51.538291931152344, -15.94034481048584
550,114057134,0.6348212,0.080928914,-0.76745355,-0.03830761,9.94591999053955,1.4023915529251099,-1.958200454711914,9.261921882629395,-49.59809875488281, -17.636686325073242
551,114073801,0.6295956,0.08361953,-0.77139264,-0.039634738,9.911568641662598,1.5363328456878662,-2.0446507930755615,8.79612922668457,-47.488182067871094, -18.192729949951172
552,114090468,0.6244842,0.08626698,-0.7751723,-0.041058198,9.947754859924316,1.4871405363082886,-1.9387662410736084,7.993405342102051,-46.26333236694336, -18.453859329223633
553,114107135,0.6193103,0.08887014,-0.7789407,-0.042521548,9.950387001037598,1.4462182521820068,-1.7456740140914917,7.626577377319336,-46.592750549316406, -18.427810668945312
554,114123802,0.61372644,0.09152906,-0.7829507,-0.04416722,9.761374473571777,1.7128040790557861,-1.4093865156173706,7.211156845092773,-49.92975616455078, -19.491605758666992
555,114140469,0.6074391,0.09393483,-0.78742605,-0.046414938,9.611725807189941,1.8544598817825317,-1.1234047412872314,3.496093988418579,-56.161983489990234, -20.601512908935547
556,114157136,0.600125,0.09644902,-0.79257286,-0.04874332,9.493046760559082,1.8347247838974,-1.0097103118896484,4.400954723358154,-64.57731628417969, -21.428524017333984
557,114173803,0.5916452,0.09957006,-0.7984394,-0.050361868,9.590991973876953,1.8723231554031372,-1.3186408281326294,11.80129337310791,-73.26423645019531, -21.731258392333984
558,114190470,0.5819648,0.10274415,-0.80506927,-0.051228367,10.515326499938965,1.9122122526168823,-1.4728178977966309,17.247835159301758,-82.46295928955078, -18.870141983032227
559,114207137,0.57135195,0.10567389,-0.8121935,-0.05226822,11.278311729431152,1.8128260374069214,-1.5552148818969727,16.15757942199707,-89.85537719726562, -18.208467483520508
560,114223804,0.5596074,0.10894765,-0.81987435,-0.05269349,11.44499397277832,1.0996108055114746,-1.9218807220458984,21.979869842529297,-97.84538269042969, -17.7435245513916
561,114240471,0.5465365,0.11194638,-0.828242,-0.052743204,12.532039642333984,1.2861343622207642,-1.3818726539611816,24.287723541259766,-107.83651733398438, -14.75570011138916
562,114257138,0.53207886,0.113814935,-0.8372502,-0.054320887,12.384000778198242,0.7300716042518616,-1.1915078163146973,12.653066635131836,-119.80929565429688, -14.11619758605957
563,114273805,0.5154786,0.115339026,-0.84731114,-0.05516336,13.445556640625,0.12731517851352692,-1.0071176290512085,17.700321197509766,-135.64434814453125, -9.473663330078125
564,114290472,0.49623582,0.116102956,-0.8585539,-0.056175448,14.473670959472656,1.380876898765564,0.6355313062667847,16.565006256103516,-155.771240234375, -5.783988952636719
565,114307139,0.4748116,0.11729735,-0.8701975,-0.059596416,14.290102005004883,0.7874402403831482,2.3256499767303467,5.739995002746582,-171.94580078125, -17.12558364868164
566,114323806,0.45131284,0.12244185,-0.8817855,-0.061472718,15.142542839050293,-2.073559045791626,0.7427297830581665,29.556446075439453,-181.52560424804688, -36.67867660522461
567,114340473,0.42674133,0.13248718,-0.8925389,-0.060940053,14.06607437133789,-1.1088790893554688,-1.9096797704696655,59.903533935546875,-181.5440673828125, -60.186378479003906
568,114357140,0.4013175,0.14662227,-0.9022448,-0.058315087,12.684693336486816,1.0311578512191772,-5.315937519073486,85.07025146484375,-180.2364959716797, -80.53852844238281
569,114373807,0.37608638,0.1611637,-0.9106101,-0.058092576,13.68558406829834,4.375340461730957,-4.840324401855469,70.55332946777344,-177.68724060058594, -90.99182891845703
570,114390474,0.3545217,0.17326754,-0.91666895,-0.06333228,13.081551551818848,2.381659984588623,-3.221292495727539,25.1318359375,-155.903564453125, -90.94615173339844
571,114407141,0.33773643,0.18353993,-0.9207849,-0.06635193,14.200262069702148,0.5586925148963928,0.003761202096939087,28.16358184814453,-119.33523559570312, -74.25724792480469
572,114423808,0.32916594,0.1919782,-0.9218573,-0.070525795,9.818244934082031,1.519169807434082,3.463294744491577,4.872311592102051,-62.76710510253906, -65.48521423339844
573,114440475,0.32812756,0.19806114,-0.9207579,-0.07286516,8.258200645446777,-1.3149518966674805,2.585775136947632,0.23953820765018463,-9.021105766296387, -45.651634216308594
574,114457142,0.3328307,0.20325369,-0.91843605,-0.066235125,8.009047508239746,-1.0327764749526978,2.2131776809692383,46.588077545166016,41.698848724365234, -18.612438201904297
575,114473809,0.3441953,0.2052055,-0.9142577,-0.0596106,7.129599571228027,1.9068981409072876,1.6087692975997925,28.984607696533203,86.38343811035156, 2.25534725189209
576,114490476,0.36200437,0.20274164,-0.90810233,-0.05655882,7.1215500831604,1.492538571357727,0.300557941198349,-13.787117004394531,124.60578155517578, 21.41840171813965
577,114507143,0.3845356,0.1979771,-0.9001649,-0.051388953,7.492259502410889,-0.07586827129125595,-1.2938746213912964,-13.546515464782715,160.49615478515625, 40.40354919433594
578,114523810,0.4104702,0.19245018,-0.89040554,-0.04069006,7.889377593994141,-0.1980118602514267,-2.6793034076690674,13.354543685913086,193.56565856933594, 58.45749282836914
579,114540477,0.4393637,0.1853482,-0.87857395,-0.026712066,8.287155151367188,0.8989086151123047,-3.717435121536255,24.44753646850586,221.382080078125, 75.44719696044922
580,114557144,0.47074282,0.175706,-0.86450356,-0.012743426,9.374897956848145,1.6188478469848633,-4.765211582183838,13.092180252075195,242.65733337402344, 88.39421844482422
581,114573811,0.50345063,0.16425745,-0.84826654,0.0010754707,10.311161041259766,1.395882487297058,-5.583695888519287,4.5205817222595215,257.2225036621094, 96.17000579833984
582,114590478,0.53650296,0.15247534,-0.8298507,0.01624805,11.092146873474121,1.3135732412338257,-5.939748764038086,10.834590911865234,268.3165283203125, 100.36177062988281
583,114607145,0.5693133,0.14079401,-0.80931544,0.032685447,11.643156051635742,1.5803195238113403,-6.352240085601807,18.84398078918457,276.09613037109375, 102.28894805908203
584,114623812,0.6015727,0.12888023,-0.7868812,0.04815028,12.638376235961914,2.1548142433166504,-6.793717384338379,13.43828010559082,279.6272277832031, 98.08589935302734
585,114640479,0.6325466,0.117650256,-0.7630053,0.062180378,12.784518241882324,2.4798192977905273,-7.206872940063477,10.08457088470459,277.21075439453125, 87.63395690917969
586,114657146,0.6615878,0.1083395,-0.73818105,0.07518847,12.043342590332031,3.0026931762695312,-7.311835289001465,14.989710807800293,269.64910888671875, 73.2267837524414
587,114673813,0.68848234,0.100781575,-0.7128974,0.08725004,11.660489082336426,2.257084608078003,-7.828888893127441,19.979440689086914,259.3611145019531, 60.853981018066406
588,114690480,0.71250725,0.09722483,-0.6876256,0.100259975,11.238868713378906,2.328187942504883,-8.663833618164062,45.52615737915039,243.65467834472656, 47.518287658691406
589,114707147,0.7334578,0.09679265,-0.66334987,0.11241863,10.16365909576416,3.4158997535705566,-9.668577194213867,58.153533935546875,221.70767211914062, 31.42702865600586
590,114723814,0.7512242,0.09680563,-0.6415075,0.12148757,9.202474594116211,3.9753856658935547,-11.190369606018066,46.52409744262695,192.73599243164062, 17.982505798339844
591,114740481,0.76501745,0.096322805,-0.62411225,0.12631167,7.881826400756836,5.098694801330566,-12.757112503051758,24.144390106201172,150.08938598632812, 4.6108479499816895
592,114757148,0.7731874,0.09404258,-0.6144935,0.12544023,4.143630027770996,4.014611721038818,-17.092201232910156,-12.796860694885254,83.13887023925781, -7.499650955200195
593,114773815,0.77385336,0.09159465,-0.6148213,0.12147576,3.2542240619659424,3.9922869205474854,-18.781646728515625,-30.493846893310547,-2.929450273513794, -10.25715446472168
594,114790482,0.7683108,0.08887884,-0.6238742,0.1121616,5.042614936828613,5.97387170791626,-13.23905086517334,-57.919151306152344,-78.35502624511719, -26.834457397460938
595,114807149,0.7663955,0.05683203,-0.63446265,0.082856745,22.138303756713867,3.9152164459228516,17.362979888916016,-302.1085510253906,-60.268333435058594, -8.354214668273926
596,114823816,0.7621525,0.029809728,-0.6437545,0.0617697,14.577400207519531,-13.296635627746582,-6.798293113708496,-238.0753173828125,-63.55064392089844, 13.93108081817627
597,114840483,0.7541318,0.036747698,-0.6527664,0.06189717,10.232612609863281,-5.9100213050842285,-1.8072850704193115,34.738525390625,-88.69317626953125, -23.931846618652344
598,114857150,0.7465506,0.053224698,-0.6601497,0.063498475,11.336057662963867,5.52183723449707,-4.926342964172363,91.4108657836914,-81.89410400390625, -59.82206726074219
599,114873817,0.73670197,0.062153682,-0.67098725,0.056424335,14.409361839294434,-1.266886830329895,-3.8090498447418213,12.613853454589844,-109.66352081298828, -67.7347412109375
600,114890484,0.728455,0.06854628,-0.67981255,0.050095744,11.125578880310059,4.061341762542725,-2.369990825653076,3.2961442470550537,-90.67393493652344, -53.76957702636719
601,114907151,0.7216841,0.06870212,-0.68756944,0.04123703,9.619706153869629,1.0118178129196167,-1.5815385580062866,-40.0890007019043,-77.40995788574219, -38.229209899902344
602,114923818,0.71632093,0.0721421,-0.6930414,0.037064437,9.598240852355957,-0.49775663018226624,-0.9097772836685181,-1.6550540924072266,-58.10120391845703, -31.96933937072754
603,114940485,0.71180004,0.07647139,-0.697395,0.033667084,11.09489917755127,1.3152753114700317,-0.08915984630584717,6.28118896484375,-48.4040412902832, -33.182464599609375
604,114957152,0.7077238,0.07699013,-0.70181364,0.025638644,10.052277565002441,1.937778115272522,0.026144690811634064,-34.82141876220703,-48.144344329833984, -37.63408279418945
605,114973819,0.7040167,0.07465,-0.70605934,0.01638945,10.45367431640625,0.9308111071586609,0.12637311220169067,-54.781700134277344,-45.676177978515625, -29.910139083862305
606,114990486,0.6999247,0.07720021,-0.7099286,0.012140867,9.628759384155273,-0.8401718735694885,0.08002063632011414,-6.593055248260498,-43.72017288208008, -29.593280792236328
607,115007153,0.6955058,0.08568485,-0.7132496,0.014321517,8.90153694152832,1.1447317600250244,0.1928771734237671,53.56177520751953,-39.76850891113281, -27.925172805786133
608,115023820,0.69080734,0.09306407,-0.7168367,0.016420987,10.112427711486816,2.708341121673584,0.17978964745998383,48.02358627319336,-42.35813522338867, -22.715105056762695
609,115040487,0.6862704,0.09592845,-0.7208561,0.014060214,9.791250228881836,2.78726863861084,0.04686703532934189,4.450714588165283,-45.972652435302734, -21.366436004638672
610,115057154,0.68211764,0.09570407,-0.72489315,0.0092917215,9.027005195617676,1.7814935445785522,-0.3107104003429413,-22.300674438476562,-45.45928955078125, -17.41604232788086
611,115073821,0.67792845,0.09537529,-0.72889876,0.004832098,9.816609382629395,1.3673889636993408,-0.41271358728408813,-21.218120574951172,-45.29629898071289, -15.45472240447998
612,115090488,0.6734223,0.0964599,-0.73293686,0.0013574159,9.717826843261719,0.997186005115509,-0.6025551557540894,-9.47990894317627,-46.45122528076172, -17.915977478027344
613,115107155,0.6686402,0.09866007,-0.7370113,-0.0010421587,9.5098295211792,0.9735175371170044,-0.7033188939094543,1.2892460823059082,-47.31834411621094, -18.543048858642578
614,115123822,0.66347706,0.101996236,-0.7412085,-0.0022830819,9.741060256958008,1.2132796049118042,-0.7635706663131714,12.645779609680176,-49.027870178222656, -18.904850006103516
615,115140489,0.6580779,0.10525555,-0.74554855,-0.003546882,9.833719253540039,1.6869481801986694,-0.8471682071685791,12.3495454788208,-50.90976333618164, -18.530874252319336
616,115157156,0.65261996,0.10756851,-0.7499896,-0.0056498586,9.883056640625,1.5571538209915161,-1.0601359605789185,3.816915988922119,-52.310020446777344, -17.407026290893555
617,115173823,0.64706737,0.10977917,-0.7544468,-0.0079088705,9.953481674194336,1.2446573972702026,-1.306884765625,2.626477003097534,-53.00202178955078, -17.57573127746582
618,115190490,0.64132255,0.11264174,-0.75889575,-0.009740778,9.863260269165039,1.2226898670196533,-1.4191547632217407,7.895955562591553,-53.61214065551758, -19.08676528930664
619,115207157,0.6353485,0.115964055,-0.76338804,-0.011110999,9.845198631286621,1.423412561416626,-1.4442209005355835,12.511530876159668,-54.61965560913086, -19.44440269470215
620,115223824,0.6290703,0.119495235,-0.7680096,-0.012366653,9.855411529541016,1.6611768007278442,-1.3709713220596313,14.280585289001465,-56.68480682373047, -19.97101593017578
621,115240491,0.62228626,0.12322127,-0.77291155,-0.013576672,9.8004150390625,1.645586609840393,-1.266611099243164,15.811531066894531,-60.528438568115234, -20.623828887939453
622,115257158,0.61475205,0.12714596,-0.77826476,-0.014760334,9.754914283752441,2.1719980239868164,-0.9564313292503357,17.48678207397461,-66.42388153076172, -21.263973236083984
623,115273825,0.6064452,0.13075535,-0.7841226,-0.016722912,9.650571823120117,1.8897624015808105,-1.0765045881271362,12.72817611694336,-73.43109893798828, -22.508434295654297
624,115290492,0.5971968,0.13471368,-0.79048455,-0.018518226,9.602304458618164,1.7493561506271362,-1.653001070022583,15.995970726013184,-80.44767761230469, -23.35312843322754
625,115307159,0.5869394,0.1384392,-0.7974501,-0.02025708,10.341958999633789,1.5116232633590698,-1.7714276313781738,16.36878204345703,-88.40997314453125, -21.436555862426758
626,115323826,0.5758362,0.14189693,-0.804842,-0.02252849,10.885692596435547,1.6933214664459229,-1.689576268196106,13.246092796325684,-95.33741760253906, -21.849864959716797
627,115340493,0.5634347,0.14555977,-0.81287426,-0.024274796,11.137190818786621,1.3293416500091553,-1.8848576545715332,18.333024978637695,-104.55308532714844, -20.49848175048828
628,115357160,0.5495988,0.14835602,-0.82173,-0.026295975,12.335431098937988,1.4837802648544312,-1.284879446029663,15.028436660766602,-116.2197036743164, -16.16484260559082
629,115373827,0.5339091,0.14993098,-0.83161443,-0.029654814,12.592636108398438,0.5258212089538574,-1.2275285720825195,4.942490100860596,-132.2345733642578, -13.634963035583496
630,115390494,0.5157323,0.15082061,-0.8427508,-0.032321278,14.473282814025879,0.1012670174241066,-0.765030026435852,9.212993621826172,-150.55575561523438, -6.440254211425781
631,115407161,0.49471015,0.15167513,-0.8549962,-0.035190385,15.751330375671387,0.6610155701637268,1.4787931442260742,11.114076614379883,-171.30392456054688, -6.500435829162598
632,115423828,0.47159722,0.15444264,-0.86729026,-0.039389387,15.596516609191895,-0.43982791900634766,2.5271189212799072,12.009495735168457,-184.85183715820312, -22.784881591796875
633,115440495,0.4476524,0.16173877,-0.8783838,-0.043474443,15.383691787719727,-2.8024206161499023,-0.1495184600353241,27.957599639892578,-184.75521850585938, -51.0084342956543
634,115457162,0.42249757,0.17502898,-0.8883504,-0.04116137,13.315155982971191,-3.2177467346191406,-4.057988166809082,86.0279312133789,-179.84710693359375, -69.225830078125
635,115473829,0.39604113,0.19044894,-0.89753664,-0.03617816,11.608189582824707,4.108096122741699,-5.979598522186279,109.81195831298828,-181.8126983642578, -75.85586547851562
636,115490496,0.37205076,0.20131916,-0.90517753,-0.041265618,13.343049049377441,3.699519395828247,-4.605121612548828,31.694522857666016,-176.74708557128906, -76.60090637207031
637,115507163,0.35310885,0.21116054,-0.9101299,-0.048882302,13.375222206115723,0.2780070900917053,-2.627673864364624,5.608187675476074,-142.33511352539062, -78.96478271484375
638,115523830,0.34039703,0.21933141,-0.9128857,-0.05161147,12.027236938476562,0.4295195937156677,1.790330410003662,22.35803985595703,-91.60890197753906, -57.79067611694336
639,115540497,0.33658922,0.22423705,-0.9128596,-0.055796117,9.001882553100586,0.9678966403007507,3.065640926361084,-8.808948516845703,-32.73305130004883, -41.78463363647461
640,115557164,0.33833593,0.22631489,-0.9117696,-0.05465258,7.6055474281311035,-2.1149749755859375,1.5877554416656494,9.153214454650879,11.580584526062012, -11.247740745544434
641,115573831,0.3447182,0.22642109,-0.9097903,-0.046743758,7.157633304595947,0.7221304178237915,1.4505610466003418,39.406341552734375,52.385494232177734, 17.16779899597168
642,115590498,0.35748756,0.22174846,-0.9062372,-0.04200784,7.08050012588501,2.404972553253174,0.4707149267196655,-2.206275463104248,89.49501037597656, 39.1347770690918
643,115607165,0.3758052,0.2135914,-0.90086657,-0.039858952,7.3172478675842285,2.2398502826690674,-0.44174957275390625,-35.8519287109375,123.50423431396484, 53.31521987915039
644,115623832,0.39838722,0.20407873,-0.89350635,-0.03586122,7.43012809753418,0.9979493618011475,-1.6611239910125732,-34.697139739990234,157.33932495117188, 64.72630310058594
645,115640499,0.42407027,0.19489972,-0.88403684,-0.025649643,7.885698318481445,0.6025720238685608,-2.8337326049804688,-0.4879053235054016,190.92459106445312, 77.49337005615234
646,115657166,0.45227414,0.18597119,-0.8722119,-0.010471341,8.508075714111328,1.449698567390442,-3.7142221927642822,26.61601448059082,219.78555297851562, 87.7496337890625
647,115673833,0.48264053,0.17660174,-0.85780156,0.006821708,9.437948226928711,2.0647757053375244,-4.428549766540527,34.95415496826172,243.4496612548828, 93.85027313232422
648,115690500,0.51437926,0.16727751,-0.8407244,0.024795694,10.38656997680664,2.4114091396331787,-4.9317145347595215,37.568260192871094,261.212890625, 92.57634735107422
649,115707167,0.5470557,0.15771337,-0.8210295,0.042040315,11.1815767288208,2.415992259979248,-5.371330261230469,31.8498477935791,275.0989990234375, 88.25961303710938
650,115723834,0.5799248,0.14802636,-0.79894364,0.058861632,11.583739280700684,2.264089822769165,-6.076546669006348,29.465497970581055,284.7771301269531, 84.75723266601562
651,115740501,0.6121001,0.13849793,-0.77495193,0.074842826,12.65726375579834,2.2692456245422363,-6.568165302276611,26.93465232849121,287.6890869140625, 78.92269134521484
652,115757168,0.6425895,0.13015844,-0.7497011,0.0899232,13.18184757232666,2.0898025035858154,-6.940320014953613,29.388914108276367,282.59490966796875, 68.5056381225586
653,115773835,0.67072695,0.12299801,-0.723999,0.10403118,13.03935432434082,2.200695276260376,-7.176529884338379,31.928678512573242,270.94403076171875, 59.2294807434082
654,115790502,0.6962744,0.11587342,-0.6987386,0.11636181,12.154994010925293,2.5620932579040527,-7.788688659667969,25.078725814819336,254.586669921875, 53.12834548950195
655,115807169,0.71874,0.108982235,-0.6748376,0.1270049,11.135991096496582,2.709200859069824,-8.682467460632324,19.467479705810547,231.8684539794922, 47.52923583984375
656,115823836,0.73781466,0.10342088,-0.6529215,0.13648216,9.97070598602295,3.293081760406494,-9.88149642944336,21.40127944946289,204.44830322265625, 40.09876251220703
657,115840503,0.7532867,0.09925133,-0.63412136,0.14352156,8.408326148986816,4.118735313415527,-11.199816703796387,17.129234313964844,169.6156463623047, 27.140729904174805
658,115857170,0.7645899,0.09616986,-0.62021095,0.14660186,6.031070232391357,5.449488639831543,-12.313716888427734,3.5174577236175537,122.5516128540039, 9.416760444641113
659,115873837,0.7709256,0.09344847,-0.613264,0.14438967,3.769381523132324,5.539121150970459,-15.435904502868652,-20.915761947631836,61.13011932373047, -10.24009895324707
660,115890504,0.77101296,0.09288988,-0.6145041,0.13890776,3.6122817993164062,4.2168097496032715,-16.826383590698242,-27.359529495239258,-12.586466789245605, -25.136281967163086
661,115907171,0.7660234,0.08964045,-0.6238359,0.12649783,6.205025672912598,6.760171413421631,-7.7081098556518555,-75.38983917236328,-78.4986572265625, -40.40980529785156
662,115923838,0.76340353,0.044600412,-0.63739496,0.094624616,26.671897888183594,-10.486557960510254,10.414335250854492,-384.3079528808594,-66.16915130615234, 37.0197639465332
663,115940505,0.7570606,0.030571843,-0.64763415,0.08059085,8.463651657104492,-15.830463409423828,-5.875441074371338,-139.84202575683594,-79.85874938964844, -4.023431301116943
664,115957172,0.7498126,0.04875949,-0.65384233,0.08884964,10.687668800354004,0.7965255975723267,0.022298410534858704,129.56431579589844,-75.94705200195312, -32.04985427856445
665,115973839,0.7422671,0.06952845,-0.66062605,0.088199034,11.483685493469238,9.221318244934082,-5.918936252593994,102.57170867919922,-84.7851333618164, -89.20124816894531
666,115990506,0.73160696,0.07159225,-0.67384887,0.07452294,15.07431697845459,0.36118555068969727,-2.487912893295288,-54.483394622802734,-126.55628967285156, -65.59031677246094
667,116007173,0.7224164,0.073931396,-0.6844284,0.06485969,9.803731918334961,2.785259485244751,-2.272648334503174,-33.8763427734375,-104.55547332763672, -48.72348403930664
668,116023840,0.7148159,0.07691053,-0.69244266,0.06038504,9.376678466796875,-0.4557654857635498,-1.5194895267486572,-5.936476707458496,-81.93618774414062, -27.931184768676758
669,116040507,0.7082961,0.08424696,-0.69819176,0.061218634,10.270051002502441,0.20735108852386475,-0.9917604327201843,41.121620178222656,-64.63113403320312, -24.251358032226562
670,116057174,0.70265406,0.088662595,-0.7036099,0.057875574,11.065624237060547,2.350353956222534,-1.0059012174606323,6.479356288909912,-59.97788619995117, -31.14020538330078
671,116073841,0.69804955,0.087176174,-0.7090729,0.048403133,10.482276916503906,1.024103045463562,-0.9417058229446411,-52.334503173828125,-56.554466247558594, -32.55464553833008
672,116090508,0.6940222,0.085694164,-0.71371937,0.039931923,11.011903762817383,-0.0476156547665596,-1.131115198135376,-47.50209426879883,-49.22149658203125, -28.440536499023438
673,116107175,0.6901354,0.08911101,-0.7172529,0.03634161,9.75647258758545,-0.9328009486198425,-0.8438650965690613,0.04110235348343849,-41.68578338623047, -29.895505905151367
674,116123842,0.6862089,0.09840051,-0.7196337,0.039529204,9.157341957092285,0.6552351117134094,-0.7820330858230591,61.643836975097656,-33.721778869628906, -27.426471710205078
675,116140509,0.68233156,0.10600556,-0.7220938,0.042037915,10.57101058959961,2.7320096492767334,-0.4433772563934326,50.277679443359375,-33.84956359863281, -22.267316818237305
676,116157176,0.6791336,0.10723838,-0.7251429,0.038020767,9.385709762573242,2.826521873474121,-0.23942840099334717,-12.675437927246094,-36.16028594970703, -20.989824295043945
677,116173843,0.67652416,0.104467995,-0.7282903,0.031541966,9.088174819946289,1.0163308382034302,-0.39255982637405396,-44.09087371826172,-34.4704704284668, -12.574995040893555
678,116190510,0.6732823,0.103577755,-0.73160386,0.026806794,10.222881317138672,0.39095768332481384,-0.24984011054039001,-26.191280364990234,-37.57923126220703, -13.62000846862793
679,116207177,0.6692209,0.105450824,-0.7351554,0.023878744,9.058131217956543,0.6552966833114624,-0.24062137305736542,-3.76944899559021,-42.044212341308594, -18.846221923828125
680,116223844,0.66445196,0.10920679,-0.7389541,0.022902513,9.139439582824707,0.8884303569793701,-0.20734360814094543,15.235774040222168,-45.66693878173828, -19.097558975219727
681,116240511,0.65906036,0.11342827,-0.7431475,0.02248981,9.821516990661621,1.576833963394165,-0.3267374336719513,20.632171630859375,-50.29924774169922, -18.502532958984375
682,116257178,0.6534097,0.116191596,-0.74774796,0.020708306,9.73883056640625,1.9106776714324951,-0.7807812690734863,7.181750297546387,-54.327613830566406, -16.896831512451172
683,116273845,0.6476714,0.11806886,-0.75249547,0.018223554,9.772531509399414,1.3410707712173462,-1.4049497842788696,-0.357211709022522,-55.88756561279297, -15.364867210388184
684,116290512,0.64180607,0.1204228,-0.7571768,0.01633122,9.869343757629395,1.1627181768417358,-1.7276651859283447,4.944635391235352,-55.834407806396484, -15.233948707580566
685,116307179,0.6358835,0.1230317,-0.7617742,0.014679108,9.86391544342041,1.2505711317062378,-1.8087775707244873,7.380279064178467,-55.59548568725586, -15.571556091308594
686,116323846,0.6298472,0.1254497,-0.7664145,0.01279463,9.813945770263672,1.3095613718032837,-1.7257959842681885,5.421462059020996,-56.560707092285156, -15.54615306854248
687,116340513,0.62345725,0.12804772,-0.77122205,0.011027569,9.733532905578613,1.3465075492858887,-1.6355268955230713,7.1201252937316895,-59.07044219970703, -15.818639755249023
688,116357180,0.61649597,0.13079463,-0.7763616,0.009405882,9.651419639587402,1.5311293601989746,-1.4315840005874634,9.008130073547363,-63.41746520996094, -15.655234336853027
689,116373847,0.6087699,0.13361107,-0.78197515,0.007901043,9.63461685180664,1.417787790298462,-1.451123833656311,10.593008995056152,-69.42581176757812, -15.06088638305664
690,116390514,0.6001349,0.1367762,-0.78809077,0.006602048,9.769598007202148,1.3684676885604858,-1.544193983078003,13.974360466003418,-76.26222229003906, -15.571288108825684
