PacketCounter,SampleTimeFine,Quat_W,Quat_X,Quat_Y,Quat_Z,Acc_X,Acc_Y,Acc_Z,Gyr_X,Gyr_Y,Gyr_Z 
1,4022620355,0.13557246,0.6757208,-0.0966615,0.71810734,0,0,0,0,0, 0
2,4022637022,0.13570525,0.6754483,-0.09686611,0.718311,9.844616889953613,0.42369669675827026,0.6760373115539551,-1.356691837310791,-0.6983558535575867, -0.14026793837547302
3,4022653689,0.13573422,0.67538357,-0.097074114,0.7183384,9.84544563293457,0.4474393129348755,0.6746866106987,-1.471603274345398,-0.7713648080825806, -0.0829211100935936
4,4022670356,0.13581567,0.6754085,-0.09718688,0.71828425,9.836874008178711,0.4461536407470703,0.6617842316627502,-1.3153657913208008,-0.6764313578605652, 0.07282330095767975
5,4022687023,0.13591702,0.67548454,-0.097306095,0.71817744,9.8425874710083,0.4400571286678314,0.6790134906768799,-1.3130351305007935,-0.6278440952301025, 0.2199554741382599
6,4022703690,0.13585253,0.67558306,-0.09728241,0.7181002,9.831561088562012,0.4378679394721985,0.6916893720626831,-1.3729559183120728,-0.8224749565124512, 0.23510533571243286
7,4022720357,0.13590586,0.6756293,-0.09736042,0.718036,9.83569622039795,0.39813461899757385,0.6825239062309265,-1.4179702997207642,-0.7506698369979858, 0.18216392397880554
8,4022737024,0.13589041,0.67565924,-0.097482905,0.71799415,9.835909843444824,0.4343310296535492,0.6727730631828308,-1.4657763242721558,-0.6965373754501343, 0.31896132230758667
9,4022753691,0.13597374,0.67568934,-0.09768235,0.71792287,9.8338623046875,0.44058194756507874,0.652070939540863,-1.4403557777404785,-0.742396891117096, 0.31806492805480957
10,4022770358,0.13597703,0.67575544,-0.09780856,0.7178429,9.829814910888672,0.426179438829422,0.6267995238304138,-1.415601134300232,-0.8239478468894958, 0.39403218030929565
11,4022787025,0.13599952,0.67582566,-0.09797575,0.7177498,9.84574031829834,0.42080429196357727,0.6339734792709351,-1.416715145111084,-0.7174757122993469, 0.4861033856868744
12,4022803692,0.13606863,0.6758996,-0.09820059,0.7176363,9.837112426757812,0.4060171842575073,0.6536654233932495,-1.4701175689697266,-0.7614654898643494, 0.5095069408416748
13,4022820359,0.13596997,0.67600363,-0.0982727,0.71754706,9.841272354125977,0.3978174030780792,0.6833400726318359,-1.4534183740615845,-0.8806158900260925, 0.46624723076820374
14,4022837026,0.13592637,0.67609036,-0.09840466,0.71745557,9.834244728088379,0.4060748219490051,0.6802380681037903,-1.245968222618103,-0.9233889579772949, 0.4793609380722046
15,4022853693,0.13579477,0.6761807,-0.098457605,0.717388,9.854361534118652,0.40133142471313477,0.6222485303878784,-1.112897515296936,-0.9343512058258057, 0.5158333778381348
16,4022870360,0.13573554,0.67627096,-0.09860018,0.71729463,9.828022003173828,0.419613242149353,0.6317785978317261,-1.056306004524231,-0.9821829199790955, 0.6002527475357056
17,4022887027,0.1354808,0.6763889,-0.098581046,0.71723425,9.829276084899902,0.4428124725818634,0.6443120241165161,-0.8324511647224426,-0.9937471747398376, 0.7639307975769043
18,4022903694,0.1350817,0.6765224,-0.09845106,0.7172015,9.827836990356445,0.4399174153804779,0.6663069725036621,-0.8830618262290955,-1.007155418395996, 0.9663735032081604
19,4022920361,0.1358093,0.67650276,-0.09940085,0.7169515,9.849020004272461,0.4230270981788635,0.6197092533111572,-0.8085161447525024,-1.1001423597335815, 1.103529691696167
20,4022937028,0.13584371,0.6765738,-0.09972461,0.716833,9.85254955291748,0.40926843881607056,0.6094698309898376,-0.6464005708694458,-1.0625300407409668, 1.2753267288208008
21,4022953695,0.13558967,0.67668027,-0.099806264,0.71676916,9.86086368560791,0.4201061427593231,0.6004865169525146,-0.6577980518341064,-1.0343942642211914, 1.4284520149230957
22,4022970362,0.13517103,0.6768029,-0.09974423,0.7167412,9.837035179138184,0.4217044413089752,0.6288844347000122,-0.4863467216491699,-0.9527155756950378, 1.5252171754837036
23,4022987029,0.13477138,0.67691165,-0.099748485,0.7167132,9.844442367553711,0.4133451282978058,0.6472212672233582,-0.9215578436851501,-0.9470808506011963, 1.7689348459243774
24,4023003696,0.13435687,0.6770467,-0.09975479,0.7166623,9.846527099609375,0.3873622715473175,0.6395095586776733,-0.33544954657554626,-1.2056539058685303, 1.8570040464401245
25,4023020363,0.13369414,0.677219,-0.09953042,0.7166547,9.842854499816895,0.3871147930622101,0.6352609395980835,-0.21454478800296783,-1.2514622211456299, 1.8704251050949097
26,4023037030,0.13366514,0.6772738,-0.09992758,0.7165533,9.868399620056152,0.3822031021118164,0.5918503999710083,-0.7355711460113525,-1.0462403297424316, 1.9899981021881104
27,4023053697,0.13313809,0.6774256,-0.099855684,0.71651787,9.84878921508789,0.36451634764671326,0.5891398787498474,-0.3536217212677002,-1.2764087915420532, 1.9748609066009521
28,4023070364,0.13299765,0.6775275,-0.10015422,0.71640575,9.848018646240234,0.38268622756004333,0.6031959652900696,-0.1914421170949936,-1.3030973672866821, 1.9918677806854248
29,4023087031,0.13274623,0.6776482,-0.100371785,0.7163078,9.812182426452637,0.34978431463241577,0.592933177947998,-0.31339696049690247,-1.3736729621887207, 2.1006832122802734
30,4023103698,0.1325886,0.6777475,-0.1006797,0.7161998,9.849430084228516,0.34603792428970337,0.6003432273864746,-0.11387407779693604,-1.2916229963302612, 2.1234657764434814
31,4023120365,0.13217957,0.6778896,-0.10073476,0.7161332,9.846159934997559,0.33943265676498413,0.5763620138168335,-0.05277497321367264,-1.3444105386734009, 2.034320831298828
32,4023137032,0.1319917,0.6779754,-0.10101851,0.7160467,9.829324722290039,0.35378167033195496,0.5835040807723999,-0.33571845293045044,-1.1399445533752441, 2.1427650451660156
33,4023153699,0.13166003,0.67809534,-0.10115484,0.7159748,9.855037689208984,0.36576583981513977,0.6071453094482422,-0.06223886460065842,-1.247248888015747, 2.0866219997406006
34,4023170366,0.13149981,0.6781703,-0.10148587,0.7158865,9.874507904052734,0.32776758074760437,0.5986021757125854,-0.48596251010894775,-1.1250377893447876, 2.260711431503296
35,4023187033,0.13133894,0.6782384,-0.10181764,0.7158044,9.856175422668457,0.32032352685928345,0.5817118287086487,-0.492980420589447,-1.0712896585464478, 2.2731590270996094
36,4023203700,0.13038228,0.6783991,-0.10140113,0.7158862,9.85822582244873,0.30727285146713257,0.5339952707290649,-0.40383538603782654,-0.8878514170646667, 2.3346166610717773
37,4023220367,0.1303655,0.6784228,-0.10190235,0.7157956,9.86816692352295,0.29707738757133484,0.5651894211769104,-0.42610564827919006,-0.8786692023277283, 2.4637300968170166
38,4023237034,0.12968871,0.67852837,-0.101778455,0.7158361,9.827747344970703,0.29109981656074524,0.5263844132423401,-0.24650943279266357,-0.7603514194488525, 2.4886131286621094
39,4023253701,0.12935543,0.67857873,-0.10196093,0.7158227,9.826193809509277,0.31002432107925415,0.5369728207588196,-0.5700619220733643,-0.6721156239509583, 2.381667137145996
40,4023270368,0.12923306,0.6786053,-0.10230658,0.71577036,9.807385444641113,0.2913985550403595,0.5437163710594177,-0.6744464039802551,-0.6760599613189697, 2.192338228225708
41,4023287035,0.12902,0.67866164,-0.10256209,0.71571875,9.808975219726562,0.27379223704338074,0.5761337876319885,-1.0950709581375122,-0.8373943567276001, 2.121339797973633
42,4023303702,0.12899205,0.67868936,-0.10296377,0.7156398,9.815658569335938,0.25002774596214294,0.5874598026275635,-1.3031741380691528,-0.7911122441291809, 1.967625379562378
43,4023320369,0.12892134,0.6787337,-0.10328396,0.71556425,9.85004997253418,0.26192474365234375,0.5929264426231384,-1.2986536026000977,-0.8439000844955444, 1.7453711032867432
44,4023337036,0.12913622,0.6787485,-0.10384726,0.71542996,9.858903884887695,0.26219266653060913,0.5455042719841003,-1.5293216705322266,-0.9329425692558289, 1.5764809846878052
45,4023353703,0.1290165,0.6788085,-0.10408798,0.7153597,9.848345756530762,0.2510894536972046,0.5112574696540833,-1.6998765468597412,-0.8992235660552979, 1.5457457304000854
46,4023370370,0.12879038,0.67887676,-0.104194365,0.71532017,9.836588859558105,0.2556857168674469,0.5349562168121338,-1.8577916622161865,-0.7787285447120667, 1.3850899934768677
47,4023387037,0.1289366,0.6788966,-0.10465261,0.7152081,9.852932929992676,0.2406338006258011,0.5563833713531494,-1.99700927734375,-0.83342444896698, 1.360629677772522
48,4023403704,0.12872379,0.678961,-0.10472127,0.71517533,9.83541488647461,0.2280847281217575,0.5430035591125488,-2.0627059936523438,-0.6947829127311707, 1.1318060159683228
49,4023420371,0.12904112,0.6789506,-0.10527225,0.7150471,9.84248161315918,0.24115248024463654,0.521040678024292,-1.9935004711151123,-0.6923497319221497, 1.0256285667419434
50,4023437038,0.12904134,0.6789882,-0.10549977,0.71497774,9.84405517578125,0.2493814080953598,0.5247935056686401,-2.242929458618164,-0.6777888536453247, 0.9013301134109497
51,4023453705,0.12924963,0.67898905,-0.10594299,0.7148739,9.85435962677002,0.23910529911518097,0.5156949162483215,-2.0926215648651123,-0.6409194469451904, 1.008941888809204
52,4023470372,0.12840402,0.6791519,-0.10537993,0.7149547,9.848480224609375,0.2349758744239807,0.5560962557792664,-2.190999984741211,-0.6920422911643982, 0.9688965082168579
53,4023487039,0.12855707,0.6791577,-0.105752245,0.71486664,9.87297248840332,0.227852001786232,0.5446924567222595,-2.196519374847412,-0.5876578092575073, 0.9204629063606262
54,4023503706,0.12838025,0.6792077,-0.10581482,0.7148417,9.874994277954102,0.22616276144981384,0.5037280917167664,-2.15539813041687,-0.552209734916687, 0.9468950629234314
55,4023520373,0.12819055,0.67924565,-0.10585334,0.7148341,9.855412483215332,0.22975961863994598,0.5072005987167358,-1.999353051185608,-0.39603638648986816, 0.920680582523346
56,4023537040,0.12828118,0.67922634,-0.10615176,0.7147919,9.845006942749023,0.2247195988893509,0.5199617147445679,-1.9072883129119873,-0.23498372733592987, 0.9202451705932617
57,4023553707,0.12805313,0.6792309,-0.106140494,0.71483004,9.872527122497559,0.21557463705539703,0.5358486175537109,-1.803454041481018,-0.002663720864802599, 0.9305285215377808
58,4023570374,0.1276761,0.6792455,-0.105992585,0.7149057,9.864239692687988,0.22142793238162994,0.5127213597297668,-1.6843805313110352,0.10568438470363617, 0.97909015417099
59,4023587041,0.12767912,0.6792012,-0.106174126,0.7149202,9.84376049041748,0.20086480677127838,0.5113147497177124,-1.5355966091156006,0.17939774692058563, 0.8393346071243286
60,4023603708,0.12758522,0.6791644,-0.106225744,0.7149643,9.830221176147461,0.22123979032039642,0.5028866529464722,-1.5782161951065063,0.30005916953086853, 0.6640284657478333
61,4023620375,0.12727304,0.67916685,-0.10607583,0.7150398,9.85050106048584,0.2094954252243042,0.5335112810134888,-1.4408423900604248,0.233939990401268, 0.6904094815254211
62,4023637042,0.12726663,0.6791096,-0.10620783,0.71507573,9.86300277709961,0.21266146004199982,0.5191067457199097,-1.3186571598052979,0.3813283145427704, 0.6780770421028137
63,4023653709,0.12738997,0.67902434,-0.106450446,0.7150987,9.860929489135742,0.19756531715393066,0.5290237665176392,-1.470194697380066,0.47889989614486694, 0.6240982413291931
64,4023670376,0.12737629,0.6789517,-0.10654742,0.7151557,9.856780052185059,0.20701372623443604,0.522384762763977,-1.4637401103973389,0.5743967890739441, 0.5604378581047058
65,4023687043,0.1275955,0.6788053,-0.10685321,0.71521,9.857970237731934,0.19950516521930695,0.518358588218689,-1.6246262788772583,0.9533879160881042, 0.5546493530273438
66,4023703710,0.12771681,0.678691,-0.10707109,0.7152641,9.840789794921875,0.22486507892608643,0.512808620929718,-1.332795262336731,0.7880323529243469, 0.5671228170394897
67,4023720377,0.12777673,0.67854255,-0.10723705,0.71536946,9.857624053955078,0.19397957623004913,0.520959198474884,-1.4871245622634888,1.1839790344238281, 0.6609420776367188
68,4023737044,0.12735127,0.67849433,-0.10694328,0.71553504,9.84114933013916,0.19001343846321106,0.5174219012260437,-1.351262092590332,0.9294272661209106, 0.6269540786743164
69,4023753711,0.12744124,0.67834574,-0.10712193,0.7156331,9.871161460876465,0.20347246527671814,0.5391554236412048,-1.3812671899795532,1.1723250150680542, 0.5818116068840027
70,4023770378,0.12716897,0.6782716,-0.10696471,0.71577543,9.844481468200684,0.22246916592121124,0.5297292470932007,-1.4852802753448486,0.970266580581665, 0.5810176134109497
71,4023787045,0.12701641,0.6781442,-0.10691151,0.71593094,9.854655265808105,0.19076795876026154,0.5580431222915649,-1.4928232431411743,1.3136175870895386, 0.5926842093467712
72,4023803712,0.1268795,0.6780533,-0.10687009,0.7160475,9.833868980407715,0.208099827170372,0.544959545135498,-1.4699894189834595,0.9556032419204712, 0.5177670121192932
73,4023820379,0.12710235,0.67790323,-0.10717143,0.71610516,9.855975151062012,0.20051151514053345,0.5448986291885376,-1.311728835105896,1.007097840309143, 0.5476571917533875
74,4023837046,0.12706493,0.67777205,-0.10721938,0.7162287,9.85203742980957,0.1954708695411682,0.563362181186676,-1.4900187253952026,1.201037049293518, 0.5363875031471252
75,4023853713,0.12730049,0.67761886,-0.1075125,0.7162879,9.83949089050293,0.17168858647346497,0.5652511119842529,-1.4552621841430664,1.042917013168335, 0.4461027681827545
76,4023870380,0.12724333,0.6775268,-0.10750832,0.7163859,9.848803520202637,0.20488226413726807,0.5671885013580322,-1.3236002922058105,0.9145975708961487, 0.3267475962638855
77,4023887047,0.12731217,0.6773772,-0.10762171,0.7164979,9.837745666503906,0.19704729318618774,0.5699138641357422,-1.6574106216430664,1.2687956094741821, 0.362029105424881
78,4023903714,0.12737355,0.67727894,-0.107733995,0.71656317,9.845467567443848,0.18031886219978333,0.568213164806366,-1.3979154825210571,0.7971248626708984, 0.32864299416542053
79,4023920381,0.12754612,0.6771554,-0.10795984,0.71661526,9.841504096984863,0.18128100037574768,0.5469573140144348,-1.3946115970611572,0.8637308478355408, 0.38303154706954956
80,4023937048,0.12759003,0.6770528,-0.108053036,0.71669024,9.84975814819336,0.18631942570209503,0.5690456628799438,-1.1279065608978271,0.8708894848823547, 0.34281957149505615
81,4023953715,0.12787718,0.6768671,-0.108383976,0.7167644,9.82445240020752,0.20532822608947754,0.5585013628005981,-1.4496914148330688,1.2849698066711426, 0.4359472990036011
82,4023970382,0.12788375,0.6767453,-0.10846129,0.7168666,9.848930358886719,0.19368982315063477,0.5695036053657532,-1.5586093664169312,1.0689778327941895, 0.4533383250236511
83,4023987049,0.1278133,0.6766414,-0.10845417,0.7169783,9.844663619995117,0.16335518658161163,0.5604796409606934,-1.5270291566848755,1.0287789106369019, 0.3896139860153198
84,4024003716,0.12764919,0.67653835,-0.10836406,0.71711856,9.868546485900879,0.1883803904056549,0.5976145267486572,-1.3030589818954468,1.1513230800628662, 0.4485616385936737
85,4024020383,0.12769008,0.6764044,-0.10849768,0.7172174,9.865398406982422,0.19560809433460236,0.611219048500061,-1.2426000833511353,1.1040289402008057, 0.5989465713500977
86,4024037050,0.12782641,0.6762483,-0.108727224,0.7173055,9.869523048400879,0.17283059656620026,0.6093410849571228,-1.1397011280059814,1.1668442487716675, 0.6488657593727112
87,4024053717,0.12794392,0.6760956,-0.108935505,0.71739686,9.811680793762207,0.1827402561903,0.5946775674819946,-1.2860262393951416,1.1618109941482544, 0.6219722628593445
88,4024070384,0.12796724,0.6759661,-0.10905162,0.7174972,9.83745288848877,0.17988628149032593,0.6021543145179749,-1.06792151927948,1.08832848072052, 0.6064510941505432
89,4024087051,0.12753356,0.6759175,-0.10876224,0.71766394,9.842735290527344,0.17758573591709137,0.6084784269332886,-1.0946611166000366,0.9401204586029053, 0.7071345448493958
90,4024103718,0.12755339,0.67580086,-0.1088871,0.71775144,9.841285705566406,0.18860764801502228,0.5863857269287109,-1.192975401878357,0.9510185718536377, 0.6380571126937866
91,4024120385,0.1276428,0.6756782,-0.10908339,0.7178211,9.848037719726562,0.16136600077152252,0.6024551391601562,-1.0331907272338867,0.9040194153785706, 0.671827495098114
92,4024137052,0.12771392,0.67555946,-0.109273896,0.71789116,9.849241256713867,0.165951207280159,0.6302133798599243,-0.9316876530647278,0.8778176307678223, 0.7314667105674744
93,4024153719,0.1274795,0.67550015,-0.109186985,0.718002,9.851285934448242,0.17951352894306183,0.6260040998458862,-0.9945283532142639,0.7398419976234436, 0.7562212944030762
94,4024170386,0.12731491,0.67541033,-0.10917988,0.7181168,9.858659744262695,0.15399806201457977,0.644874095916748,-1.1479101181030273,0.8999983668327332, 0.8471336960792542
95,4024187053,0.12735203,0.67531925,-0.109353796,0.7181694,9.838227272033691,0.17001578211784363,0.6152277588844299,-1.1228350400924683,0.6366612315177917, 0.7598711252212524
96,4024203720,0.12706509,0.6752719,-0.10922788,0.7182839,9.860634803771973,0.17781014740467072,0.6256990432739258,-1.2994091510772705,0.6796393990516663, 0.7821285724639893
97,4024220387,0.12681025,0.6752342,-0.109117515,0.7183812,9.857718467712402,0.15760669112205505,0.636640727519989,-1.2513595819473267,0.567058801651001, 0.6929451823234558
98,4024237054,0.12652682,0.6751973,-0.10899591,0.7184843,9.840877532958984,0.15708434581756592,0.6279716491699219,-1.3149816989898682,0.5742815136909485, 0.7702059149742126
99,4024253721,0.12665583,0.67510766,-0.10926778,0.7185044,9.855194091796875,0.1650690734386444,0.6416312456130981,-1.1723573207855225,0.47512194514274597, 0.7928986549377441
100,4024270388,0.12657146,0.6750489,-0.1093412,0.7185633,9.842923164367676,0.15223285555839539,0.6250705122947693,-1.142390489578247,0.48625072836875916, 0.8088554739952087
101,4024287055,0.12677942,0.67496073,-0.109670855,0.7185593,9.845769882202148,0.14391757547855377,0.6573202013969421,-1.2547019720077515,0.3708142638206482, 0.6896795034408569
102,4024303722,0.12634403,0.67497635,-0.10939771,0.71866286,9.842870712280273,0.1472219079732895,0.6525292992591858,-1.3673466444015503,0.3111494481563568, 0.6804461479187012
103,4024320389,0.1261735,0.67497313,-0.10936747,0.7187005,9.857409477233887,0.14378540217876434,0.6346864700317383,-1.5364930629730225,0.11761992424726486, 0.607744574546814
104,4024337056,0.12601042,0.6749679,-0.10935321,0.71873623,9.853775024414062,0.15079888701438904,0.6342282295227051,-1.566562533378601,0.11098624020814896, 0.6509531736373901
105,4024353723,0.12580964,0.6749703,-0.10928202,0.7187799,9.856603622436523,0.1441471129655838,0.620843231678009,-1.6019848585128784,0.12379258871078491, 0.5427011847496033
106,4024370390,0.12540539,0.6750086,-0.109013736,0.7188553,9.84048843383789,0.15070673823356628,0.6198781132698059,-1.6260223388671875,0.08815252035856247, 0.5045894384384155
107,4024387057,0.12525496,0.674998,-0.109006085,0.7188927,9.848222732543945,0.139266237616539,0.6192060112953186,-1.4620368480682373,0.15464307367801666, 0.6411434412002563
108,4024403724,0.12512,0.6749666,-0.10901107,0.71894485,9.84669017791748,0.13332976400852203,0.6275334358215332,-1.526606559753418,0.3290271759033203, 0.6573819518089294
109,4024420391,0.12501486,0.67494386,-0.10902563,0.71898234,9.847146034240723,0.1354334056377411,0.6305314898490906,-1.3606873750686646,0.23683422803878784, 0.5587217807769775
110,4024437058,0.124997824,0.6749131,-0.10913379,0.71899766,9.838105201721191,0.12866705656051636,0.6321273446083069,-1.3175172805786133,0.17031805217266083, 0.6065407395362854
111,4024453725,0.1250261,0.67486393,-0.10929934,0.71901375,9.859536170959473,0.13813185691833496,0.6052183508872986,-1.361724853515625,0.2566072344779968, 0.6939184069633484
112,4024470392,0.12515523,0.67480636,-0.109549254,0.7190074,9.850278854370117,0.12661363184452057,0.6089851260185242,-1.2863210439682007,0.21095260977745056, 0.6400677561759949
113,4024487059,0.12499091,0.6747587,-0.109531365,0.71908337,9.82693099975586,0.13238725066184998,0.6271147131919861,-1.4642781019210815,0.5205845236778259, 0.7193390727043152
114,4024503726,0.124668375,0.67476875,-0.109351344,0.71915734,9.832670211791992,0.11985000222921371,0.6283022165298462,-1.2436245679855347,0.23274902999401093, 0.6159021854400635
115,4024520393,0.124401614,0.6747694,-0.10921699,0.7192234,9.839221000671387,0.13815580308437347,0.6174467206001282,-1.4668904542922974,0.2494228482246399, 0.5704012513160706
116,4024537060,0.12448948,0.6747168,-0.10941405,0.7192276,9.845260620117188,0.12620112299919128,0.6234404444694519,-1.5149911642074585,0.24595233798027039, 0.5621923208236694
117,4024553727,0.12437627,0.674691,-0.10944051,0.71926725,9.863344192504883,0.12883436679840088,0.6252338290214539,-1.5437159538269043,0.25336724519729614, 0.6540011167526245
118,4024570394,0.124451905,0.6746534,-0.109643854,0.7192586,9.856045722961426,0.10997501760721207,0.652846097946167,-1.3629029989242554,0.1012277901172638, 0.6398500800132751
119,4024587061,0.12426547,0.67465466,-0.10959477,0.7192971,9.844172477722168,0.1252712458372116,0.6351439356803894,-1.2584800720214844,0.11955368518829346, 0.6164144277572632
120,4024603728,0.12436501,0.67461115,-0.10981828,0.7192866,9.854854583740234,0.12010062485933304,0.639366626739502,-1.275768518447876,0.12411273270845413, 0.6395810842514038
121,4024620395,0.12423049,0.67460716,-0.109820426,0.7193134,9.826030731201172,0.1276198774576187,0.644877552986145,-1.4123611450195312,0.0903295949101448, 0.616824209690094
122,4024637062,0.124069266,0.6746145,-0.1097872,0.71933925,9.83735179901123,0.10114607214927673,0.6312131881713867,-1.4384604692459106,0.03695272281765938, 0.555507481098175
123,4024653729,0.124122806,0.6745967,-0.10993617,0.7193238,9.850861549377441,0.09881427884101868,0.6314552426338196,-1.468299150466919,-0.006121435202658176, 0.44879209995269775
124,4024670396,0.12415313,0.6745854,-0.11008095,0.7193071,9.849241256713867,0.0986078605055809,0.6406675577163696,-1.4346568584442139,-0.05577164515852928, 0.5309447646141052
125,4024687063,0.123831525,0.674624,-0.10990102,0.7193539,9.850068092346191,0.11249563843011856,0.644400954246521,-1.4532902240753174,-0.029339348897337914, 0.561820924282074
126,4024703730,0.123529136,0.6746678,-0.109724015,0.71939194,9.858376502990723,0.1101694256067276,0.6380791068077087,-1.3534135818481445,-0.0799628496170044, 0.48389434814453125
127,4024720397,0.12326527,0.6747134,-0.10958246,0.719416,9.851762771606445,0.09550762176513672,0.6551392674446106,-1.4243861436843872,-0.15272851288318634, 0.46512019634246826
128,4024737064,0.12329069,0.6747254,-0.10966975,0.7193871,9.839893341064453,0.09219735115766525,0.6478468179702759,-1.5739644765853882,-0.18843263387680054, 0.23392720520496368
129,4024753731,0.12329313,0.6747739,-0.1097168,0.719334,9.852771759033203,0.09707414358854294,0.6568588614463806,-1.696623682975769,-0.46855881810188293, 0.0836959034204483
130,4024770398,0.12334179,0.6748233,-0.10978933,0.71926814,9.853667259216309,0.1030580997467041,0.6334751844406128,-1.7681469917297363,-0.5173508524894714, -0.019350392743945122
131,4024787065,0.123124175,0.67491394,-0.109603964,0.71924865,9.849430084228516,0.08593984693288803,0.635293185710907,-1.5767817497253418,-0.5094878077507019, -0.0458979569375515
132,4024803732,0.12300449,0.6749941,-0.10949894,0.71921,9.869293212890625,0.10170511901378632,0.6170100569725037,-1.4543018341064453,-0.532590389251709, -0.10024809837341309
133,4024820399,0.12296502,0.6750578,-0.10947953,0.71915984,9.85871410369873,0.11546451598405838,0.6053854823112488,-1.618530511856079,-0.5103458166122437, -0.053107935935258865
134,4024837066,0.12255307,0.67516094,-0.109114766,0.71918875,9.824050903320312,0.11504142731428146,0.6050854325294495,-1.67832350730896,-0.3555683493614197, -0.00809361319988966
135,4024853733,0.12250334,0.6752098,-0.10908441,0.719156,9.828378677368164,0.10313670337200165,0.6089307069778442,-1.7208149433135986,-0.35317352414131165, -0.037228062748909
136,4024870400,0.12224617,0.6753013,-0.10885969,0.7191479,9.846694946289062,0.09779909253120422,0.6126969456672668,-1.6719714403152466,-0.456431120634079, -0.04830555617809296
137,4024887067,0.12246211,0.6753188,-0.10905538,0.71906507,9.831978797912598,0.10243939608335495,0.5967472791671753,-1.603367805480957,-0.3979957103729248, -0.1552385687828064
138,4024903734,0.12250823,0.67538023,-0.10908883,0.7189945,9.837894439697266,0.09438266605138779,0.623687207698822,-1.637893795967102,-0.5626853704452515, -0.19771724939346313
139,4024920401,0.12252785,0.6754397,-0.10911472,0.7189314,9.843727111816406,0.09400400519371033,0.6117467880249023,-1.7118247747421265,-0.5335637331008911, -0.10909728705883026
140,4024937068,0.122485906,0.6755055,-0.109097,0.7188792,9.84923267364502,0.09292562305927277,0.6053593158721924,-1.6048789024353027,-0.5253548622131348, -0.028903929516673088
141,4024953735,0.12253325,0.6755632,-0.10915887,0.71880764,9.850090026855469,0.08159537613391876,0.6413458585739136,-1.5780495405197144,-0.566975474357605, -0.055810071527957916
142,4024970402,0.12283156,0.6756093,-0.10945294,0.7186687,9.85975170135498,0.10777699947357178,0.6543501615524292,-1.4956408739089966,-0.8106291890144348, -0.11044196784496307
143,4024987069,0.122742236,0.6757268,-0.109382235,0.71858424,9.866129875183105,0.11571488529443741,0.6263724565505981,-1.6505334377288818,-0.9305861592292786, -0.1405496895313263
144,4025003736,0.12274539,0.67581815,-0.109422006,0.7184918,9.8529691696167,0.08845499157905579,0.5826789736747742,-1.6805387735366821,-0.8542346954345703, -0.007542939390987158
145,4025020403,0.12278468,0.67591065,-0.10950374,0.7183855,9.858652114868164,0.12173723429441452,0.5751075148582458,-1.3598295450210571,-0.9249898195266724, 0.040468066930770874
146,4025037070,0.12264499,0.67602205,-0.10942082,0.7183171,9.834358215332031,0.14220087230205536,0.598336935043335,-1.3772205114364624,-0.8504952788352966, 0.07219579070806503
147,4025053737,0.12277403,0.6760822,-0.109605394,0.7182104,9.839434623718262,0.10672120749950409,0.5582838654518127,-1.3828551769256592,-0.7748737931251526, 0.16225005686283112
148,4025070404,0.12220056,0.6762587,-0.10912666,0.71821487,9.840537071228027,0.09415404498577118,0.5753964185714722,-1.1682335138320923,-0.8563861846923828, 0.15196654200553894
149,4025087071,0.12196569,0.67639285,-0.10894509,0.71815604,9.841774940490723,0.0964285209774971,0.5702798366546631,-1.0445114374160767,-0.9071505069732666, 0.04202403500676155
150,4025103738,0.121940866,0.6765102,-0.10896291,0.7180471,9.834935188293457,0.07718163728713989,0.5804809927940369,-0.9126828908920288,-1.047418475151062, 0.03531350940465927
151,4025120405,0.12171585,0.67665964,-0.10878912,0.7179707,9.838523864746094,0.037517793476581573,0.5374811291694641,-0.9231841564178467,-1.0597895383834839, 0.016680270433425903
152,4025137072,0.12133971,0.6768366,-0.10843294,0.71792144,9.786564826965332,-0.016487915068864822,0.5334538817405701,-0.8476266264915466,-1.0408360958099365, -0.18190138041973114
153,4025153739,0.121231854,0.6770202,-0.10834309,0.7177802,9.821688652038574,0.0026603604201227427,0.5557604432106018,0.14199040830135345,-1.4888406991958618, -0.13605466485023499
154,4025170406,0.12090971,0.6772993,-0.10801703,0.71762025,9.81557559967041,0.042370155453681946,0.6202561259269714,0.6840448379516602,-2.023672342300415, -0.3709743618965149
155,4025187073,0.120610066,0.6776153,-0.10776508,0.7174102,9.846280097961426,0.06914610415697098,0.6342337131500244,0.4239605963230133,-2.484790563583374, -0.19473335146903992
156,4025203740,0.12024172,0.6779793,-0.10745395,0.7171748,9.860739707946777,0.1031123548746109,0.576613187789917,1.0616272687911987,-2.8456993103027344, -0.18801003694534302
157,4025220407,0.11969579,0.6784352,-0.107022956,0.7168994,9.826298713684082,0.24122893810272217,0.6364359259605408,1.6541515588760376,-3.5261011123657227, -0.019363204017281532
158,4025237074,0.11901806,0.67894614,-0.10654266,0.7166001,9.802749633789062,0.2351025491952896,0.6352792978286743,0.6988490223884583,-3.9875776767730713, 0.2487441748380661
159,4025253741,0.11862421,0.6794783,-0.10638484,0.71618426,9.835077285766602,0.17933809757232666,0.6310617327690125,0.14905953407287598,-4.675970077514648, 0.39211127161979675
160,4025270408,0.11845619,0.68004894,-0.10646759,0.715658,9.84746265411377,0.11565285921096802,0.6341051459312439,-0.595649003982544,-5.404536724090576, 0.37618014216423035
161,4025287075,0.118198834,0.68070674,-0.10646932,0.7150748,9.833045959472656,0.13784679770469666,0.6371595859527588,-1.2541260719299316,-6.119502544403076, 0.25112614035606384
162,4025303742,0.11809987,0.6814008,-0.106706485,0.7143945,9.85214900970459,0.1749769002199173,0.6080468893051147,-1.7280123233795166,-6.823096752166748, 0.5478621125221252
163,4025320409,0.11783753,0.68222386,-0.1068705,0.7136272,9.876056671142578,0.16745564341545105,0.5832761526107788,-1.0171573162078857,-7.935455799102783, 0.8266052007675171
164,4025337076,0.11748213,0.68316025,-0.107016645,0.7127676,9.903568267822266,0.16865096986293793,0.5599660873413086,-0.8232435584068298,-8.988510131835938, 1.0321472883224487
165,4025353743,0.11717297,0.68422675,-0.10726118,0.7117579,9.931035041809082,0.08848776668310165,0.5493810176849365,-0.33765238523483276,-10.373929023742676, 1.1089600324630737
166,4025370410,0.1169021,0.6854498,-0.10754021,0.7105825,9.938813209533691,0.02381998673081398,0.6411460638046265,0.05754535645246506,-11.921064376831055, 0.8640639781951904
167,4025387077,0.116843134,0.68676734,-0.10808004,0.70923716,9.920571327209473,0.08679510653018951,0.7929232716560364,-1.515504002571106,-13.246881484985352, 0.8708642721176147
168,4025403744,0.11735581,0.6879591,-0.10926055,0.70781505,10.048380851745605,0.10640978068113327,1.0727111101150513,-6.922041416168213,-13.108729362487793, 1.1533982753753662
169,4025420411,0.118580215,0.6886001,-0.11126217,0.70667493,9.97842025756836,-0.07692268490791321,1.2174078226089478,-17.27674674987793,-9.287405967712402, 2.1310882568359375
170,4025437078,0.11979773,0.6902595,-0.11279447,0.7046048,9.611931800842285,-0.015393750742077827,0.9820837378501892,-15.825554847717285,-18.3230037689209, -1.6263585090637207
171,4025453745,0.121144965,0.69322497,-0.113864586,0.70128304,9.908543586730957,-0.2047399878501892,1.2291841506958008,-14.121976852416992,-30.15455436706543, -6.486276149749756
172,4025470412,0.12290488,0.6973138,-0.11464307,0.6967818,10.33279800415039,-0.3711567521095276,1.5838680267333984,-14.575419425964355,-40.691070556640625, -11.728804588317871
173,4025487079,0.12469446,0.70234287,-0.11455509,0.69140655,10.68838119506836,-0.4012225568294525,1.7742846012115479,-10.740483283996582,-48.728397369384766, -17.51247215270996
174,4025503746,0.127669,0.7082144,-0.115010455,0.6847669,11.607830047607422,-0.621546745300293,1.7306503057479858,-17.93071937561035,-58.45884704589844, -22.304615020751953
175,4025520413,0.1310212,0.71546346,-0.1143882,0.6766543,11.943842887878418,-0.6043215394020081,1.9235014915466309,-14.626119613647461,-70.98748779296875, -31.75693702697754
176,4025537080,0.13347057,0.72398955,-0.11211316,0.66742444,11.724163055419922,0.6862860321998596,2.2672438621520996,-0.7031399011611938,-81.72612762451172, -37.83677673339844
177,4025553747,0.13553534,0.73311055,-0.11073386,0.65720403,12.215615272521973,0.1752689778804779,1.965560793876648,-3.091656446456909,-90.66139221191406, -32.99363327026367
178,4025570414,0.13675927,0.7427715,-0.108903535,0.6463183,12.2329740524292,0.8756648302078247,1.295600414276123,2.8936820030212402,-96.84943389892578, -32.51541519165039
179,4025587081,0.13688502,0.752466,-0.10660987,0.63536745,11.989715576171875,1.646112084388733,1.1147515773773193,13.001716613769531,-97.69002532958984, -30.445934295654297
180,4025603748,0.13745786,0.7612902,-0.10412686,0.62506026,11.138503074645996,2.561718702316284,0.8789681196212769,7.464635372161865,-90.45714569091797, -31.533126831054688
181,4025620415,0.1394591,0.7685601,-0.102647044,0.61589795,10.623876571655273,1.5636358261108398,1.653159260749817,0.6573981046676636,-77.3785171508789, -31.209177017211914
182,4025637082,0.14256825,0.7732388,-0.10117415,0.6095407,9.42657470703125,1.414033055305481,3.2046422958374023,-8.438851356506348,-51.214683532714844, -30.816082000732422
183,4025653749,0.1486526,0.7746916,-0.10145548,0.60618657,8.764335632324219,0.987461268901825,4.348048210144043,-36.076786041259766,-21.994991302490234, -27.997596740722656
184,4025670416,0.15725856,0.77286416,-0.103340566,0.6060292,8.422660827636719,-0.5074508190155029,4.5642571449279785,-57.772281646728516,8.420914649963379, -24.319358825683594
185,4025687083,0.16493851,0.7685894,-0.10557385,0.60903215,8.171356201171875,-1.733309030532837,4.244763374328613,-52.09485626220703,34.35417938232422, -14.140682220458984
186,4025703750,0.17085937,0.7617657,-0.10760987,0.6155814,7.928664684295654,-2.1625235080718994,4.542734146118164,-41.469120025634766,62.523475646972656, -2.2727880477905273
187,4025720417,0.17447701,0.7525446,-0.10974631,0.62545216,8.13018798828125,-2.7410101890563965,3.8652546405792236,-28.221515655517578,88.19482421875, 13.18710994720459
188,4025737084,0.17459191,0.7413146,-0.1111341,0.6384508,8.618583679199219,-2.935960531234741,3.224431037902832,-12.3464994430542,110.3259048461914, 30.322935104370117
189,4025753751,0.17268644,0.728005,-0.11310862,0.6537543,9.09912395477295,-2.793625831604004,2.8797495365142822,-4.0939226150512695,128.9140167236328, 46.12590789794922
190,4025770418,0.16899562,0.7127623,-0.11560874,0.67085415,9.608969688415527,-2.728656530380249,2.6433253288269043,1.4054579734802246,144.4038543701172, 60.219886779785156
191,4025787085,0.16424644,0.69552004,-0.118596114,0.6893548,10.32938289642334,-2.090787649154663,2.418436050415039,3.8567428588867188,159.01165771484375, 70.4932861328125
192,4025803752,0.15910763,0.6763681,-0.12194074,0.7087607,11.148054122924805,-1.607859492301941,2.1468467712402344,2.4981698989868164,171.55831909179688, 76.50628662109375
193,4025820419,0.15360953,0.65564865,-0.12534484,0.72857237,11.916163444519043,-1.3816946744918823,1.6702128648757935,2.5047740936279297,180.6575164794922, 80.20614624023438
194,4025837086,0.14853723,0.6334551,-0.12904508,0.7483441,12.628986358642578,-1.0321422815322876,1.1879377365112305,-2.4934821128845215,187.91864013671875, 80.57393646240234
195,4025853753,0.14405352,0.6104669,-0.13367888,0.76727366,12.461078643798828,-1.2768148183822632,0.4600878953933716,-11.420259475708008,187.97923278808594, 81.42117309570312
196,4025870420,0.13997048,0.5876839,-0.13906367,0.7846638,12.379408836364746,-0.6499629616737366,0.05430477857589722,-18.269227981567383,180.2064208984375, 80.70563507080078
197,4025887087,0.13732427,0.564912,-0.14616647,0.80040735,12.315196990966797,-0.01831073872745037,-0.5639183521270752,-34.90202331542969,173.4202880859375, 78.2998275756836
198,4025903754,0.13396958,0.5434339,-0.15352038,0.8143484,11.581332206726074,-0.8724613189697266,-0.9784637689590454,-34.1226921081543,158.62005615234375, 80.21404266357422
199,4025920421,0.12960127,0.5233486,-0.1599193,0.8268831,11.138031005859375,-0.2499975860118866,-0.733070969581604,-25.169681549072266,145.67608642578125, 79.57416534423828
200,4025937088,0.12576784,0.5047084,-0.16608338,0.8377758,10.524690628051758,0.47010889649391174,-1.4253898859024048,-26.26926040649414,132.6479949951172, 72.70230102539062
201,4025953755,0.12082397,0.4902234,-0.16895488,0.84648514,9.546443939208984,0.967330813407898,-3.0795509815216064,-2.350839614868164,103.04296875, 61.15510940551758
202,4025970422,0.115825176,0.48234266,-0.1672875,0.85202414,8.122262954711914,2.3204474449157715,-3.6085891723632812,26.056297302246094,58.014068603515625, 36.022193908691406
203,4025987089,0.11268061,0.48096973,-0.163603,0.85393524,7.87255859375,3.3124465942382812,-2.922433853149414,32.70450973510742,11.979144096374512, 8.30172061920166
204,4026003756,0.111482285,0.4843581,-0.15955594,0.8529425,8.11003589630127,3.5853655338287354,-2.3845858573913574,28.75872039794922,-22.762250900268555, -11.68949031829834
205,4026020423,0.1139428,0.49066526,-0.15724167,0.84943503,9.022266387939453,4.7759881019592285,-2.131861448287964,5.820684909820557,-45.24170684814453, -32.262393951416016
206,4026037090,0.12154954,0.49835607,-0.16123857,0.84313047,12.076866149902344,0.0944889485836029,3.0974373817443848,-50.43799591064453,-61.807743072509766, -44.42095184326172
207,4026053757,0.13067622,0.5058414,-0.1651974,0.8365155,11.408796310424805,-3.1200571060180664,7.745173454284668,-55.965431213378906,-59.80991744995117, -53.29444885253906
208,4026070424,0.14206545,0.51355016,-0.17121829,0.8287148,10.374701499938965,0.457068532705307,0.5669058561325073,-76.82633972167969,-64.59477996826172, -60.51541519165039
209,4026087091,0.15115255,0.52346224,-0.17442246,0.8201933,12.552648544311523,-3.2869441509246826,0.6711544394493103,-51.3559455871582,-79.44775390625, -60.5448112487793
210,4026103758,0.15693767,0.53551763,-0.17135078,0.81193006,11.180536270141602,-2.2665982246398926,0.3274427354335785,-1.485741138458252,-87.8137435913086, -66.88300323486328
211,4026120425,0.16178702,0.54695565,-0.16771448,0.804075,10.55373764038086,-0.015370471403002739,1.4267724752426147,4.956266403198242,-83.15530395507812, -62.61205291748047
212,4026137092,0.16633892,0.5565892,-0.16387217,0.7972991,9.393433570861816,1.9053572416305542,2.196607828140259,6.43328332901001,-69.1124496459961, -58.40932083129883
213,4026153759,0.17139168,0.56418574,-0.16196625,0.79125637,9.204412460327148,1.6455366611480713,2.2445168495178223,-7.650171279907227,-56.73790740966797, -50.48000717163086
214,4026170426,0.17539053,0.57126063,-0.15963244,0.785759,10.360936164855957,2.8220932483673096,1.6886260509490967,-1.2786970138549805,-52.4186897277832, -45.07221221923828
215,4026187093,0.18140864,0.57749873,-0.16033196,0.7796666,11.1400785446167,1.8731865882873535,1.2209113836288452,-27.306730270385742,-51.60481643676758, -43.7012825012207
216,4026203760,0.1852454,0.5843623,-0.15973248,0.7737509,10.031645774841309,-2.1081576347351074,1.2373225688934326,-10.734992027282715,-54.94703674316406, -37.51976013183594
217,4026220427,0.18789111,0.59184563,-0.15681492,0.76800066,10.317344665527344,-0.5208039283752441,1.2934311628341675,7.376372337341309,-55.8682861328125, -41.05691146850586
218,4026237094,0.19113617,0.5990574,-0.15374264,0.76220775,10.015250205993652,-0.37372657656669617,1.2395453453063965,5.35883903503418,-53.70133590698242, -44.633270263671875
219,4026253761,0.19432196,0.6057365,-0.15084997,0.7566815,10.124449729919434,0.3733886480331421,1.4636026620864868,4.2422776222229,-50.06000900268555, -42.68812561035156
220,4026270428,0.1972076,0.6117677,-0.14834814,0.75155985,9.757796287536621,0.6445760726928711,1.9016919136047363,3.0043110847473145,-45.805503845214844, -38.274864196777344
221,4026287095,0.19903684,0.61775357,-0.145052,0.74680966,9.679572105407715,0.2980056703090668,1.965703010559082,11.861286163330078,-44.00833511352539, -35.58879470825195
222,4026303762,0.20024481,0.6237902,-0.1410624,0.74221915,10.294111251831055,0.6813718676567078,1.2278163433074951,18.286209106445312,-43.2711181640625, -35.18225860595703
223,4026320429,0.20160577,0.629736,-0.13769642,0.73744655,9.92300033569336,0.7538607120513916,1.005585789680481,14.13939094543457,-44.27260971069336, -33.44510269165039
224,4026337096,0.20262426,0.635376,-0.13493274,0.732826,10.130537986755371,1.3143818378448486,0.8110769987106323,12.28273868560791,-43.196136474609375, -28.5953426361084
225,4026353763,0.20335361,0.6402728,-0.13274762,0.7287499,10.15959358215332,1.1552284955978394,0.6828587651252747,10.092572212219238,-38.11699676513672, -23.135940551757812
226,4026370430,0.20363112,0.64442474,-0.13064158,0.7253853,10.052407264709473,1.0496385097503662,0.6818432807922363,11.288223266601562,-31.744325637817383, -18.83390998840332
227,4026387097,0.20332661,0.64816874,-0.12835194,0.72253823,10.121466636657715,1.0617657899856567,0.8785439133644104,14.672445297241211,-27.65836524963379, -15.647699356079102
228,4026403764,0.20267448,0.6517387,-0.12604785,0.71991086,10.042065620422363,1.1532026529312134,1.0329546928405762,16.242250442504883,-26.090801239013672, -13.52149772644043
229,4026420431,0.20199764,0.65520054,-0.12430723,0.71725655,9.666060447692871,1.3298670053482056,1.1612908840179443,13.389565467834473,-26.48238182067871, -10.812335968017578
230,4026437098,0.2015264,0.65865266,-0.123028204,0.7144424,9.609414100646973,1.1006253957748413,1.052071452140808,10.038002014160156,-27.633018493652344, -9.945996284484863
231,4026453765,0.20113833,0.6623357,-0.122049905,0.7113078,9.48488712310791,1.2247108221054077,1.073320984840393,8.235865592956543,-30.5767765045166, -9.628708839416504
232,4026470432,0.2007903,0.66634744,-0.12122707,0.7077913,9.315163612365723,1.0367432832717896,0.8804972171783447,7.430285453796387,-34.12228012084961, -9.911764144897461
233,4026487099,0.19998346,0.6711502,-0.11998213,0.703682,9.317452430725098,1.083355188369751,0.8870190382003784,12.189030647277832,-40.50110626220703, -11.09182071685791
234,4026503766,0.19923592,0.6761347,-0.118653856,0.6993343,9.351728439331055,1.2521370649337769,0.5509065985679626,12.3771390914917,-42.33475112915039, -12.241372108459473
235,4026520433,0.19847824,0.6814366,-0.117292814,0.69461715,9.318988800048828,1.1796220541000366,0.24744349718093872,12.718393325805664,-45.54954528808594, -13.10511589050293
236,4026537100,0.19760093,0.6870596,-0.11572052,0.68957376,9.372761726379395,1.1180580854415894,0.17709079384803772,14.466315269470215,-48.41899490356445, -14.227851867675781
237,4026553767,0.19679324,0.6929154,-0.113921575,0.684224,9.501643180847168,1.1668322086334229,0.38206321001052856,15.287636756896973,-50.60871887207031, -16.235450744628906
238,4026570434,0.1961611,0.6990323,-0.11201262,0.67847466,9.71167278289795,1.0283633470535278,0.3304869532585144,15.014567375183105,-53.47198486328125, -18.335697174072266
239,4026587101,0.19579497,0.7053769,-0.1099912,0.6723168,9.832598686218262,1.302482008934021,0.24299654364585876,14.258248329162598,-56.16282653808594, -20.857620239257812
240,4026603768,0.19589679,0.7118296,-0.10822344,0.6657407,9.894421577453613,1.331434965133667,0.12753090262413025,10.651162147521973,-58.70465850830078, -22.44005584716797
241,4026620435,0.19599842,0.71852946,-0.10636009,0.6587773,10.04471206665039,1.2841129302978516,-0.26026034355163574,11.140104293823242,-61.630218505859375, -23.61819839477539
242,4026637102,0.19577138,0.7254601,-0.10416389,0.65156066,10.285341262817383,1.299582839012146,-0.3932833671569824,14.401914596557617,-63.73739242553711, -24.296249389648438
243,4026653769,0.1950893,0.7326328,-0.101571605,0.644106,10.605798721313477,1.5980459451675415,-0.4011993706226349,18.60526466369629,-65.82283782958984, -24.74357032775879
244,4026670436,0.1938664,0.73993295,-0.09867522,0.6365362,11.200068473815918,1.5552886724472046,-0.49316033720970154,22.773061752319336,-66.9669418334961, -24.133283615112305
245,4026687103,0.19219041,0.7474361,-0.09534675,0.62873787,11.82589340209961,0.8305911421775818,-0.8224619626998901,27.09141731262207,-68.78697204589844, -24.80983543395996
246,4026703770,0.19095394,0.7553386,-0.09219499,0.6200809,12.046146392822266,0.2520602345466614,-0.5814642906188965,24.034330368041992,-74.90961456298828, -27.255250930786133
247,4026720437,0.19118053,0.76365334,-0.089752056,0.6101053,12.565025329589844,0.9203802347183228,-0.13391655683517456,13.117658615112305,-83.58161926269531, -31.887920379638672
248,4026737104,0.1917518,0.77278495,-0.08750355,0.59864694,13.524138450622559,1.1003501415252686,0.7429226040840149,10.656455039978027,-94.93312072753906, -34.82588195800781
249,4026753771,0.19188875,0.7831831,-0.08481366,0.585329,15.37945556640625,1.1126306056976318,1.9631763696670532,15.3477783203125,-109.86244201660156, -38.66032409667969
250,4026770438,0.19107772,0.7950747,-0.08145695,0.5698337,17.836326599121094,0.394534170627594,3.275472640991211,23.863874435424805,-127.5108871459961, -42.26142120361328
251,4026787105,0.1887584,0.808367,-0.07648252,0.5523257,19.25448226928711,-1.2126331329345703,5.165768146514893,39.19328689575195,-143.06265258789062, -48.758827209472656
252,4026803772,0.18498226,0.82221884,-0.070757225,0.53360236,19.123926162719727,-2.3383383750915527,7.261092185974121,50.25730514526367,-152.19610595703125, -49.479393005371094
253,4026820439,0.18002063,0.8354027,-0.06448469,0.5153026,16.169109344482422,-2.5651462078094482,5.772599697113037,58.35206985473633,-147.79837036132812, -47.600669860839844
254,4026837106,0.16883242,0.84965235,-0.055149544,0.49653327,13.816414833068848,1.6462054252624512,-0.5510419607162476,106.08928680419922,-153.7381134033203, -44.386634826660156
255,4026853773,0.1573592,0.86335456,-0.046660528,0.4771583,13.532974243164062,4.729551792144775,-0.47276222705841064,104.01190948486328,-156.7296600341797, -38.97124099731445
256,4026870440,0.14496018,0.8753643,-0.039694156,0.4595088,8.758323669433594,3.7175400257110596,-0.49114373326301575,103.30863189697266,-143.12106323242188, -24.372482299804688
257,4026887107,0.13034056,0.88567215,-0.033811457,0.4443571,7.336811542510986,5.658783435821533,-1.295516848564148,112.29441833496094,-124.55310821533203, -7.756793975830078
258,4026903774,0.11874955,0.8935913,-0.030155506,0.4318378,5.950368881225586,6.039376258850098,-1.9040297269821167,85.61622619628906,-102.61457061767578, -0.3420022428035736
259,4026920441,0.109558724,0.89916265,-0.027272679,0.42279977,5.318101406097412,6.630317687988281,-0.058539606630802155,67.49095916748047,-74.43695068359375, 0.8086792826652527
260,4026937108,0.115792505,0.90026635,-0.032309502,0.4184121,5.6583380699157715,6.807705402374268,0.20837844908237457,-53.23545455932617,-35.86970901489258, 9.441231727600098
261,4026953775,0.12930909,0.89805603,-0.041470822,0.41839567,6.000195503234863,0.7073870897293091,3.1865010261535645,-111.70665740966797,-1.0687508583068848, 18.342729568481445
262,4026970442,0.1396813,0.89420897,-0.048941605,0.422474,4.850427627563477,-0.08300882577896118,2.48475980758667,-87.70281219482422,29.30475616455078, 20.951730728149414
263,4026987109,0.14831784,0.88853395,-0.055931885,0.4305591,4.905084609985352,0.6984696388244629,1.2139400243759155,-76.06017303466797,58.95943069458008, 27.398420333862305
264,4027003776,0.15460773,0.8811938,-0.06216251,0.44241348,5.364130020141602,1.7538238763809204,-0.014290474355220795,-59.7372932434082,86.66578674316406, 34.124481201171875
265,4027020443,0.16095854,0.8718128,-0.0684354,0.4575494,5.9215192794799805,2.7495322227478027,-0.7262007594108582,-61.00987243652344,112.65043640136719, 38.53410720825195
266,4027037110,0.16857022,0.8602703,-0.0752163,0.4752489,6.302521228790283,3.0025925636291504,-1.234248399734497,-71.34886169433594,134.78126525878906, 41.47169876098633
267,4027053777,0.17722337,0.8464833,-0.08246642,0.49523458,6.9045515060424805,2.734380006790161,-1.7903258800506592,-80.46802520751953,155.58657836914062, 44.66209411621094
268,4027070444,0.18580058,0.83065665,-0.09010344,0.51707745,7.5520734786987305,1.889534592628479,-2.1345021724700928,-82.79975891113281,172.79898071289062, 50.5853157043457
269,4027087111,0.19303876,0.81287396,-0.098132476,0.54068667,8.49968433380127,1.2209759950637817,-2.0639119148254395,-77.9954605102539,188.5016326904297, 61.01692199707031
270,4027103778,0.19826461,0.793281,-0.10632295,0.56576675,9.28663444519043,0.5384925603866577,-1.8215848207473755,-68.82463073730469,201.8697509765625, 72.51819610595703
271,4027120445,0.20181927,0.7719681,-0.11441389,0.591814,9.806523323059082,0.10510069131851196,-1.5406701564788818,-61.026824951171875,212.74354553222656, 80.97518920898438
272,4027137112,0.20392315,0.7489742,-0.1224915,0.6184247,10.386697769165039,-0.02967943251132965,-1.5948810577392578,-55.23582077026367,221.45472717285156, 88.82901763916016
273,4027153779,0.20494777,0.7243161,-0.13054207,0.6452298,11.394041061401367,0.012404540553689003,-1.6800471544265747,-51.80372619628906,228.68882751464844, 94.87109375
274,4027170446,0.20611899,0.6978997,-0.13910097,0.67164135,11.996777534484863,0.5384466648101807,-1.7049700021743774,-57.68229293823242,234.0010528564453, 97.69613647460938
275,4027187113,0.20833246,0.6695183,-0.14904502,0.69722915,12.617947578430176,0.9253054857254028,-1.709002137184143,-72.7157974243164,238.2474365234375, 100.18122863769531
276,4027203780,0.21052925,0.6395568,-0.1593995,0.721967,13.356785774230957,0.4162745177745819,-1.581419587135315,-77.7903060913086,241.43170166015625, 102.50871276855469
277,4027220447,0.21213903,0.6086785,-0.16938674,0.74553055,13.72314453125,0.5444805026054382,-1.2042399644851685,-76.03857421875,240.86241149902344, 103.06143188476562
278,4027237114,0.21317469,0.577249,-0.17909573,0.7676359,13.850303649902344,0.39045989513397217,-1.0105419158935547,-74.73945617675781,237.49917602539062, 103.3277816772461
279,4027253781,0.21313763,0.54591143,-0.18868607,0.7880046,13.789281845092773,0.23365624248981476,-0.8813943862915039,-71.88121032714844,229.17381286621094, 105.84859466552734
280,4027270448,0.21000816,0.51664686,-0.19706081,0.80631244,13.300287246704102,-1.1671338081359863,-1.234553337097168,-53.33665084838867,208.19293212890625, 112.34081268310547
281,4027287115,0.2045503,0.48993152,-0.20292616,0.8227681,14.006612777709961,1.2462689876556396,-0.46445658802986145,-29.97218894958496,188.1920623779297, 110.19864654541016
282,4027303782,0.19981448,0.46501115,-0.20741004,0.83715004,12.77443790435791,1.9681750535964966,-1.1344029903411865,-24.985069274902344,174.2548828125, 96.13924407958984
283,4027320449,0.19301741,0.444649,-0.20594817,0.85006875,11.036787033081055,1.9484946727752686,-2.8056671619415283,19.9737491607666,148.8376922607422, 80.62042236328125
284,4027337116,0.18556264,0.431875,-0.19845752,0.86003786,8.661730766296387,4.0182881355285645,-5.245891094207764,63.095035552978516,102.83735656738281, 51.51881408691406
285,4027353783,0.18052027,0.42781982,-0.18896784,0.8652594,7.954463958740234,5.320096492767334,-6.442070484161377,72.35507202148438,43.364715576171875, 13.556325912475586
286,4027370450,0.17844827,0.43078557,-0.18056494,0.8660118,8.63916015625,5.71060037612915,-6.12241268157959,60.00031661987305,-8.670683860778809, -15.373146057128906
287,4027387117,0.17914054,0.4388982,-0.17286445,0.8633626,10.191878318786621,5.965337753295898,-5.36083459854126,49.65365982055664,-46.451148986816406, -40.099769592285156
288,4027403784,0.18691827,0.44784114,-0.17181103,0.8573103,10.11227035522461,9.663451194763184,-1.185192584991455,-14.287917137145996,-61.04511642456055, -67.05662536621094
289,4027420451,0.20607953,0.45069256,-0.19247963,0.8469707,14.290067672729492,-6.19088888168335,10.622861862182617,-190.46710205078125,-52.60375213623047, -65.24578094482422
290,4027437118,0.21847387,0.45969957,-0.20490873,0.8360371,13.034640312194824,-7.714923858642578,-2.1018903255462646,-113.48639678955078,-87.66708374023438, -60.44948959350586
291,4027453785,0.22849126,0.47308892,-0.21354449,0.82363683,16.504119873046875,-4.049240589141846,-4.891479969024658,-79.49486541748047,-114.88187408447266, -67.30319213867188
292,4027470452,0.2318778,0.49281257,-0.20704642,0.81271166,13.818103790283203,-6.271759033203125,-2.1530423164367676,39.988502502441406,-131.507568359375, -86.00878143310547
293,4027487119,0.23625141,0.51304764,-0.19573624,0.8016576,12.447232246398926,3.0334789752960205,0.9436980485916138,64.24818420410156,-125.46022033691406, -108.93480682373047
294,4027503786,0.24324018,0.5285867,-0.1896541,0.7908613,8.744935035705566,5.622073650360107,1.5925381183624268,18.844026565551758,-103.49282836914062, -98.05630493164062
295,4027520453,0.24949607,0.5400333,-0.18705736,0.78174496,8.933199882507324,9.227875709533691,1.7071679830551147,-2.195267915725708,-81.86212158203125, -73.0679702758789
296,4027537120,0.25949833,0.5463595,-0.19472592,0.7721621,10.905463218688965,3.3755035400390625,1.8540408611297607,-80.78448486328125,-68.82962036132812, -48.98564529418945
297,4027553787,0.26328924,0.5543652,-0.19781354,0.7643482,10.76314640045166,-3.1603007316589355,0.6785575151443481,-27.79570960998535,-71.2090835571289, -32.175933837890625
298,4027570454,0.26412135,0.5650183,-0.19314253,0.75742346,11.183899879455566,-0.8880136013031006,0.15736615657806396,30.29484748840332,-71.64531707763672, -48.30003356933594
299,4027587121,0.266809,0.5744488,-0.18909483,0.7503765,10.836383819580078,-0.06336013227701187,0.5042974352836609,17.462865829467773,-64.33191680908203, -54.19198226928711
300,4027603788,0.26904956,0.5828138,-0.18580817,0.7439192,10.428593635559082,0.5624229311943054,0.6916970610618591,14.108024597167969,-58.41922378540039, -46.43965148925781
301,4027620455,0.27020767,0.59020776,-0.18294801,0.73835814,10.093331336975098,1.7011668682098389,1.1651427745819092,15.604446411132812,-51.98585891723633, -36.30767822265625
302,4027637122,0.27040273,0.5963471,-0.18040861,0.7339655,10.018627166748047,1.7335400581359863,1.4461827278137207,17.01068115234375,-42.65690231323242, -26.348567962646484
303,4027653789,0.27014026,0.60170716,-0.17770316,0.7303385,9.864118576049805,1.0095574855804443,1.3227297067642212,19.21603775024414,-35.831520080566406, -22.314434051513672
304,4027670456,0.26954445,0.6064421,-0.17428273,0.727461,10.15439224243164,1.1709771156311035,0.9662450551986694,23.936601638793945,-28.66064453125, -21.455015182495117
305,4027687123,0.26895973,0.6106325,-0.1715601,0.7248145,9.950859069824219,1.6413103342056274,1.1000171899795532,19.665916442871094,-26.245229721069336, -17.537384033203125
306,4027703790,0.26817575,0.61479586,-0.17014019,0.72191423,9.517870903015137,1.683656930923462,1.4089750051498413,13.661865234375,-29.8459529876709, -11.524483680725098
307,4027720457,0.26671073,0.6191879,-0.16929753,0.7188952,9.486659049987793,1.5794389247894287,1.108008861541748,13.970917701721191,-33.405189514160156, -6.208509922027588
308,4027737124,0.2643167,0.62407047,-0.16863298,0.7157065,9.65799617767334,1.3122773170471191,0.8450910449028015,17.766443252563477,-38.0301399230957, -1.7714877128601074
309,4027753791,0.26116946,0.62937963,-0.16772363,0.712419,9.847132682800293,1.131361961364746,0.7037047147750854,22.887319564819336,-41.05942153930664, 0.1625586301088333
310,4027770458,0.25747856,0.634897,-0.16614158,0.70923024,9.851243019104004,0.8213110566139221,1.3499486446380615,29.04705238342285,-41.1546516418457, -0.20706772804260254
311,4027787125,0.25436357,0.6403217,-0.16419512,0.705923,9.453186988830566,0.9379918575286865,1.8338229656219482,28.038007736206055,-40.02812194824219, -4.7783074378967285
312,4027803792,0.25195864,0.6461208,-0.16210283,0.701974,8.95748233795166,0.747979462146759,1.807260513305664,25.574007034301758,-43.74356460571289, -10.472785949707031
313,4027820459,0.24981433,0.6526587,-0.1593895,0.69729817,9.34079360961914,1.0184170007705688,1.6412415504455566,27.906524658203125,-49.3007698059082, -16.63365364074707
314,4027837126,0.24833371,0.6598529,-0.15643674,0.69170237,9.103440284729004,1.0832111835479736,1.6953281164169312,26.214067459106445,-55.55706787109375, -23.24182891845703
315,4027853793,0.24738458,0.6677779,-0.1532751,0.6851136,9.092581748962402,1.4230211973190308,1.343075156211853,24.993392944335938,-62.727134704589844, -29.245920181274414
316,4027870460,0.24702948,0.67620534,-0.1503444,0.6775836,9.330291748046875,1.3554679155349731,0.9576982855796814,21.05660057067871,-69.28618621826172, -33.150657653808594
317,4027887127,0.2474499,0.6849108,-0.1478938,0.6691734,9.493313789367676,1.2650712728500366,0.3149546980857849,14.791147232055664,-74.77776336669922, -36.34952926635742
318,4027903794,0.24792752,0.69401056,-0.14543165,0.66009945,10.27795696258545,1.0660712718963623,0.004020765423774719,14.58189582824707,-79.71489715576172, -38.233951568603516
319,4027920461,0.24799797,0.7033371,-0.14277215,0.6507152,10.325162887573242,1.5873186588287354,-0.21446767449378967,17.506237030029297,-82.36112976074219, -38.12406539916992
320,4027937128,0.24764258,0.7128134,-0.14028822,0.6410067,10.733736991882324,2.135660171508789,0.060280561447143555,18.727142333984375,-85.37576293945312, -36.098777770996094
321,4027953795,0.24703497,0.72228694,-0.13777685,0.63110447,11.072060585021973,2.129127264022827,0.06224057078361511,19.903457641601562,-86.57255554199219, -35.46907424926758
322,4027970462,0.24611144,0.73191553,-0.13489081,0.6209133,11.827338218688965,1.4192081689834595,-0.4080047011375427,23.09893798828125,-88.40233612060547, -36.617210388183594
323,4027987129,0.24490885,0.7423025,-0.13190718,0.6095961,12.554328918457031,0.31436818838119507,-0.2200070023536682,25.16632080078125,-97.45328521728516, -38.55952453613281
324,4028003796,0.24471942,0.7534693,-0.12903827,0.5964442,12.953470230102539,0.8739220499992371,0.02422812581062317,19.169769287109375,-109.4175796508789, -46.06549072265625
325,4028020463,0.244992,0.76561815,-0.1259055,0.5813396,14.206868171691895,0.729045033454895,0.8720933198928833,17.785215377807617,-122.76800537109375, -53.521541595458984
326,4028037130,0.24440157,0.77894074,-0.12168258,0.5645464,16.70862579345703,0.42637935280799866,1.8526443243026733,27.20972442626953,-135.333740234375, -59.710853576660156
327,4028053797,0.24313553,0.793031,-0.11801385,0.5459486,20.0858154296875,0.07327023148536682,3.138111114501953,28.46820068359375,-149.56715393066406, -57.8429069519043
328,4028070464,0.2411535,0.8074287,-0.11513054,0.5259743,18.280588150024414,-1.3084931373596191,4.718362808227539,28.834566116333008,-160.23594665527344, -53.480751037597656
329,4028087131,0.23855363,0.82126844,-0.11288406,0.5058336,17.85317039489746,-2.0126025676727295,6.463019371032715,28.91680145263672,-160.80548095703125, -47.60653305053711
330,4028103798,0.23060834,0.83551604,-0.109559044,0.4865488,16.539955139160156,-2.3217785358428955,4.235625267028809,64.19754028320312,-159.90310668945312, -34.075904846191406
331,4028120465,0.21674287,0.8508969,-0.10291284,0.4673394,15.929105758666992,3.6871604919433594,-0.810476541519165,111.17893981933594,-162.55633544921875, -34.13105010986328
332,4028137132,0.2070726,0.8632049,-0.09891659,0.44968197,13.155632019042969,3.9951817989349365,0.9039739370346069,74.64205932617188,-144.6151580810547, -27.60072898864746
333,4028153799,0.19477788,0.8750057,-0.09426168,0.4330605,8.211730003356934,4.885619163513184,-0.07765215635299683,92.25535583496094,-137.78778076171875, -21.548511505126953
334,4028170466,0.17990051,0.8857109,-0.088177994,0.41878003,8.084452629089355,8.163851737976074,-0.64427649974823,112.11921691894531,-120.20653533935547, -18.565031051635742
335,4028187133,0.17075075,0.893339,-0.08420849,0.40706107,7.8844475746154785,5.20745325088501,-0.4518659710884094,68.93112182617188,-94.88360595703125, -17.08536148071289
336,4028203800,0.1641186,0.89796406,-0.08167876,0.40006799,4.351591110229492,6.841638565063477,0.3027358949184418,48.66704559326172,-57.68408966064453, -7.969565391540527
337,4028220467,0.17169026,0.8975871,-0.085865915,0.39684638,8.0634765625,4.366496562957764,4.016018390655518,-60.99940872192383,-20.230871200561523, 1.5324621200561523
338,4028237134,0.18305801,0.8936347,-0.092655025,0.3991518,5.942587852478027,-2.2562389373779297,3.7867393493652344,-92.4638671875,22.767290115356445, 15.868783950805664
339,4028253801,0.18752766,0.8892523,-0.09643899,0.4059106,5.893032550811768,-0.9840152859687805,2.1304268836975098,-39.552879333496094,50.67634201049805, 22.17921257019043
340,4028270468,0.19163199,0.8829178,-0.09983829,0.41685212,6.36426305770874,1.4230802059173584,0.8126825094223022,-36.00297546386719,81.94383239746094, 27.516170501708984
341,4028287135,0.19701378,0.874057,-0.103731416,0.43179864,6.406660556793213,2.14396333694458,0.5473348498344421,-45.756954193115234,113.72683715820312, 33.86179733276367
342,4028303802,0.20375198,0.86243016,-0.10827942,0.4505277,6.446937084197998,2.01859712600708,0.16903696954250336,-56.90407943725586,144.75856018066406, 40.87000274658203
343,4028320469,0.21069044,0.8480819,-0.113338195,0.4727803,6.556110382080078,1.1101237535476685,-0.32385021448135376,-60.86837387084961,173.529296875, 50.243892669677734
344,4028337136,0.21623029,0.83123624,-0.118497476,0.4982463,6.908660888671875,0.4245416522026062,-0.6907467246055603,-54.164772033691406,199.16696166992188, 61.9788932800293
345,4028353803,0.21982087,0.81203926,-0.12357518,0.5263084,7.6510090827941895,0.21891237795352936,-1.222975254058838,-44.1338005065918,220.6147918701172, 73.96182250976562
346,4028370470,0.22143757,0.7904383,-0.12820871,0.55653876,8.813410758972168,0.5085805654525757,-1.6899397373199463,-33.31071853637695,240.43946838378906, 83.943603515625
347,4028387137,0.22192466,0.76620007,-0.13253608,0.58832073,10.090227127075195,0.7803812026977539,-1.9265761375427246,-28.65886878967285,258.46380615234375, 91.2905044555664
348,4028403804,0.22200663,0.73926735,-0.13713454,0.6207987,11.081280708312988,0.6324958801269531,-2.2160732746124268,-31.11092758178711,272.27703857421875, 97.87732696533203
349,4028420471,0.22182547,0.7098581,-0.14223526,0.65319526,12.065194129943848,0.8375063538551331,-2.3583736419677734,-35.78664016723633,281.4527587890625, 103.76551818847656
350,4028437138,0.22204195,0.67774314,-0.14853278,0.6850545,13.128650665283203,1.3297908306121826,-2.5163521766662598,-47.767372131347656,289.5845642089844, 109.65054321289062
351,4028453805,0.22352932,0.64242506,-0.15699948,0.7160139,14.250009536743164,1.7892732620239258,-2.433001756668091,-69.7326431274414,298.5133056640625, 115.67774963378906
352,4028470472,0.22566956,0.60441434,-0.1675339,0.7454456,15.063560485839844,1.1823240518569946,-2.627030849456787,-88.60191345214844,302.6016845703125, 122.1670150756836
353,4028487139,0.22681193,0.5652537,-0.17821303,0.77284217,16.194805145263672,1.226922869682312,-2.4473891258239746,-89.33283996582031,298.7141418457031, 126.05514526367188
354,4028503806,0.22771032,0.52560097,-0.18966675,0.79744494,16.3492431640625,1.582963466644287,-3.03408145904541,-96.69483947753906,289.01556396484375, 126.61748504638672
355,4028520473,0.22468741,0.48907226,-0.19953787,0.8188461,15.760772705078125,-0.4303222596645355,-4.65450382232666,-73.12828826904297,257.7217712402344, 133.32009887695312
356,4028537140,0.2190311,0.4568713,-0.20559388,0.8372726,15.902213096618652,3.2801711559295654,-3.708181142807007,-40.17512130737305,225.68667602539062, 124.78175354003906
357,4028553807,0.21510234,0.42986852,-0.20912981,0.85159194,12.03014087677002,4.0183939933776855,-5.850289344787598,-29.07769775390625,189.14913940429688, 93.40618896484375
358,4028570474,0.20891996,0.41410565,-0.20417199,0.86208045,9.078970909118652,4.337253093719482,-9.30231761932373,38.42877960205078,121.38809204101562, 59.693946838378906
359,4028587141,0.20421115,0.41079235,-0.19494145,0.866917,8.248209953308105,6.967711925506592,-10.34989070892334,69.49517059326172,39.78071594238281, 13.219794273376465
360,4028603808,0.20317495,0.41590777,-0.18714401,0.8664398,8.88581657409668,6.678439617156982,-9.172151565551758,55.274757385253906,-22.483423233032227, -23.349042892456055
361,4028620475,0.20368746,0.42692935,-0.17874478,0.86272436,9.685503959655762,6.8243632316589355,-8.318465232849121,58.4976692199707,-64.03125762939453, -46.391780853271484
362,4028637142,0.20862105,0.43949142,-0.17520282,0.85593724,12.571210861206055,7.823476314544678,-2.6802146434783936,15.071967124938965,-83.4992904663086, -64.52447509765625
363,4028653809,0.2236636,0.44092414,-0.19030453,0.848142,13.056770324707031,-5.809963226318359,21.985231399536133,-142.40623474121094,-35.58679962158203, -55.675994873046875
364,4028670476,0.23408441,0.44455096,-0.20145524,0.84082973,9.427861213684082,-11.453620910644531,-0.7675913572311401,-101.33399963378906,-46.98985290527344, -42.84626388549805
365,4028687143,0.23717374,0.45584312,-0.20579547,0.83282894,19.096561431884766,-2.931089401245117,-5.964527606964111,-28.131935119628906,-92.59358215332031, -33.057159423828125
366,4028703810,0.23726226,0.47314978,-0.19832395,0.82492656,12.993894577026367,-7.355103969573975,-2.08010196685791,58.86391067504883,-111.64704895019531, -61.257633209228516
367,4028720477,0.23605214,0.49326712,-0.18186131,0.81724745,13.485128402709961,1.1701442003250122,0.051147446036338806,118.99405670166016,-113.94901275634766, -86.66162109375
368,4028737144,0.24019003,0.51007694,-0.16999981,0.8082267,11.271662712097168,6.131106376647949,1.7285405397415161,67.93582916259766,-100.67815399169922, -99.14984130859375
369,4028753811,0.24575593,0.522005,-0.1636996,0.8001983,8.486692428588867,8.506865501403809,2.4003031253814697,25.09661293029785,-77.58665466308594, -80.20643615722656
370,4028770478,0.25522378,0.52875435,-0.16850215,0.7917619,10.582714080810547,7.395003795623779,1.937896728515625,-59.22356033325195,-64.94386291503906, -56.642982482910156
371,4028787145,0.2620836,0.5340759,-0.17588611,0.7843081,10.502175331115723,-1.24880051612854,1.1399768590927124,-65.17474365234375,-61.16071701049805, -29.643352508544922
372,4028803812,0.2635908,0.5420397,-0.17425387,0.77868384,10.884139060974121,-0.11870389431715012,0.821531355381012,10.08064079284668,-58.924888610839844, -33.797027587890625
373,4028820479,0.26567647,0.54896027,-0.17179048,0.77365816,10.939733505249023,-0.16653881967067719,0.762363851070404,11.202873229980469,-48.91303634643555, -37.66651153564453
374,4028837146,0.26695055,0.55530626,-0.16867757,0.7693637,10.578958511352539,-0.14368420839309692,1.3851370811462402,17.536367416381836,-42.872074127197266, -33.79670715332031
375,4028853813,0.2675224,0.5609784,-0.16558336,0.7657136,10.337882995605469,1.3052629232406616,1.5805927515029907,19.630306243896484,-37.70390701293945, -28.05757713317871
376,4028870480,0.26804474,0.565237,-0.1639061,0.7627543,9.976591110229492,1.4630557298660278,1.7010809183120728,10.54914665222168,-30.26849937438965, -19.454565048217773
377,4028887147,0.2676395,0.56856406,-0.16259755,0.76070124,9.790133476257324,1.3988171815872192,1.870323896408081,11.525483131408691,-23.59577751159668, -10.439112663269043
378,4028903814,0.26649827,0.5714447,-0.16130123,0.7592177,9.743185997009277,1.3276147842407227,2.3564655780792236,14.15668773651123,-19.889568328857422, -4.996894836425781
379,4028920481,0.26516053,0.57421106,-0.15996912,0.7578797,9.458824157714844,0.7535126209259033,2.613490343093872,15.068949699401855,-18.886112213134766, -3.721597194671631
380,4028937148,0.2639601,0.57726693,-0.15825157,0.7563363,9.401827812194824,0.4645785689353943,2.668992280960083,16.839927673339844,-20.364850997924805, -6.657192707061768
381,4028953815,0.26335067,0.5805388,-0.15680547,0.7543429,9.388798713684082,0.7208752036094666,2.7122626304626465,12.989602088928223,-23.135953903198242, -9.710622787475586
382,4028970482,0.2631481,0.5841691,-0.15567976,0.75184005,9.127239227294922,0.9849852919578552,2.8752856254577637,9.806771278381348,-27.18284034729004, -11.855775833129883
383,4028987149,0.26315245,0.58822876,-0.15464659,0.74888074,9.049592018127441,0.9391392469406128,2.6588692665100098,8.787582397460938,-31.196632385253906, -13.842506408691406
384,4029003816,0.26335603,0.59279823,-0.1534049,0.7454534,9.083691596984863,0.8093705177307129,2.389092206954956,9.482752799987793,-35.13908386230469, -17.1036434173584
385,4029020483,0.26364735,0.59797394,-0.15173784,0.74154764,9.121053695678711,0.7188759446144104,2.247600793838501,11.900857925415039,-39.345890045166016, -20.79690170288086
386,4029037150,0.26400194,0.6039324,-0.14959091,0.73701525,9.102423667907715,1.0039153099060059,2.178860902786255,14.855511665344238,-44.9890251159668, -25.049909591674805
387,4029053817,0.26462823,0.61053133,-0.14752057,0.73175216,9.278806686401367,1.2255717515945435,2.153209924697876,13.752138137817383,-51.139949798583984, -28.097293853759766
388,4029070484,0.26551828,0.61761934,-0.1455639,0.7258496,9.149506568908691,1.3147032260894775,2.0508739948272705,12.316134452819824,-56.234920501708984, -30.609172821044922
389,4029087151,0.26658908,0.62508214,-0.1434883,0.7194539,9.228385925292969,1.496347427368164,1.8213492631912231,12.334781646728516,-59.812774658203125, -33.29377365112305
390,4029103818,0.2677062,0.63275313,-0.14130147,0.71273476,9.304566383361816,1.682822823524475,1.4717298746109009,12.750728607177734,-61.99347686767578, -34.80105972290039
391,4029120485,0.26902097,0.6405269,-0.1390428,0.7057055,9.247505187988281,2.174968957901001,1.558274507522583,12.132735252380371,-63.52994155883789, -36.75347900390625
392,4029137152,0.27086988,0.648247,-0.13733265,0.69824445,9.044803619384766,2.3806865215301514,1.2180572748184204,6.60805082321167,-65.68504333496094, -37.67609786987305
393,4029153819,0.27241877,0.6562397,-0.13605955,0.6903806,10.001957893371582,1.5035581588745117,0.6237751841545105,5.975668430328369,-69.8938980102539, -35.29292678833008
394,4029170486,0.27273074,0.66502833,-0.13381505,0.68223804,10.314787864685059,0.9990621209144592,0.3560195565223694,17.401216506958008,-74.27159118652344, -35.075157165527344
395,4029187153,0.27213454,0.67450917,-0.13059291,0.6737401,10.361198425292969,1.3473193645477295,0.21736451983451843,27.110971450805664,-78.1507568359375, -36.59645080566406
396,4029203820,0.27103353,0.6844722,-0.12688531,0.6647849,10.618247985839844,1.6674667596817017,0.2408784031867981,32.193572998046875,-82.0545654296875, -37.80375289916992
397,4029220487,0.26905072,0.694999,-0.12249693,0.65542567,10.874336242675781,1.7288962602615356,-0.12789751589298248,40.1555290222168,-86.0391845703125, -38.22736740112305
398,4029237154,0.26635978,0.7062013,-0.1175994,0.6453701,10.881688117980957,2.0222201347351074,-0.2653958797454834,46.49748611450195,-92.07047271728516, -39.33158493041992
399,4029253821,0.2639108,0.7177775,-0.11319388,0.6342977,11.343421936035156,2.044663429260254,0.07190105319023132,43.00347900390625,-99.37663269042969, -40.185279846191406
400,4029270488,0.26205847,0.729318,-0.10949261,0.6224405,11.983903884887695,1.9892691373825073,0.10906417667865753,36.313934326171875,-103.9174575805664, -40.713226318359375
401,4029287155,0.26054263,0.7409911,-0.10591391,0.6097804,12.449015617370605,1.8348652124404907,0.2691265940666199,33.73963165283203,-108.48857116699219, -43.091644287109375
402,4029303822,0.25950202,0.7526882,-0.10245208,0.5963414,12.784963607788086,1.756930947303772,-0.03495624661445618,30.307268142700195,-112.43388366699219, -45.91004943847656
403,4029320489,0.25860816,0.76439273,-0.09906804,0.5822469,13.34078598022461,1.1048872470855713,0.05208234488964081,28.7819766998291,-115.90564727783203, -47.29261779785156
404,4029337156,0.25826195,0.7760382,-0.097282946,0.56709945,16.334239959716797,1.1946489810943604,1.4373855590820312,18.682741165161133,-123.68988037109375, -42.92726516723633
405,4029353823,0.2591242,0.78681844,-0.097495094,0.55160344,17.165735244750977,0.1975301206111908,2.47157621383667,2.6849160194396973,-124.94171142578125, -37.04135513305664
406,4029370490,0.25888813,0.7980362,-0.09729781,0.5353957,15.780890464782715,-1.2131006717681885,4.1064934730529785,10.487324714660645,-130.4954376220703, -36.67689895629883
407,4029387157,0.25628597,0.8098911,-0.09597412,0.5188285,16.453033447265625,-1.9408148527145386,5.457928657531738,28.5196533203125,-134.43521118164062, -35.244571685791016
408,4029403824,0.24923348,0.823416,-0.092357725,0.50133735,15.237650871276855,-0.22544585168361664,2.1216368675231934,63.821998596191406,-144.4917449951172, -34.900390625
409,4029420491,0.24082273,0.8373432,-0.088084675,0.48280644,17.3885555267334,3.4001998901367188,2.0290863513946533,73.81095123291016,-151.54153442382812, -35.99557876586914
410,4029437158,0.23477022,0.8493013,-0.08616989,0.46491435,14.352425575256348,1.1359308958053589,3.8742311000823975,49.53758239746094,-143.8442840576172, -28.00309944152832
411,4029453825,0.2230545,0.8625594,-0.08301789,0.44648203,10.203141212463379,3.831136465072632,0.7257801294326782,88.35541534423828,-152.56411743164062, -18.781158447265625
412,4029470492,0.2110455,0.8746953,-0.08034434,0.42885044,10.62836742401123,8.836432456970215,-0.9572864770889282,87.36917877197266,-145.29388427734375, -13.166153907775879
413,4029487159,0.20933451,0.8823633,-0.08225598,0.41333795,11.496565818786621,7.622731685638428,0.12664765119552612,6.618861675262451,-120.34949493408203, -10.385716438293457
414,4029503826,0.21153606,0.88687277,-0.084768124,0.40190026,7.485314846038818,5.539358615875244,0.8810212016105652,-21.047649383544922,-85.32633209228516, -10.196056365966797
415,4029520493,0.22605196,0.88522774,-0.09234535,0.3959104,9.278596878051758,4.005792140960693,6.3830084800720215,-115.89173126220703,-35.303653717041016, -1.8263311386108398
416,4029537160,0.24387282,0.87915915,-0.102403305,0.39638245,6.59250020980835,-3.5601439476013184,5.221441745758057,-145.51263427734375,14.270560264587402, 17.114234924316406
417,4029553827,0.24485746,0.8757869,-0.105064735,0.4024968,5.972189903259277,-2.266989231109619,2.846555233001709,-15.086621284484863,41.54656982421875, 25.816234588623047
418,4029570494,0.24361557,0.8706074,-0.106349535,0.41398567,6.703333854675293,2.868448257446289,1.8598153591156006,2.964780569076538,79.60071563720703, 34.027488708496094
419,4029587161,0.24470901,0.862035,-0.10868099,0.4303509,6.401449680328369,2.716247797012329,1.2671390771865845,-16.096874237060547,118.39125061035156, 44.2994384765625
420,4029603828,0.24633145,0.8505385,-0.111685075,0.45103404,6.0879058837890625,1.935736894607544,0.5205457806587219,-22.90973663330078,151.89358520507812, 56.18085861206055
421,4029620495,0.2477587,0.83628744,-0.11542964,0.47530514,6.318126678466797,1.390620470046997,-0.09035290777683258,-25.970558166503906,180.01637268066406, 69.3165283203125
422,4029637162,0.24855022,0.81929964,-0.1197961,0.50261307,6.980917930603027,1.1560554504394531,-0.34248191118240356,-26.60293960571289,204.86354064941406, 82.32475280761719
423,4029653829,0.24894053,0.7991923,-0.12463316,0.5327167,7.749570846557617,1.066991925239563,-0.49123233556747437,-29.001054763793945,230.2690887451172, 93.7181396484375
424,4029670496,0.24894686,0.77575773,-0.13032681,0.5650136,8.691634178161621,0.6120091080665588,-0.9310746192932129,-33.84523391723633,252.7283172607422, 106.44500732421875
425,4029687163,0.24710241,0.7494969,-0.13605519,0.5989022,9.902000427246094,0.17148996889591217,-1.5243417024612427,-27.539243698120117,270.4937744140625, 119.0887451171875
426,4029703830,0.24349682,0.72044146,-0.1417464,0.6337047,10.95267105102539,0.2604791224002838,-1.8821169137954712,-22.199254989624023,285.1505126953125, 130.3208770751953
427,4029720497,0.23911804,0.6884898,-0.14795195,0.6685168,12.023066520690918,0.5342009663581848,-2.1525673866271973,-25.475624084472656,296.2257995605469, 139.08404541015625
428,4029737164,0.23503083,0.65338326,-0.15548341,0.7026207,13.20812702178955,1.328515648841858,-2.4685964584350586,-38.86431121826172,305.52716064453125, 146.07467651367188
429,4029753831,0.23220542,0.6147237,-0.1653242,0.73543435,14.68680477142334,1.646312952041626,-2.7655913829803467,-62.843196868896484,314.5592956542969, 152.0796661376953
430,4029770498,0.23047256,0.57304686,-0.17695509,0.7662811,15.889020919799805,2.3817920684814453,-2.8754029273986816,-83.57539367675781,319.94122314453125, 154.42694091796875
431,4029787165,0.23007083,0.52880496,-0.19015929,0.7945265,17.006532669067383,2.770785331726074,-3.477532148361206,-104.36263275146484,322.3941650390625, 152.629150390625
432,4029803832,0.22660297,0.48549157,-0.20240565,0.81974465,17.248830795288086,0.4069814682006836,-5.574985980987549,-90.48258972167969,303.8697204589844, 159.90802001953125
433,4029820499,0.21610442,0.44891998,-0.20737709,0.8418817,18.382184982299805,1.9563994407653809,-4.865312576293945,-19.767690658569336,257.17254638671875, 161.06491088867188
434,4029837166,0.20838037,0.41738993,-0.21132588,0.8588974,14.866528511047363,7.860429286956787,-5.7612128257751465,-22.2286434173584,217.71336364746094, 127.05667114257812
435,4029853833,0.20062971,0.39642543,-0.20861554,0.8712487,10.150986671447754,5.942572116851807,-10.380894660949707,25.5140438079834,151.49014282226562, 86.10612487792969
436,4029870500,0.19346498,0.39155266,-0.19679788,0.87779766,7.903618335723877,9.182692527770996,-13.20287799835205,92.332763671875,52.7628288269043, 26.715442657470703
437,4029887167,0.19141516,0.39836162,-0.18773896,0.87716734,8.422718048095703,8.521273612976074,-12.398347854614258,67.70875549316406,-33.72273254394531, -22.044870376586914
438,4029903834,0.19245271,0.41279307,-0.1796116,0.871954,9.824013710021973,7.561302185058594,-10.835494041442871,57.726356506347656,-89.4019775390625, -53.94962692260742
439,4029920501,0.19861951,0.42984638,-0.17762223,0.8626892,10.42619514465332,8.922837257385254,-8.097513198852539,4.812519550323486,-118.33135223388672, -75.84406280517578
440,4029937168,0.2142694,0.4350058,-0.19322233,0.85295004,18.617454528808594,-4.86702823638916,29.420095443725586,-144.41067504882812,-61.56621170043945, -66.17801666259766
441,4029953835,0.22883268,0.43220577,-0.20823742,0.8470367,5.198920726776123,-18.108808517456055,11.727450370788574,-144.3677978515625,-4.143444538116455, -45.340389251708984
442,4029970502,0.22929916,0.44243282,-0.21144079,0.84081393,18.83352279663086,3.1027255058288574,-11.527215003967285,-13.570674896240234,-82.59709167480469, -17.566091537475586
443,4029987169,0.23315436,0.45572355,-0.21209082,0.83244985,16.180192947387695,-7.014286518096924,-1.6637113094329834,-7.412229061126709,-97.7579116821289, -52.72805404663086
444,4030003836,0.23153609,0.47565168,-0.19754389,0.82530195,11.844927787780762,-1.5685703754425049,-0.8309297561645508,109.15402221679688,-115.520751953125, -76.78877258300781
445,4030020503,0.2362871,0.4928704,-0.18656102,0.81635916,13.053196907043457,5.47838020324707,0.24573612213134766,61.33688735961914,-103.0128173828125, -100.46746826171875
446,4030037170,0.24260926,0.50660163,-0.1790126,0.8077439,9.228804588317871,5.714723587036133,1.5199388265609741,31.462087631225586,-85.87181854248047, -92.61198425292969
447,4030053837,0.25163722,0.51561326,-0.17929849,0.7991708,10.793777465820312,9.33520793914795,1.4486740827560425,-29.3166446685791,-69.25337219238281, -74.43889617919922
448,4030070504,0.26151255,0.5211612,-0.1882856,0.7902852,10.981812477111816,-0.5765900611877441,1.2747876644134521,-86.53482818603516,-65.34333038330078, -44.46151351928711
449,4030087171,0.26449975,0.5298473,-0.18761396,0.78364706,10.960976600646973,0.43434491753578186,0.7104777097702026,-0.8127979040145874,-65.8942642211914, -41.66600036621094
450,4030103838,0.26757246,0.536509,-0.18779378,0.77800816,10.442526817321777,0.0891597792506218,0.8011923432350159,-8.105868339538574,-52.782527923583984, -34.59895706176758
451,4030120505,0.26896992,0.5431387,-0.18574199,0.7734052,10.991581916809082,-0.753108024597168,1.3346604108810425,11.290257453918457,-46.84805679321289, -31.928518295288086
452,4030137172,0.2696625,0.5494108,-0.18292215,0.76939553,10.220319747924805,0.49643614888191223,1.8533525466918945,18.106172561645508,-42.2130126953125, -29.507598876953125
453,4030153839,0.27086565,0.5545334,-0.18101129,0.76574117,9.59147834777832,0.9647790193557739,2.1331372261047363,9.68555736541748,-35.84056854248047, -26.676475524902344
454,4030170506,0.2721666,0.55862653,-0.18025386,0.76247656,9.509069442749023,1.0777168273925781,2.357933282852173,1.8095523118972778,-30.971206665039062, -20.788522720336914
455,4030187173,0.27260622,0.5625873,-0.1794023,0.7596027,9.585454940795898,0.527427613735199,2.7723798751831055,5.848895072937012,-29.67989158630371, -15.74124526977539
456,4030203840,0.27243525,0.5670479,-0.17763312,0.7567578,9.409405708312988,0.2129766345024109,2.7986087799072266,13.979182243347168,-31.2252140045166, -16.669801712036133
457,4030220507,0.27219585,0.5720661,-0.17489396,0.7536988,9.417573928833008,0.45478230714797974,2.5283427238464355,20.080385208129883,-33.24271011352539, -21.18603515625
458,4030237174,0.27246514,0.5770773,-0.17243679,0.75034016,9.69792366027832,0.6110554933547974,2.268718719482422,16.248266220092773,-34.31495666503906, -23.27294921875
459,4030253841,0.272765,0.5822484,-0.17027536,0.7467212,9.541938781738281,0.9404487013816833,2.09735107421875,14.59463882446289,-36.702919006347656, -22.94101333618164
460,4030270508,0.27319187,0.5875428,-0.16849077,0.7428127,9.291501998901367,0.9767002463340759,2.0225813388824463,12.046416282653809,-39.06455612182617, -22.776100158691406
461,4030287175,0.27359188,0.59310406,-0.16667745,0.7386432,9.359426498413086,0.989952027797699,2.035370349884033,12.503849983215332,-41.4710578918457, -23.55834197998047
462,4030303842,0.2739695,0.5990425,-0.16477446,0.73412424,9.500143051147461,0.9542048573493958,1.892412543296814,13.362345695495605,-44.68125534057617, -24.904483795166016
463,4030320509,0.2740312,0.6056552,-0.16259705,0.72914416,9.337346076965332,1.196183443069458,1.583243727684021,16.799346923828125,-49.83695983886719, -26.078065872192383
464,4030337176,0.27402142,0.6127703,-0.1607191,0.7235982,9.25975513458252,1.3601160049438477,1.3066554069519043,15.912261009216309,-55.367122650146484, -26.104589462280273
465,4030353843,0.27387235,0.6204141,-0.158996,0.7174963,9.283658981323242,1.2818033695220947,1.2702913284301758,16.11310386657715,-60.79505157470703, -26.393217086791992
466,4030370510,0.27352932,0.6285269,-0.15699978,0.71097606,9.246379852294922,1.2312246561050415,1.4435875415802002,18.71708106994629,-64.59970092773438, -27.905364990234375
467,4030387177,0.27315217,0.6371223,-0.1546918,0.7039415,9.435007095336914,1.5319079160690308,1.2193690538406372,20.74441909790039,-68.64354705810547, -30.57851791381836
468,4030403844,0.27263865,0.6461669,-0.15238784,0.696358,9.656730651855469,1.4423407316207886,0.7504228949546814,21.584260940551758,-73.38607025146484, -31.412811279296875
469,4030420511,0.27144092,0.65591675,-0.14986117,0.6882114,9.9078950881958,1.246807336807251,0.5611351728439331,26.425472259521484,-79.57135772705078, -30.924938201904297
470,4030437178,0.2695754,0.66639376,-0.14706242,0.6794272,9.85058307647705,1.4885954856872559,0.600427508354187,31.42741584777832,-86.07658386230469, -30.93776512145996
471,4030453845,0.26748067,0.6771652,-0.14411664,0.6701731,10.023192405700684,1.5508610010147095,0.5018278360366821,33.23955154418945,-89.57318878173828, -31.714550018310547
472,4030470512,0.26542303,0.6880729,-0.14118762,0.66043353,10.269959449768066,1.8480669260025024,0.4980963468551636,32.76145935058594,-92.4651870727539, -32.84007263183594
473,4030487179,0.26345703,0.6987387,-0.13829377,0.650561,10.815729141235352,1.8834080696105957,0.1687401831150055,31.60106658935547,-91.98128509521484, -33.10148239135742
474,4030503846,0.26140767,0.7092056,-0.13529798,0.6406153,11.169170379638672,1.6727949380874634,-0.5110111236572266,32.03170394897461,-91.34779357910156, -33.16616439819336
475,4030520513,0.2597082,0.7193717,-0.1327188,0.6304299,11.507421493530273,1.7589677572250366,-0.65528404712677,27.7294979095459,-91.62174987792969, -32.833309173583984
476,4030537180,0.25874555,0.72933555,-0.13079892,0.6196871,11.854931831359863,1.7717150449752808,-0.19117724895477295,20.359811782836914,-94.01541900634766, -33.58335876464844
477,4030553847,0.2586674,0.7392175,-0.12921323,0.6082372,12.297712326049805,1.9469032287597656,-0.07814750075340271,13.72168254852295,-97.02521514892578, -36.86750030517578
478,4030570514,0.25881884,0.7496175,-0.12729985,0.5957192,12.817941665649414,1.5597586631774902,0.3569263517856598,13.902652740478516,-103.84999084472656, -41.86043167114258
479,4030587181,0.25866997,0.76079845,-0.124494396,0.58204526,13.662457466125488,0.9395076036453247,0.5984706878662109,19.488082885742188,-111.70367431640625, -47.980506896972656
480,4030603848,0.2577277,0.77326614,-0.12141111,0.5664761,17.151111602783203,0.16281387209892273,2.4338467121124268,25.422420501708984,-126.97909545898438, -50.748931884765625
481,4030620515,0.25779673,0.78588307,-0.12042711,0.5490228,20.063627243041992,-0.6758325099945068,3.8214662075042725,10.569588661193848,-140.4994659423828, -47.019020080566406
482,4030637182,0.25592792,0.79970074,-0.11840854,0.53005576,16.864065170288086,-2.414445400238037,6.173314094543457,25.835695266723633,-153.04446411132812, -49.01332473754883
483,4030653849,0.25168917,0.81443137,-0.11537748,0.5099435,17.32120704650879,-3.0568158626556396,7.2011260986328125,43.24736022949219,-162.89053344726562, -48.74954605102539
484,4030670516,0.24344887,0.829479,-0.11061154,0.4903699,17.10728645324707,0.9824205040931702,1.831247329711914,72.72931671142578,-161.2416229248047, -43.803863525390625
485,4030687183,0.234732,0.8443003,-0.105178714,0.47010168,17.286880493164062,4.374743461608887,1.0710855722427368,76.79844665527344,-163.7393035888672, -47.01490783691406
486,4030703850,0.22512348,0.8577708,-0.10132502,0.4508681,12.460787773132324,2.175029993057251,1.9885050058364868,75.44957733154297,-156.60989379882812, -32.31999969482422
487,4030720517,0.20831569,0.87171394,-0.09481502,0.4332777,8.835949897766113,5.690467357635498,-0.3014478385448456,128.0410614013672,-149.3376922607422, -23.460588455200195
488,4030737184,0.19272074,0.883031,-0.08918936,0.4185215,9.406915664672852,9.355490684509277,-0.3770904839038849,116.23755645751953,-125.01924896240234, -15.977897644042969
489,4030753851,0.1838245,0.8903628,-0.08704232,0.40729126,7.232564449310303,4.54175329208374,-0.6529420018196106,62.458988189697266,-92.66390991210938, -6.9752349853515625
490,4030770518,0.17925592,0.8939142,-0.087548144,0.40139756,5.442156791687012,6.8077802658081055,0.5838391184806824,26.9632568359375,-50.18484115600586, 6.168806552886963
491,4030787185,0.18980308,0.89165854,-0.09519281,0.39982277,7.247217655181885,3.510817289352417,3.8943684101104736,-90.15807342529297,-7.322774887084961, 17.154972076416016
492,4030803852,0.20074832,0.8867038,-0.1039536,0.4032996,5.081248760223389,-1.706864595413208,2.759514331817627,-95.87882232666016,29.82842254638672, 31.265836715698242
493,4030820519,0.2063606,0.8807947,-0.11090081,0.4114816,4.648508071899414,-0.3525412976741791,1.592980146408081,-56.29265213012695,59.82943344116211, 42.1444091796875
494,4030837186,0.2122048,0.87245876,-0.118668064,0.42391405,5.2643303871154785,1.8210417032241821,0.6022142171859741,-60.22515106201172,91.43675994873047, 54.32362365722656
495,4030853853,0.220366,0.86099786,-0.12794222,0.44017348,5.509836196899414,2.2840139865875244,0.0153159499168396,-79.94664001464844,123.19012451171875, 64.73817443847656
496,4030870520,0.22926937,0.84684867,-0.13749887,0.45975778,5.597663879394531,2.3397974967956543,-0.3498385548591614,-86.35384368896484,151.23057556152344, 71.57451629638672
497,4030887187,0.23869666,0.8300534,-0.1472405,0.48203278,5.92140007019043,2.3057515621185303,-0.36752209067344666,-91.61429595947266,175.470458984375, 77.7392349243164
498,4030903854,0.24780622,0.8104715,-0.15733117,0.50692725,6.430469036102295,2.026799440383911,-0.4577503502368927,-92.88910675048828,198.7666015625, 87.91372680664062
499,4030920521,0.25575158,0.78813446,-0.1673804,0.5342464,7.2536420822143555,1.8137354850769043,-0.7956322431564331,-88.3326644897461,220.70106506347656, 98.85797119140625
500,4030937188,0.2620281,0.7631721,-0.17672612,0.5636291,8.390192031860352,1.7279880046844482,-1.3819358348846436,-78.9543228149414,240.8544464111328, 107.83216094970703
501,4030953855,0.2662339,0.73574686,-0.18513076,0.5945781,9.761443138122559,1.502644419670105,-1.6970083713531494,-66.97575378417969,257.8140869140625, 116.73944854736328
502,4030970522,0.2683139,0.7061119,-0.19254091,0.626372,10.98823356628418,1.2243432998657227,-1.8108248710632324,-55.1374626159668,270.2535400390625, 124.766845703125
503,4030987189,0.268796,0.6743355,-0.19880283,0.65840554,11.906453132629395,1.234561562538147,-1.9910105466842651,-46.081336975097656,280.66424560546875, 129.3579864501953
504,4031003856,0.2686139,0.6402783,-0.20459038,0.68995154,13.075028419494629,1.7476898431777954,-2.013883590698242,-45.74370193481445,288.72711181640625, 132.3905792236328
505,4031020523,0.26897842,0.6033486,-0.21100517,0.72048455,14.280804634094238,2.299147367477417,-1.789674162864685,-57.87700271606445,297.5445251464844, 134.7429656982422
506,4031037190,0.269428,0.56393397,-0.21765566,0.7496754,15.510313034057617,2.053548574447632,-1.51894211769104,-65.96082305908203,304.02093505859375, 136.4411163330078
507,4031053857,0.26972368,0.5229251,-0.22416054,0.7768853,16.565082550048828,1.7584279775619507,-1.7911632061004639,-70.54679870605469,304.6468200683594, 135.40350341796875
508,4031070524,0.26830003,0.48246434,-0.22988294,0.8014968,16.35416603088379,0.7354682683944702,-3.520561695098877,-63.18742752075195,291.2272644042969, 136.1243896484375
509,4031087191,0.26056674,0.4474056,-0.23078862,0.8238143,16.637252807617188,0.033006928861141205,-3.339071273803711,-9.367474555969238,252.8096160888672, 142.15423583984375
510,4031103858,0.25406227,0.41549957,-0.23080362,0.8423434,15.851395606994629,5.9470906257629395,-3.2724266052246094,-8.474259376525879,226.9121856689453, 120.66658020019531
511,4031120525,0.2486359,0.39082262,-0.22888833,0.8561822,11.017533302307129,4.734043598175049,-8.17979621887207,4.780343055725098,176.79446411132812, 89.27981567382812
512,4031137192,0.24155419,0.38190213,-0.21796764,0.865039,8.04354190826416,5.825378894805908,-12.41086483001709,81.31658172607422,83.53083038330078, 41.53766632080078
513,4031153859,0.23847252,0.38628766,-0.20792429,0.866418,7.821756362915039,7.735225677490234,-11.599701881408691,76.46449279785156,-10.592245101928711, -12.280810356140137
514,4031170526,0.23857152,0.3986846,-0.19954537,0.86273754,9.802226066589355,6.216264247894287,-10.141472816467285,63.97608184814453,-69.833251953125, -46.51704406738281
515,4031187193,0.2407083,0.4160268,-0.19189638,0.8556618,10.138958930969238,7.991090297698975,-9.286947250366211,57.485958099365234,-106.7786636352539, -68.93003845214844
516,4031203860,0.25139344,0.4250081,-0.19981626,0.84631157,15.487862586975098,1.8664342164993286,17.11130142211914,-75.44046020507812,-78.4937515258789, -67.36878967285156
517,4031220527,0.26785833,0.42074707,-0.21835905,0.8387749,8.760392189025879,-15.768985748291016,19.208284378051758,-174.5702362060547,-6.629758358001709, -48.59356689453125
518,4031237194,0.27067,0.43016967,-0.22420035,0.83152026,14.668671607971191,-2.9473278522491455,-10.13318920135498,-36.12282943725586,-81.94976806640625, -26.700345993041992
519,4031253861,0.2742822,0.44354373,-0.22745243,0.82237685,17.40483283996582,-3.255162477493286,-2.1248459815979004,-19.236183166503906,-103.96442413330078, -48.55073928833008
520,4031270528,0.2739708,0.4643188,-0.21701789,0.8137884,12.029047012329102,-3.7634754180908203,-1.3395916223526,84.94963073730469,-124.3853530883789, -78.65280151367188
521,4031287195,0.2776541,0.48440793,-0.20611128,0.80360156,14.543478012084961,5.534045696258545,0.18713894486427307,71.15821838378906,-118.7657241821289, -104.53299713134766
522,4031303862,0.28560594,0.50019103,-0.20037188,0.79252106,9.653641700744629,7.88244104385376,1.0200881958007812,18.866207122802734,-101.73120880126953, -106.47348022460938
523,4031320529,0.29659715,0.510215,-0.20382269,0.78113204,9.891128540039062,8.536721229553223,1.055780053138733,-53.43683624267578,-85.26660919189453, -84.04170227050781
524,4031337196,0.30557168,0.51654696,-0.21302365,0.7709906,10.672104835510254,-0.2530827522277832,1.0039199590682983,-83.05355834960938,-75.61738586425781, -45.25279235839844
525,4031353863,0.30894017,0.5248581,-0.21647382,0.76303285,11.337296485900879,0.040711913257837296,0.2445244938135147,-25.29640007019043,-74.48380279541016, -34.26740264892578
526,4031370530,0.31073928,0.5325853,-0.2171532,0.7567289,10.91898250579834,-0.884748637676239,0.34114331007003784,-3.8736026287078857,-61.89605712890625, -31.654470443725586
527,4031387197,0.31059387,0.54100144,-0.21331903,0.7518936,11.037424087524414,-0.633090615272522,0.7576904892921448,30.399595260620117,-53.3582763671875, -35.97159194946289
528,4031403864,0.3105671,0.5483993,-0.20858945,0.74786156,10.419808387756348,0.5266023874282837,1.4859318733215332,33.592185974121094,-43.01862716674805, -36.72501754760742
529,4031420531,0.31072178,0.55454344,-0.2048232,0.7442992,10.134461402893066,0.949143648147583,1.5275108814239502,25.95042610168457,-36.60433578491211, -31.2353458404541
530,4031437198,0.31063348,0.559603,-0.2018303,0.74136084,9.797110557556152,1.189387321472168,1.6802116632461548,21.482412338256836,-30.6763916015625, -24.188983917236328
531,4031453865,0.30970114,0.5640517,-0.19905163,0.73912746,10.053414344787598,1.3869082927703857,2.1266114711761475,23.313474655151367,-26.488435745239258, -16.714168548583984
532,4031470532,0.30801475,0.56771904,-0.19674201,0.7376412,9.601492881774902,1.6877301931381226,2.953209638595581,23.21426773071289,-21.66231918334961, -8.407785415649414
533,4031487199,0.3060965,0.57172465,-0.19359016,0.7361785,9.36346435546875,0.1478649079799652,2.4047117233276367,29.14271354675293,-21.833356857299805, -10.92928695678711
534,4031503866,0.30405006,0.5764488,-0.18935111,0.73444325,9.624646186828613,0.8153405785560608,2.2488555908203125,36.30447006225586,-24.439043045043945, -16.098665237426758
535,4031520533,0.30242497,0.58167374,-0.18585274,0.7318836,9.337409019470215,1.449414610862732,2.406381130218506,30.87264633178711,-31.247636795043945, -17.675321578979492
536,4031537200,0.30145457,0.5871802,-0.18368183,0.7284267,8.918146133422852,1.440943956375122,2.4400572776794434,21.015993118286133,-38.19078063964844, -17.889522552490234
537,4031553867,0.30072933,0.5932788,-0.18181668,0.72424096,8.89664077758789,1.10482919216156,2.2833423614501953,18.806425094604492,-44.440982818603516, -20.14424705505371
538,4031570534,0.29992396,0.6002662,-0.17972825,0.71932185,9.046661376953125,1.0822619199752808,1.9185810089111328,21.170772552490234,-51.5134391784668, -23.28818130493164
539,4031587201,0.2989758,0.60818404,-0.17735858,0.71363133,9.196697235107422,1.1777501106262207,1.54865300655365,24.121212005615234,-58.910518646240234, -26.489124298095703
540,4031603868,0.29794565,0.61693317,-0.17491886,0.70712477,9.282602310180664,1.2931842803955078,1.1007024049758911,25.524370193481445,-66.37076568603516, -29.07647132873535
541,4031620535,0.29674998,0.62641275,-0.17244786,0.69986326,9.063879013061523,1.3398082256317139,0.885158121585846,26.973400115966797,-73.27033996582031, -30.834449768066406
542,4031637202,0.29524714,0.6367015,-0.1695245,0.6918829,9.03749942779541,1.57548189163208,0.8485729098320007,31.273622512817383,-79.71215057373047, -33.73636245727539
543,4031653869,0.29381645,0.6474304,-0.16652504,0.6832096,9.372769355773926,1.862438678741455,0.7345390319824219,31.40877914428711,-84.61239624023438, -36.336334228515625
544,4031670536,0.29234165,0.65854526,-0.16346313,0.673895,9.605137825012207,1.739865779876709,0.6581238508224487,31.9467716217041,-89.21639251708984, -38.14722442626953
545,4031687203,0.29052243,0.67024004,-0.16031183,0.6638338,9.67734432220459,1.7730616331100464,0.4302351772785187,34.25091552734375,-95.50386047363281, -39.11293029785156
546,4031703870,0.28896263,0.6821341,-0.15769017,0.6529378,10.236330032348633,2.0890862941741943,0.5359857678413391,30.12112808227539,-101.04461669921875, -39.7480354309082
547,4031720537,0.28815758,0.6934903,-0.1557205,0.6417068,10.694916725158691,2.2381932735443115,0.07500502467155457,22.22699737548828,-100.69418334960938, -40.164127349853516
548,4031737204,0.28754702,0.7044402,-0.15381142,0.6304148,10.986462593078613,2.127183437347412,-0.4183914065361023,20.16706085205078,-99.11708068847656, -40.42194747924805
549,4031753871,0.28723383,0.7149402,-0.15205513,0.6190611,11.497190475463867,1.7573219537734985,-0.7179566025733948,17.113208770751953,-97.46426391601562, -40.621829986572266
550,4031770538,0.28733444,0.72542167,-0.150418,0.60710526,12.246562957763672,1.4734247922897339,-0.5204628705978394,13.908036231994629,-100.16082763671875, -42.97636413574219
551,4031787205,0.28786078,0.73614836,-0.14860702,0.594254,12.824075698852539,1.904795527458191,-0.12241260707378387,12.074186325073242,-104.88338470458984, -47.656002044677734
552,4031803872,0.2880461,0.7474645,-0.14603758,0.5805166,13.594675064086914,1.7389322519302368,0.24109648168087006,17.16675567626953,-110.64702606201172, -52.4702262878418
553,4031820539,0.2870684,0.75975835,-0.1422091,0.5658054,14.623481750488281,1.0927942991256714,0.5148194432258606,29.13608169555664,-118.25689697265625, -57.226558685302734
554,4031837206,0.285219,0.7730092,-0.13891073,0.5493732,18.210750579833984,0.8271812796592712,2.268259048461914,31.843233108520508,-132.9041748046875, -55.42412567138672
555,4031853873,0.28411847,0.7861047,-0.13791528,0.53131497,19.22028350830078,-0.3394264578819275,3.9398107528686523,17.320377349853516,-144.81707763671875, -49.08898162841797
556,4031870540,0.282262,0.79959255,-0.13651466,0.512195,17.885784149169922,-1.7971587181091309,6.969041347503662,22.665958404541016,-151.9889678955078, -51.01304244995117
557,4031887207,0.27711514,0.8135635,-0.13399026,0.49332368,17.979394912719727,-3.4774067401885986,6.722288608551025,45.91154098510742,-153.3256378173828, -45.63371276855469
558,4031903874,0.2633215,0.8302285,-0.1275818,0.4744528,16.642253875732422,-0.09500692784786224,-0.3369583487510681,112.6124496459961,-163.13299560546875, -40.581138610839844
559,4031920541,0.24917585,0.84599096,-0.12142947,0.45548412,16.269758224487305,2.581646680831909,1.7047251462936401,112.06544494628906,-161.56973266601562, -37.38930892944336
560,4031937208,0.23451565,0.8594596,-0.11697255,0.43891823,10.771171569824219,1.6516836881637573,2.3858773708343506,107.837646484375,-143.80540466308594, -19.897483825683594
561,4031953875,0.21314602,0.87339705,-0.10957172,0.42395818,7.6627349853515625,7.832090377807617,-1.463165521621704,158.43984985351562,-136.4405517578125, -14.83732795715332
562,4031970542,0.19980572,0.88302535,-0.10530212,0.411407,9.75932788848877,12.579083442687988,-0.3665575087070465,96.60446166992188,-107.95885467529297, -12.616257667541504
563,4031987209,0.19768801,0.88799334,-0.105811305,0.40148643,4.5811309814453125,6.136725425720215,-2.7118077278137207,10.503413200378418,-77.2703628540039, -8.302690505981445
564,4032003876,0.1969617,0.8898262,-0.108038835,0.39716896,7.100417613983154,1.80844247341156,3.806919813156128,-2.901458740234375,-35.72231674194336, 8.271263122558594
565,4032020543,0.20533742,0.88680893,-0.11494488,0.39773655,6.979222297668457,0.46772828698158264,5.165557384490967,-74.28488159179688,7.788674831390381, 22.244369506835938
566,4032037210,0.20942453,0.88196343,-0.12219873,0.40416506,5.101156234741211,-2.0529067516326904,2.4046783447265625,-47.024192810058594,44.590877532958984, 45.78966522216797
567,4032053877,0.21128327,0.8757828,-0.12787032,0.41474482,6.03831148147583,2.3690223693847656,0.6005994081497192,-27.557159423828125,73.85479736328125, 49.46136474609375
568,4032070544,0.22110249,0.86522853,-0.13670987,0.42872363,6.504859447479248,3.579390287399292,0.11876975744962692,-87.8862075805664,109.17832946777344, 54.62110137939453
569,4032087211,0.23328115,0.8516226,-0.14669307,0.44586995,5.959333896636963,1.944475531578064,-0.03609725832939148,-106.94877624511719,137.4898681640625, 62.157569885253906
570,4032103878,0.24485776,0.8356592,-0.15638176,0.4661151,6.054605484008789,1.5165750980377197,-0.2728370130062103,-103.17695617675781,162.7241973876953, 69.62384796142578
571,4032120545,0.2545934,0.8173895,-0.16576266,0.4894687,6.379435062408447,1.3972289562225342,-0.5445799827575684,-92.1534194946289,186.51686096191406, 81.46511840820312
572,4032137212,0.26227853,0.7968418,-0.17466065,0.5155063,6.988210201263428,1.5146764516830444,-0.5161685347557068,-79.9376220703125,207.78033447265625, 92.9482421875
573,4032153879,0.2679619,0.7739691,-0.18258789,0.5439028,8.012957572937012,1.4603902101516724,-0.4287179708480835,-66.88983917236328,228.29852294921875, 101.774658203125
574,4032170546,0.2720401,0.7484772,-0.18954602,0.57432425,9.22360897064209,1.3990167379379272,-0.8285009264945984,-57.010990142822266,248.6483917236328, 109.6467056274414
575,4032187213,0.27456257,0.7203247,-0.19596176,0.6060913,10.502644538879395,1.0709002017974854,-1.3248975276947021,-50.09373092651367,265.0794982910156, 118.9924545288086
576,4032203880,0.2752915,0.6898471,-0.20149504,0.6385336,11.651932716369629,0.9109378457069397,-1.6400249004364014,-41.01902389526367,277.3804626464844, 126.51148223876953
577,4032220547,0.27498698,0.65681875,-0.20646708,0.67107594,12.531464576721191,1.3491826057434082,-1.8302685022354126,-38.354557037353516,288.7105407714844, 132.1188201904297
578,4032237214,0.27465782,0.6208706,-0.21181348,0.7030062,13.750356674194336,1.8166661262512207,-1.6435472965240479,-46.376991271972656,298.7132873535156, 136.92581176757812
579,4032253881,0.27435428,0.581965,-0.21755135,0.7339741,15.116900444030762,1.9272620677947998,-1.6222752332687378,-55.38437271118164,308.2452087402344, 140.9828338623047
580,4032270548,0.27295506,0.5411823,-0.2225089,0.76361454,16.370567321777344,1.4207525253295898,-1.6459810733795166,-52.606937408447266,312.2923278808594, 143.7148895263672
581,4032287215,0.2706599,0.49959335,-0.2263155,0.7911582,17.096200942993164,1.6661416292190552,-2.2759251594543457,-47.96795654296875,309.5709533691406, 141.45083618164062
582,4032303882,0.2647762,0.4606628,-0.22821929,0.81584275,16.592788696289062,-0.653874397277832,-4.630099296569824,-24.80112075805664,283.3006896972656, 144.99627685546875
583,4032320549,0.2556733,0.42657596,-0.22611043,0.83757883,17.7537784576416,4.502479076385498,-4.102398872375488,12.093730926513672,249.12222290039062, 137.3739471435547
584,4032337216,0.25087073,0.39680064,-0.22581078,0.853594,13.110100746154785,6.404095649719238,-7.706086158752441,-12.286051750183105,211.1063690185547, 101.1878433227539
585,4032353883,0.24496025,0.3810927,-0.21889421,0.86420375,8.61780071258545,5.160580158233643,-13.47333812713623,45.410099029541016,123.58887481689453, 58.51105499267578
586,4032370550,0.24121079,0.38145274,-0.2097199,0.8673688,8.013626098632812,8.69434642791748,-14.155776977539062,68.99584197998047,15.798466682434082, 3.061302900314331
587,4032387217,0.24160051,0.3919473,-0.20318784,0.8641304,8.886698722839355,6.690718650817871,-12.232439041137695,49.91843032836914,-59.70934295654297, -39.87751388549805
588,4032403884,0.24310571,0.40935206,-0.19500634,0.8574982,11.773462295532227,7.302552700042725,-8.849824905395508,63.417118072509766,-105.49242401123047, -66.2074203491211
589,4032420551,0.25427225,0.41734177,-0.2043211,0.84818876,14.147883415222168,1.3819091320037842,17.866268157958984,-86.30420684814453,-73.70056915283203, -65.72108459472656
590,4032437218,0.27102745,0.41550824,-0.2239567,0.8388924,9.222671508789062,-14.955571174621582,12.26390552520752,-179.7165069580078,-26.656585693359375, -54.83304214477539
591,4032453885,0.27532512,0.4273871,-0.23104039,0.8295521,18.052093505859375,0.08167314529418945,-9.750953674316406,-46.16507339477539,-101.73959350585938, -40.10978698730469
592,4032470552,0.28215492,0.44342995,-0.23558106,0.81747174,16.900060653686523,-4.019152641296387,-2.2785251140594482,-35.58497619628906,-124.56990814208984, -73.81057739257812
593,4032487219,0.28378978,0.46633565,-0.22530329,0.8069901,11.859441757202148,-2.852848529815674,-1.3548431396484375,79.45470428466797,-137.87246704101562, -97.83060455322266
594,4032503886,0.2894032,0.48617998,-0.2160958,0.79572463,12.1339111328125,6.1222333908081055,0.7339556217193604,53.561038970947266,-119.28455352783203, -113.28653717041016
595,4032520553,0.29659355,0.50095695,-0.21094829,0.7852231,7.783580780029297,7.315859794616699,1.6107481718063354,17.08363914489746,-94.71925354003906, -99.24542236328125
596,4032537220,0.3057921,0.5105431,-0.21379071,0.774681,11.129417419433594,9.369266510009766,0.619647741317749,-43.64930725097656,-80.2244873046875, -75.06037902832031
597,4032553887,0.31381148,0.5164676,-0.2242315,0.7645288,11.433893203735352,-1.760235071182251,0.7621246576309204,-87.14289093017578,-77.05638122558594, -35.82170867919922
598,4032570554,0.31495243,0.5271648,-0.22397229,0.7567951,11.077118873596191,-0.8492977619171143,0.4398040175437927,7.565396785736084,-81.07249450683594, -39.809818267822266
599,4032587221,0.3158288,0.53747934,-0.22131574,0.74992496,10.661225318908691,0.7580159306526184,0.3214285373687744,21.501157760620117,-71.16133117675781, -44.67900466918945
600,4032603888,0.31783044,0.54619753,-0.22002333,0.7431298,10.753578186035156,0.9903457760810852,1.0973048210144043,6.95539665222168,-63.89969253540039, -42.85122299194336
601,4032620555,0.3193888,0.5538385,-0.21923298,0.7370148,10.365697860717773,1.4979090690612793,0.8997288942337036,4.729583263397217,-57.61329650878906, -35.5859260559082
602,4032637222,0.32040873,0.5599785,-0.21972565,0.73176724,9.981680870056152,1.9434624910354614,0.942608118057251,-1.7120356559753418,-50.337318420410156, -23.802244186401367
603,4032653889,0.3200634,0.5652249,-0.22053732,0.7276288,9.800763130187988,1.4726121425628662,1.5693591833114624,1.6487466096878052,-44.34275436401367, -11.90593433380127
604,4032670556,0.31883484,0.5704693,-0.22072203,0.72401035,9.982829093933105,0.39429545402526855,1.906451940536499,9.00600528717041,-42.28300094604492, -8.776803016662598
605,4032687223,0.31725982,0.5762512,-0.2195215,0.7204797,9.700345039367676,0.3524206578731537,1.5674482583999634,18.580171585083008,-42.11695098876953, -13.118803024291992
606,4032703890,0.3160275,0.5820234,-0.21829556,0.71674436,9.644845008850098,0.822699785232544,1.6811026334762573,17.023521423339844,-42.31965637207031, -15.36081600189209
607,4032720557,0.31480744,0.58794236,-0.21704902,0.7128183,9.624412536621094,0.9125890731811523,1.64749014377594,17.114225387573242,-43.756553649902344, -16.14594841003418
608,4032737224,0.31351793,0.5938298,-0.21597974,0.7088198,9.439425468444824,0.983658492565155,1.5824756622314453,16.355676651000977,-44.39581298828125, -15.204524040222168
609,4032753891,0.31230062,0.59982276,-0.21476385,0.70466864,9.560091972351074,0.6970651149749756,1.3501893281936646,16.781343460083008,-45.12400436401367, -16.647241592407227
610,4032770558,0.31125924,0.6061368,-0.21321584,0.7001821,9.521834373474121,0.5702546834945679,1.2071106433868408,17.864538192749023,-47.104122161865234, -20.072509765625
611,4032787225,0.31029826,0.612905,-0.21128139,0.6952861,9.617908477783203,0.6551387310028076,1.0874215364456177,19.766693115234375,-50.065799713134766, -23.62294578552246
612,4032803892,0.30936375,0.6202463,-0.20911713,0.68982506,9.486493110656738,0.9391756653785706,1.0685994625091553,21.160808563232422,-54.671226501464844, -26.765968322753906
613,4032820559,0.30855343,0.62803334,-0.2069901,0.68375725,9.221914291381836,1.2605491876602173,1.0879398584365845,20.535009384155273,-59.28910446166992, -29.136098861694336
614,4032837226,0.3080404,0.63614446,-0.20494068,0.67707515,9.4249906539917,1.13712477684021,0.846119225025177,18.7064151763916,-63.2234001159668, -31.96798324584961
615,4032853893,0.30719796,0.64491194,-0.20233223,0.6699102,9.525507926940918,0.9971810579299927,0.4770968556404114,23.46361541748047,-67.68724060058594, -34.83429718017578
616,4032870560,0.30629706,0.6540833,-0.19955057,0.66222113,9.693669319152832,1.6573647260665894,0.47273072600364685,24.6472110748291,-71.60113525390625, -37.01203155517578
617,4032887227,0.30582294,0.6631656,-0.19745177,0.6539851,10.003020286560059,1.9173192977905273,0.176457017660141,18.684104919433594,-74.52246856689453, -36.917274475097656
618,4032903894,0.3050996,0.6723567,-0.19561854,0.64543337,10.21900749206543,2.003012180328369,-0.035996921360492706,18.431640625,-77.36209869384766, -35.39970397949219
619,4032920561,0.30386776,0.68166846,-0.19362095,0.63679177,10.670185089111328,1.885185956954956,-0.310907781124115,21.64706039428711,-78.66544342041016, -34.25651931762695
620,4032937228,0.30191556,0.6912301,-0.19098794,0.6281496,11.168947219848633,1.7185478210449219,-0.36739808320999146,28.3320369720459,-79.40545654296875, -34.4201545715332
621,4032953895,0.2995127,0.70109725,-0.18780924,0.6192598,11.872050285339355,1.5601654052734375,-0.2838554382324219,33.143985748291016,-81.3742904663086, -35.992610931396484
622,4032970562,0.29732335,0.7115094,-0.18495566,0.6092166,12.512308120727539,1.0011229515075684,0.014757812023162842,30.36764907836914,-89.66650390625, -38.4259033203125
623,4032987229,0.29569393,0.7226197,-0.18234217,0.5976096,12.937376976013184,1.356637954711914,0.34447476267814636,26.07007598876953,-100.04253387451172, -43.700645446777344
624,4033003896,0.29375347,0.7348925,-0.1791607,0.58441716,13.917975425720215,1.0637154579162598,1.1385034322738647,30.33300018310547,-111.96196746826172, -49.942893981933594
625,4033020563,0.29092315,0.7487056,-0.17529994,0.5692746,16.51043701171875,0.7973198890686035,2.135962963104248,38.28052520751953,-127.77073669433594, -55.65997314453125
626,4033037230,0.28790843,0.76329786,-0.1722437,0.5521026,20.00905418395996,0.22732096910476685,3.1538610458374023,35.21027755737305,-143.15721130371094, -55.828453063964844
627,4033053897,0.28305095,0.77939165,-0.16804814,0.5330955,18.65495491027832,-2.2874820232391357,6.264257907867432,50.02861785888672,-158.49424743652344, -60.27299880981445
628,4033070564,0.27810067,0.795223,-0.16379216,0.51327646,19.606796264648438,-3.1017823219299316,8.81779670715332,49.3251953125,-161.97836303710938, -61.6026725769043
629,4033087231,0.27349374,0.80815494,-0.16066334,0.49626052,17.409259796142578,-4.22014045715332,6.770110130310059,41.11371612548828,-138.31471252441406, -48.10505676269531
630,4033103898,0.258266,0.82605326,-0.15224287,0.47723913,13.876739501953125,3.1748995780944824,-2.6664533615112305,125.33939361572266,-168.31588745117188, -50.609745025634766
631,4033120565,0.2456768,0.8424463,-0.14593306,0.45676118,13.771919250488281,6.45197868347168,-0.656401515007019,99.22666931152344,-172.66265869140625, -48.290035247802734
632,4033137232,0.23318419,0.8566448,-0.14101109,0.4380648,9.533384323120117,6.153428554534912,-1.0914775133132935,92.41360473632812,-157.7398681640625, -35.32138442993164
633,4033153899,0.22025193,0.8685134,-0.13693757,0.4224002,8.631637573242188,6.845270156860352,-0.0053993165493011475,91.66956329345703,-134.67613220214844, -21.848173141479492
634,4033170566,0.21081452,0.8767248,-0.13501605,0.41070864,6.75756311416626,3.3918120861053467,1.7340935468673706,62.78392791748047,-100.3250732421875, -9.656237602233887
635,4033187233,0.2049114,0.88127077,-0.13483772,0.40397027,5.491878986358643,7.059879302978516,1.4163974523544312,35.86457824707031,-59.39910125732422, 1.4608386754989624
636,4033203900,0.21460938,0.87899107,-0.14219004,0.40137202,7.3246169090271,2.65385365486145,4.582850933074951,-85.31690216064453,-11.529009819030762, 15.947224617004395
637,4033220567,0.22334936,0.8744895,-0.149407,0.40380785,5.632935047149658,-2.055093765258789,3.4374923706054688,-77.48563385009766,24.22715950012207, 27.35957145690918
638,4033237234,0.22821285,0.86882275,-0.15466864,0.41127077,5.828686237335205,0.14505916833877563,1.8335299491882324,-45.3777961730957,56.66487503051758, 35.244468688964844
639,4033253901,0.23484519,0.8602025,-0.16070648,0.42317033,5.934054374694824,1.6804332733154297,1.0989662408828735,-58.051876068115234,92.15361785888672, 44.96354293823242
640,4033270568,0.24303113,0.8485796,-0.16706476,0.4392471,5.885614395141602,1.4828180074691772,1.0188915729522705,-68.39974975585938,126.77497863769531, 52.39700698852539
641,4033287235,0.25188726,0.83412814,-0.1732525,0.4590934,5.962654113769531,1.4338265657424927,0.383251428604126,-72.1911849975586,158.3499298095703, 58.92422866821289
642,4033303902,0.26032647,0.81716555,-0.17909187,0.4820757,6.306644439697266,1.4794049263000488,-0.2729085087776184,-69.30431365966797,184.36383056640625, 66.66041564941406
643,4033320569,0.2678414,0.7977745,-0.18443252,0.5077418,6.811243534088135,1.5215425491333008,-0.8152952194213867,-63.50238037109375,207.24627685546875, 74.72030639648438
644,4033337236,0.2740948,0.7758022,-0.18915105,0.535934,7.757927417755127,1.4161242246627808,-0.9680783748626709,-55.96379089355469,229.6667022705078, 83.6440658569336
645,4033353903,0.2788143,0.7512612,-0.19322549,0.56615657,8.932860374450684,0.9932622909545898,-1.3014565706253052,-47.6171989440918,249.19215393066406, 93.03817749023438
646,4033370570,0.28177476,0.72434705,-0.1964091,0.5977858,10.131567001342773,0.8045953512191772,-1.5278561115264893,-37.742679595947266,265.0815124511719, 101.13800811767578
647,4033387237,0.28307554,0.695075,-0.19911985,0.63015103,11.28868293762207,0.7853959202766418,-1.6153794527053833,-31.118616104125977,277.1327209472656, 110.22254180908203
648,4033403904,0.28333718,0.6633875,-0.20175916,0.6625184,12.324361801147461,0.8325883150100708,-1.953479290008545,-30.56011390686035,286.3493347167969, 117.70305633544922
649,4033420571,0.28310674,0.6291523,-0.2045495,0.69439006,13.266334533691406,1.353312373161316,-1.9930673837661743,-34.66652297973633,294.755126953125, 123.21248626708984
650,4033437238,0.28355047,0.5918254,-0.20864728,0.7251265,14.515786170959473,1.8819775581359863,-1.814237117767334,-51.46483612060547,303.0602111816406, 127.80415344238281
651,4033453905,0.28432223,0.5516273,-0.21415499,0.75432485,15.540498733520508,1.6113132238388062,-1.7723984718322754,-67.65849304199219,308.902587890625, 133.0494842529297
652,4033470572,0.2840395,0.510229,-0.21965367,0.7814988,16.662796020507812,1.2448420524597168,-2.0871315002441406,-68.96717834472656,305.98272705078125, 136.31089782714844
653,4033487239,0.28135148,0.47021443,-0.22414745,0.8059143,16.18090057373047,-0.013045374304056168,-4.071016311645508,-56.60651397705078,287.27093505859375, 138.2477264404297
654,4033503906,0.27260944,0.43601143,-0.22357912,0.828004,16.85825538635254,1.3403306007385254,-3.8482563495635986,-1.3237254619598389,248.09646606445312, 141.97535705566406
655,4033520573,0.26715973,0.40426505,-0.22477776,0.84538186,15.120930671691895,6.937784671783447,-4.691444396972656,-23.91405487060547,221.84205627441406, 115.93714904785156
656,4033537240,0.2624562,0.38103497,-0.2229311,0.85803914,10.272214889526367,3.7772889137268066,-9.838747024536133,0.010662571527063847,166.07713317871094, 81.3564224243164
657,4033553907,0.25669393,0.3743809,-0.21336171,0.8651151,7.798716068267822,6.4377336502075195,-13.705134391784668,69.67981719970703,66.1137466430664, 31.917396545410156
658,4033570574,0.25581136,0.38019332,-0.20707376,0.8643692,8.36995792388916,7.6767258644104,-13.096207618713379,48.088775634765625,-26.641742706298828, -20.714200973510742
659,4033587241,0.2568689,0.39420852,-0.20109391,0.8591737,10.024558067321777,5.703374862670898,-10.706461906433105,49.231544494628906,-84.64717102050781, -50.89273452758789
660,4033603908,0.26284856,0.40705243,-0.2016559,0.85120744,14.56822395324707,3.976217269897461,8.742757797241211,-8.698685646057129,-89.84629821777344, -65.469970703125
661,4033620575,0.2756414,0.40737677,-0.21582127,0.843497,10.341979026794434,-12.234662055969238,17.51835060119629,-129.6978302001953,-31.00727653503418, -49.39138412475586
662,4033637242,0.2758565,0.4198438,-0.21826524,0.8366568,14.496053695678711,-3.327280044555664,-9.629913330078125,-2.1155664920806885,-95.56333923339844, -25.717548370361328
663,4033653909,0.27865154,0.43571305,-0.22164528,0.82666856,20.835844039916992,-2.258316993713379,-2.9228782653808594,-13.211766242980957,-121.97773742675781, -48.95235061645508
664,4033670576,0.28012317,0.45797113,-0.21333204,0.81626165,12.638875961303711,-2.14178204536438,-1.8313179016113281,68.80956268310547,-139.04385375976562, -87.01268005371094
665,4033687243,0.28500983,0.4778221,-0.20532574,0.80516887,13.08981990814209,3.8637044429779053,0.2729681730270386,50.67216873168945,-123.21887969970703, -103.02787017822266
666,4033703910,0.2918281,0.49362513,-0.19920576,0.79466194,9.15823745727539,5.415803909301758,1.5082038640975952,26.729846954345703,-99.81819152832031, -100.6261978149414
667,4033720577,0.29986408,0.5043845,-0.19636059,0.78557,9.222541809082031,11.678915023803711,0.04407992959022522,-3.522390604019165,-72.36367797851562, -86.36571502685547
668,4033737244,0.31055313,0.5077226,-0.2071852,0.77643347,11.792173385620117,-0.11707138270139694,0.7505625486373901,-101.98230743408203,-57.02970504760742, -43.242149353027344
669,4033753911,0.31267902,0.5146492,-0.20914172,0.7704726,11.254316329956055,-0.7113292217254639,0.6133589148521423,-12.559683799743652,-58.35816955566406, -26.807409286499023
670,4033770578,0.31331608,0.5223315,-0.20652041,0.7657365,10.65569019317627,-0.24170240759849548,0.9007030129432678,20.348115921020508,-50.319419860839844, -33.58735275268555
671,4033787245,0.31314096,0.52974516,-0.20201984,0.76190627,10.620080947875977,-0.1084480807185173,1.1623035669326782,33.867042541503906,-42.75530242919922, -33.745750427246094
672,4033803912,0.31242824,0.53642035,-0.19714905,0.7587978,10.223034858703613,0.9205689430236816,1.621002435684204,37.177391052246094,-36.2088737487793, -29.719072341918945
673,4033820579,0.311483,0.5422125,-0.19321513,0.75607675,10.304722785949707,1.3411798477172852,1.751903772354126,31.77374267578125,-32.50823974609375, -23.03251838684082
674,4033837246,0.3105388,0.54703414,-0.19051917,0.75367236,9.620284080505371,1.4294904470443726,2.032026767730713,23.67654800415039,-28.941328048706055, -16.46123695373535
675,4033853913,0.30902457,0.5515137,-0.18829708,0.75158554,9.197531700134277,1.5660181045532227,2.3736939430236816,23.052730560302734,-27.746992111206055, -10.602903366088867
676,4033870580,0.30708542,0.555541,-0.18686737,0.7497688,9.278791427612305,1.9287809133529663,2.8409690856933594,19.96280288696289,-26.638517379760742, -4.245372772216797
677,4033887247,0.30501467,0.55996305,-0.18581823,0.7475822,9.348881721496582,1.0988415479660034,2.6813406944274902,18.86725425720215,-31.082319259643555, -3.3994998931884766
678,4033903914,0.30266562,0.5655546,-0.18371291,0.7448432,9.173319816589355,0.8010536432266235,2.5678796768188477,27.12187957763672,-37.382259368896484, -8.694721221923828
679,4033920581,0.30077553,0.5714645,-0.1819329,0.7415275,9.17754077911377,1.430454134941101,2.42940354347229,23.614295959472656,-41.37309646606445, -11.391676902770996
680,4033937248,0.29935476,0.5773362,-0.18091859,0.7377929,9.047956466674805,1.439608097076416,2.287132501602173,17.26957893371582,-43.8416633605957, -11.59589958190918
681,4033953915,0.2981408,0.5833202,-0.18030931,0.73371553,9.15091609954834,1.3553036451339722,2.2770159244537354,14.205421447753906,-46.36824417114258, -11.883116722106934
682,4033970582,0.2972647,0.58990824,-0.17933021,0.72902906,8.947478294372559,1.2347447872161865,2.225186347961426,15.204484939575195,-50.703853607177734, -17.069997787475586
683,4033987249,0.29685137,0.5971574,-0.17832206,0.72352177,9.206265449523926,0.8948964476585388,1.7096672058105469,13.819526672363281,-56.74127197265625, -22.002914428710938
684,4034003916,0.2962714,0.6055139,-0.17676908,0.71716756,9.584127426147461,0.35659393668174744,1.4986119270324707,18.44197654724121,-64.83885192871094, -26.504180908203125
685,4034020583,0.29567626,0.6149021,-0.17482112,0.7098655,9.36070728302002,0.7814040780067444,1.3523699045181274,21.40949249267578,-73.10472869873047, -31.272520065307617
686,4034037250,0.2956017,0.62477756,-0.17321104,0.7016204,9.327228546142578,1.0344990491867065,1.2794181108474731,17.422475814819336,-79.55120086669922, -34.89719009399414
687,4034053917,0.29583433,0.63504297,-0.17167065,0.6926272,9.407455444335938,1.1339906454086304,1.0774459838867188,15.67360782623291,-84.44278717041016, -38.0706672668457
688,4034070584,0.29613376,0.64547944,-0.17016317,0.68315893,9.584853172302246,1.5421772003173828,0.6893017292022705,15.017513275146484,-87.34064483642578, -39.41940689086914
689,4034087251,0.296592,0.65550464,-0.1689524,0.67364866,10.045027732849121,1.8539422750473022,0.17202508449554443,12.036423683166504,-86.0322036743164, -38.45493698120117
690,4034103918,0.2969602,0.665165,-0.16808708,0.6641668,10.193543434143066,2.113438367843628,-0.04532232880592346,10.134849548339844,-85.03731536865234, -35.99996566772461
691,4034120585,0.29750115,0.6743818,-0.16771355,0.6546566,10.372020721435547,2.0178253650665283,-0.03382293879985809,6.164125442504883,-83.96024322509766, -34.08353042602539
692,4034137252,0.2976403,0.68368775,-0.16711588,0.6450227,10.757164001464844,1.7740061283111572,-0.00019508600234985352,9.079861640930176,-84.9565200805664, -33.67190170288086
693,4034153919,0.2971759,0.69348824,-0.16574353,0.6350514,11.203216552734375,1.5341299772262573,-0.1903657466173172,15.98301887512207,-87.86254119873047, -35.9022102355957
