PacketCounter,SampleTimeFine,Quat_W,Quat_X,Quat_Y,Quat_Z,Acc_X,Acc_Y,Acc_Z,Gyr_X,Gyr_Y,Gyr_Z 
2,4022593481,0.15667702,0.62811255,-0.2703727,0.71261877,9.691277503967285,-1.8521956205368042,0.65510094165802,0.8051159977912903,-4.013727188110352, 0.5959882736206055
3,4022610148,0.15635009,0.62861496,-0.27031398,0.71226984,9.712677001953125,-1.8473994731903076,0.6501275897026062,0.9700874090194702,-4.129791736602783, 0.7035872340202332
4,4022626815,0.15621582,0.62900263,-0.2703439,0.71194565,9.709023475646973,-1.8776557445526123,0.6577168703079224,0.7924249172210693,-4.077733516693115, 0.7304293513298035
5,4022643482,0.1559346,0.62934947,-0.27034542,0.7117002,9.689327239990234,-1.8852068185806274,0.6239113807678223,0.8576861023902893,-4.203402519226074, 0.6601993441581726
6,4022660149,0.15581262,0.6296262,-0.2705953,0.711387,9.679414749145508,-1.871114730834961,0.5941723585128784,0.7326064109802246,-4.187394142150879, 0.6694711446762085
7,4022676816,0.15555093,0.62998843,-0.27073956,0.71106863,9.691433906555176,-1.8838300704956055,0.6227000951766968,0.6255966424942017,-4.095854759216309, 0.6664104461669922
8,4022693483,0.15530054,0.63033605,-0.27090096,0.7107539,9.692927360534668,-1.8678330183029175,0.6318487524986267,0.7271381616592407,-4.238466739654541, 0.6815347671508789
9,4022710150,0.15497819,0.63068545,-0.27099094,0.7104798,9.690571784973145,-1.8935545682907104,0.6330869197845459,0.9534008502960205,-4.249326229095459, 0.8686996102333069
10,4022726817,0.15467387,0.6310107,-0.27112857,0.71020496,9.713982582092285,-1.8416788578033447,0.6303908824920654,1.1181546449661255,-4.405590057373047, 0.993279755115509
11,4022743484,0.15442865,0.6313199,-0.271268,0.70993,9.664474487304688,-1.8976640701293945,0.6116534471511841,1.2818710803985596,-4.39560079574585, 1.0367445945739746
12,4022760151,0.15426017,0.63159245,-0.2715072,0.70963275,9.692021369934082,-1.8751118183135986,0.6123851537704468,1.2104883193969727,-4.434506893157959, 1.076879620552063
13,4022776818,0.15418246,0.6318353,-0.2718131,0.7093163,9.70132064819336,-1.8959280252456665,0.6222615242004395,1.2542221546173096,-4.444162368774414, 1.0477582216262817
14,4022793485,0.1536605,0.6322469,-0.27172938,0.70909506,9.679896354675293,-1.88167142868042,0.6020315885543823,1.1570473909378052,-4.48192834854126, 1.0525732040405273
15,4022810152,0.15330088,0.63262105,-0.2717478,0.70883185,9.67728328704834,-1.9174389839172363,0.6014016270637512,1.46407949924469,-4.5896806716918945, 0.8412938714027405
16,4022826819,0.15248603,0.6331545,-0.2713986,0.70866525,9.673796653747559,-1.898614525794983,0.6049590110778809,2.0070691108703613,-4.706923961639404, 1.017138123512268
17,4022843486,0.15170111,0.6336698,-0.27109995,0.7084874,9.667527198791504,-1.8903089761734009,0.6382805705070496,2.3547868728637695,-4.823755264282227, 1.1577389240264893
18,4022860153,0.15069537,0.6342581,-0.27064392,0.7083498,9.714495658874512,-1.879878044128418,0.6124369502067566,2.082216739654541,-4.904576778411865, 1.3683010339736938
19,4022876820,0.15006402,0.63469833,-0.27053243,0.7081321,9.693424224853516,-1.8935635089874268,0.5809525847434998,2.2655649185180664,-4.950524806976318, 1.483250617980957
20,4022893487,0.14987172,0.6349584,-0.2708549,0.70781636,9.669836044311523,-1.9294848442077637,0.5846202373504639,2.361241340637207,-4.985538005828857, 1.708603858947754
21,4022910154,0.14881565,0.63553584,-0.27043816,0.70768034,9.66832160949707,-1.9062665700912476,0.5815390944480896,2.62040376663208,-5.050095558166504, 1.8754197359085083
22,4022926821,0.14906766,0.6355903,-0.2712145,0.70728123,9.692160606384277,-1.9032814502716064,0.5922375917434692,3.003774404525757,-4.989495277404785, 2.0374326705932617
23,4022943488,0.14836419,0.63601017,-0.27117524,0.7070666,9.69861888885498,-1.870448112487793,0.5738513469696045,2.898660182952881,-5.139201641082764, 2.2303733825683594
24,4022960155,0.14771377,0.63639396,-0.27121258,0.70684314,9.679281234741211,-1.8897525072097778,0.570320188999176,2.8739054203033447,-5.098823547363281, 2.446608781814575
25,4022976822,0.14707096,0.63677585,-0.2712663,0.7066125,9.676023483276367,-1.8975008726119995,0.5721548199653625,3.0108821392059326,-5.169539928436279, 2.514892339706421
26,4022993489,0.14606191,0.6372819,-0.2710119,0.70646316,9.689871788024902,-1.9127720594406128,0.6186386346817017,3.32454776763916,-5.175968647003174, 2.685267448425293
27,4023010156,0.14555027,0.6375746,-0.27129513,0.7061959,9.680143356323242,-1.9199227094650269,0.629924476146698,4.034570693969727,-5.497920513153076, 3.162445306777954
28,4023026823,0.14407054,0.63820356,-0.2707957,0.7061231,9.698698043823242,-1.9148849248886108,0.6324537396430969,4.424101829528809,-5.6553874015808105, 3.669384717941284
29,4023043490,0.14328131,0.6385348,-0.27102563,0.705896,9.67590045928955,-1.903287410736084,0.6065651178359985,4.403521537780762,-5.804670810699463, 4.220160484313965
30,4023060157,0.14214979,0.6389976,-0.27098098,0.7057231,9.700200080871582,-1.9106378555297852,0.5233089923858643,4.123279571533203,-5.909682750701904, 4.378356456756592
31,4023076824,0.14098284,0.6394977,-0.27087432,0.705545,9.683691024780273,-1.9943753480911255,0.5228189826011658,4.041128635406494,-5.970667362213135, 4.208314895629883
32,4023093491,0.14050548,0.63972485,-0.27137232,0.705243,9.643279075622559,-2.0437400341033936,0.5170465707778931,4.401626110076904,-5.879165172576904, 4.134793281555176
33,4023110158,0.14004955,0.6399512,-0.27184302,0.7049468,9.68938159942627,-2.01430606842041,0.5024778842926025,4.355997085571289,-5.750974178314209, 3.869701862335205
34,4023126825,0.14005832,0.6400018,-0.2726894,0.7045721,9.657673835754395,-2.011772394180298,0.4882308542728424,4.099114894866943,-5.542500019073486, 3.6364858150482178
35,4023143492,0.13938342,0.6403339,-0.27291322,0.7043176,9.682953834533691,-2.0148212909698486,0.49816787242889404,3.7161664962768555,-5.596683025360107, 3.5568809509277344
36,4023160159,0.13716224,0.64123756,-0.2717057,0.7043985,9.684762001037598,-2.064541816711426,0.5136293172836304,4.451814651489258,-5.41574239730835, 3.548992395401001
37,4023176826,0.13668637,0.64141554,-0.27213553,0.7041628,9.682943344116211,-2.007234811782837,0.5310407876968384,5.198450088500977,-5.308617115020752, 3.901435613632202
38,4023193493,0.13691565,0.64131266,-0.2731711,0.7038109,9.73539924621582,-1.9895780086517334,0.4828677773475647,4.736256122589111,-5.01453161239624, 3.7565314769744873
39,4023210160,0.13718542,0.6411803,-0.2742161,0.7034725,9.710509300231934,-2.017332077026367,0.46296340227127075,4.098153591156006,-4.658975601196289, 3.6673991680145264
40,4023226827,0.13512085,0.6419574,-0.27306715,0.7036103,9.70419692993164,-2.0111329555511475,0.49535104632377625,3.6193761825561523,-4.307531833648682, 3.3835859298706055
41,4023243494,0.13462032,0.64214,-0.27331454,0.7034436,9.661625862121582,-2.048717975616455,0.456678181886673,2.3412632942199707,-4.043374538421631, 3.201734781265259
42,4023260161,0.13383205,0.6424452,-0.27325535,0.70333827,9.642932891845703,-2.116867780685425,0.450259268283844,2.1231842041015625,-3.917757749557495, 2.9823241233825684
43,4023276828,0.13347556,0.642626,-0.273522,0.7031374,9.645552635192871,-2.1116435527801514,0.4535430073738098,1.8263328075408936,-3.9727859497070312, 2.5529139041900635
44,4023293495,0.13253349,0.64305985,-0.27324396,0.70302683,9.625839233398438,-2.127934217453003,0.45650410652160645,1.565070390701294,-4.106509685516357, 2.4262075424194336
45,4023310162,0.13356288,0.64273745,-0.27474457,0.70254195,9.633757591247559,-2.128046751022339,0.454434871673584,1.7987350225448608,-4.167071342468262, 2.2792422771453857
46,4023326829,0.13229252,0.64330816,-0.27411303,0.7025065,9.652009963989258,-2.091031074523926,0.47966980934143066,1.970353126525879,-4.061470031738281, 2.163895606994629
47,4023343496,0.13195887,0.6435174,-0.2743098,0.702301,9.663818359375,-2.0950493812561035,0.47478970885276794,1.8462594747543335,-3.964026689529419, 2.0298516750335693
48,4023360163,0.13205965,0.6435613,-0.27489877,0.70201147,9.674271583557129,-2.0948941707611084,0.4580511450767517,1.3720148801803589,-3.8872528076171875, 1.9814308881759644
49,4023376830,0.13258973,0.64346,-0.27584755,0.701632,9.651799201965332,-2.11960506439209,0.4510226845741272,1.1004304885864258,-3.9136335849761963, 1.768768072128296
50,4023393497,0.13252227,0.64361054,-0.276208,0.70136476,9.63802719116211,-2.1461689472198486,0.4627012014389038,0.8666377067565918,-3.8690669536590576, 1.5397522449493408
51,4023410164,0.13170916,0.6440672,-0.27583498,0.7012455,9.646119117736816,-2.1582815647125244,0.46094226837158203,0.8278088569641113,-3.7900519371032715, 1.2937551736831665
52,4023426831,0.13364981,0.64344484,-0.27794775,0.7006152,9.655210494995117,-2.148923873901367,0.45574185252189636,1.2557075023651123,-3.795494318008423, 1.0877777338027954
53,4023443498,0.13195822,0.6442604,-0.2767156,0.70067406,9.631112098693848,-2.133204698562622,0.4745319187641144,1.7096668481826782,-3.887917995452881, 1.0487183332443237
54,4023460165,0.13329136,0.6438705,-0.27823994,0.70017624,9.639155387878418,-2.1200783252716064,0.4573785066604614,1.6426384449005127,-3.720334053039551, 0.9662966728210449
55,4023476832,0.1333669,0.6439549,-0.27861807,0.69993395,9.664153099060059,-2.113156795501709,0.4805218577384949,1.7169920206069946,-3.5702948570251465, 1.0700922012329102
56,4023493499,0.13253795,0.64438987,-0.27816865,0.6998698,9.677456855773926,-2.1145966053009033,0.4644874930381775,1.1454063653945923,-3.3915443420410156, 1.1087290048599243
57,4023510166,0.13231823,0.6445631,-0.2782892,0.69970393,9.664870262145996,-2.1109671592712402,0.4762076735496521,1.0075331926345825,-3.2283143997192383, 1.2060315608978271
58,4023526833,0.1334932,0.6441837,-0.27969682,0.6992689,9.661168098449707,-2.1101481914520264,0.48356491327285767,0.6485839486122131,-3.200294017791748, 1.2013061046600342
59,4023543500,0.133443,0.6442969,-0.27997082,0.6990644,9.658637046813965,-2.1707651615142822,0.4609384536743164,0.5442250967025757,-3.2106547355651855, 1.1666520833969116
60,4023560167,0.13410312,0.644113,-0.2808909,0.69873846,9.648221015930176,-2.131218910217285,0.49036404490470886,0.649326741695404,-3.099687099456787, 1.1591475009918213
61,4023576834,0.13379781,0.64432365,-0.28092325,0.6985896,9.626026153564453,-2.1443116664886475,0.47774288058280945,0.5527796745300293,-3.1670613288879395, 1.146891713142395
62,4023593501,0.13330783,0.6446202,-0.28076592,0.69847304,9.667046546936035,-2.1445939540863037,0.4707851707935333,0.600265622138977,-3.219298839569092, 1.0352718830108643
63,4023610168,0.13379036,0.64452475,-0.28148648,0.6981787,9.632686614990234,-2.1469788551330566,0.4704701006412506,0.6020200848579407,-3.146789312362671, 0.9586001038551331
64,4023626835,0.13382931,0.6446108,-0.28179264,0.6979683,9.667725563049316,-2.1785528659820557,0.47983643412590027,0.5763818025588989,-3.1592111587524414, 0.9282234907150269
65,4023643502,0.13308376,0.6450322,-0.28134722,0.6979012,9.646390914916992,-2.1390390396118164,0.4672219753265381,0.5220444202423096,-3.2284934520721436, 0.7612413763999939
66,4023660169,0.1323337,0.6454339,-0.28087962,0.69786096,9.651376724243164,-2.1678173542022705,0.4905271828174591,0.5668283104896545,-2.985480308532715, 0.7522385716438293
67,4023676836,0.13207223,0.6456281,-0.28087932,0.6977308,9.660784721374512,-2.1321346759796143,0.47712957859039307,0.46859079599380493,-2.9440009593963623, 0.8459684252738953
68,4023693503,0.13338952,0.6451797,-0.28232875,0.6973098,9.660598754882812,-2.15383243560791,0.4784894585609436,0.46440309286117554,-2.8640506267547607, 0.8172820806503296
69,4023710170,0.13318518,0.64533246,-0.2823816,0.69718623,9.66177749633789,-2.1579041481018066,0.4529345631599426,0.711450457572937,-2.856879472732544, 0.9015991687774658
70,4023726837,0.13428093,0.6449525,-0.2836219,0.6968241,9.657808303833008,-2.1574981212615967,0.45362383127212524,0.6092172265052795,-2.738676071166992, 0.8470823764801025
71,4023743504,0.13420263,0.645052,-0.28374505,0.6966968,9.643086433410645,-2.1633219718933105,0.4508823752403259,0.4018312096595764,-2.6060919761657715, 0.712308406829834
72,4023760171,0.13468225,0.64490145,-0.2843731,0.6964873,9.640280723571777,-2.1483042240142822,0.4874185025691986,0.7106050848960876,-2.4369587898254395, 0.7291487455368042
73,4023776838,0.13436888,0.6450909,-0.2842417,0.6964262,9.640633583068848,-2.1559295654296875,0.48027437925338745,0.46665695309638977,-2.4452314376831055, 0.5782899260520935
74,4023793505,0.1348347,0.6449467,-0.2848402,0.6962252,9.651603698730469,-2.144660472869873,0.4899575114250183,0.47831079363822937,-2.3555617332458496, 0.6575868725776672
75,4023810172,0.13409616,0.6453017,-0.28430602,0.6962572,9.637507438659668,-2.1515073776245117,0.46454301476478577,0.5439433455467224,-2.3830058574676514, 0.5715154409408569
76,4023826839,0.1349785,0.64499956,-0.28527695,0.6959694,9.640985488891602,-2.1729977130889893,0.5057644248008728,0.35700899362564087,-2.417249917984009, 0.5697096586227417
77,4023843506,0.13498576,0.6450563,-0.28544238,0.6958477,9.641111373901367,-2.1603293418884277,0.49804651737213135,0.6352909803390503,-2.529266595840454, 0.5891112685203552
78,4023860173,0.13485727,0.64517266,-0.2854603,0.6957573,9.63184928894043,-2.161314010620117,0.49003371596336365,0.6625173091888428,-2.500683069229126, 0.4919879734516144
79,4023876840,0.13430472,0.6454622,-0.28509745,0.69574434,9.63517951965332,-2.1726770401000977,0.4914354085922241,0.6754132509231567,-2.565290927886963, 0.546709418296814
80,4023893507,0.13471445,0.64536726,-0.2856213,0.6955384,9.634012222290039,-2.1552276611328125,0.5283447504043579,0.6788710355758667,-2.6500179767608643, 0.4948181211948395
81,4023910174,0.13522393,0.64523387,-0.2862197,0.6953172,9.648109436035156,-2.171403646469116,0.5161557197570801,0.7199538350105286,-2.6352522373199463, 0.4129727780818939
82,4023926841,0.13516489,0.6453262,-0.2863013,0.69520944,9.6260404586792,-2.160003185272217,0.48852571845054626,0.9034687280654907,-2.666743278503418, 0.4792584776878357
83,4023943508,0.13488252,0.6454839,-0.28619224,0.6951627,9.633147239685059,-2.1580185890197754,0.4852684736251831,0.8711967468261719,-2.500516176223755, 0.6256734132766724
84,4023960175,0.13488396,0.6455442,-0.28632715,0.69505095,9.651843070983887,-2.16738224029541,0.504887580871582,0.9251242876052856,-2.6262876987457275, 0.4947284162044525
85,4023976842,0.13454318,0.64575905,-0.28611818,0.69500345,9.638964653015137,-2.1382672786712646,0.46902522444725037,0.5645231008529663,-2.581657648086548, 0.35105401277542114
86,4023993509,0.13482827,0.6457189,-0.2864709,0.6948402,9.633934020996094,-2.1833536624908447,0.47112128138542175,0.5408441424369812,-2.535529136657715, 0.2680816948413849
87,4024010176,0.13549298,0.6455124,-0.28720394,0.69460016,9.650935173034668,-2.166262626647949,0.5003414750099182,0.42602241039276123,-2.5513062477111816, 0.40411075949668884
88,4024026843,0.13538802,0.6456304,-0.2871884,0.69451725,9.649255752563477,-2.1494123935699463,0.5258134603500366,0.32435286045074463,-2.4731624126434326, 0.2487313449382782
89,4024043510,0.13598469,0.6454524,-0.2878368,0.6942977,9.644049644470215,-2.1477506160736084,0.49818155169487,0.3245064914226532,-2.491014003753662, 0.31514501571655273
90,4024060177,0.13570464,0.64561886,-0.28770038,0.6942542,9.611013412475586,-2.1343941688537598,0.5166534781455994,0.35198891162872314,-2.469627857208252, 0.493102103471756
91,4024076844,0.1350844,0.6459394,-0.28723866,0.6942682,9.647668838500977,-2.1937341690063477,0.5186675786972046,0.24071455001831055,-2.549961805343628, 0.4246905446052551
92,4024093511,0.13487415,0.64609027,-0.28718364,0.6941916,9.627487182617188,-2.1586358547210693,0.5439049601554871,0.3627462685108185,-2.7015507221221924, 0.530739963054657
93,4024110178,0.13494626,0.64610237,-0.28741708,0.6940697,9.615715980529785,-2.165783166885376,0.5224151611328125,0.4738157391548157,-2.654679298400879, 0.6996557116508484
94,4024126845,0.13486719,0.64618564,-0.28748953,0.6939775,9.644620895385742,-2.119673490524292,0.526894211769104,0.6858249306678772,-2.721054792404175, 0.5945284366607666
95,4024143512,0.1347379,0.64629143,-0.28754514,0.69388103,9.643547058105469,-2.1488900184631348,0.5253276824951172,-0.04063454642891884,-2.7124102115631104, 0.717879056930542
96,4024160179,0.13483728,0.6462847,-0.28783092,0.6937494,9.642502784729004,-2.1791014671325684,0.5305650234222412,0.40902841091156006,-2.7464754581451416, 0.8402950167655945
97,4024176846,0.13460836,0.64639354,-0.28784272,0.69368786,9.666731834411621,-2.1642556190490723,0.5556398630142212,0.4485359787940979,-2.717661142349243, 1.0303285121917725
98,4024193513,0.1342671,0.64654946,-0.28776297,0.6936418,9.638070106506348,-2.1561098098754883,0.5613113045692444,0.5062927007675171,-2.8154122829437256, 1.0855752229690552
99,4024210180,0.13354883,0.6468615,-0.28732502,0.6936709,9.645312309265137,-2.1673269271850586,0.5245668888092041,0.4625333249568939,-2.803130865097046, 1.0641117095947266
100,4024226847,0.13321918,0.647022,-0.287257,0.6936129,9.633661270141602,-2.1395161151885986,0.5394770503044128,0.19317738711833954,-2.880967617034912, 1.0745104551315308
101,4024243514,0.13252693,0.64732146,-0.28683227,0.6936417,9.629399299621582,-2.191917657852173,0.5134437084197998,0.6682930588722229,-2.840679407119751, 1.0358994007110596
102,4024260181,0.13233185,0.6474083,-0.2868698,0.6935825,9.65013313293457,-2.1876652240753174,0.5316444039344788,0.6480334401130676,-2.7859959602355957, 1.0530599355697632
103,4024276848,0.13220464,0.64748067,-0.28696558,0.69349957,9.631502151489258,-2.1836371421813965,0.5334745645523071,0.47431519627571106,-2.873616933822632, 0.9962893128395081
104,4024293515,0.13204893,0.6475575,-0.28702325,0.69343376,9.640154838562012,-2.1955976486206055,0.5259587168693542,0.573052167892456,-2.8059353828430176, 0.9723285436630249
105,4024310182,0.13197324,0.64759916,-0.28716522,0.69335043,9.64088249206543,-2.1760990619659424,0.5250139832496643,0.5772910714149475,-2.851423501968384, 1.018162488937378
106,4024326849,0.13178638,0.64768225,-0.28720972,0.6932898,9.634482383728027,-2.1612887382507324,0.5371352434158325,0.7004369497299194,-2.887985944747925, 1.059988021850586
107,4024343516,0.13146813,0.6478179,-0.28715426,0.6932465,9.641765594482422,-2.1683430671691895,0.5294586420059204,0.40517371892929077,-2.9181954860687256, 1.1631046533584595
108,4024360183,0.13144197,0.6478372,-0.28737354,0.69314253,9.645746231079102,-2.1818175315856934,0.5560284852981567,0.6366357207298279,-3.0461184978485107, 1.1611710786819458
109,4024376850,0.13123086,0.64793247,-0.2874395,0.6930661,9.642719268798828,-2.2092933654785156,0.53815758228302,0.7277656197547913,-3.1663570404052734, 1.244604229927063
110,4024393517,0.13095425,0.64807534,-0.28742757,0.6929897,9.61152458190918,-2.211138963699341,0.5013761520385742,0.6378266215324402,-3.2909114360809326, 1.121407151222229
111,4024410184,0.13069445,0.64821386,-0.28741848,0.69291306,9.632766723632812,-2.200997829437256,0.5214617848396301,0.7494468092918396,-3.309173822402954, 1.063701868057251
112,4024426851,0.13029546,0.6484102,-0.2872527,0.6928731,9.631422996520996,-2.219289779663086,0.5286884903907776,0.4545549750328064,-3.1585323810577393, 0.9602137207984924
113,4024443518,0.129779,0.64865303,-0.28697976,0.6928559,9.63116455078125,-2.212156295776367,0.5376468896865845,0.6438457369804382,-3.219247817993164, 0.9803709983825684
114,4024460185,0.12951362,0.6487835,-0.28695348,0.6927944,9.631792068481445,-2.2014007568359375,0.5256062150001526,0.5314826965332031,-3.1894214153289795, 1.0549806356430054
115,4024476852,0.1293172,0.6488929,-0.28695878,0.6927264,9.63482666015625,-2.2278311252593994,0.5523307919502258,0.5397428274154663,-3.1506950855255127, 0.9035327434539795
116,4024493519,0.12900838,0.6490501,-0.28685367,0.6926803,9.626582145690918,-2.2255136966705322,0.528952419757843,0.7499077916145325,-3.2179410457611084, 0.8788549304008484
117,4024510186,0.12877953,0.64917254,-0.28682688,0.69261914,9.633654594421387,-2.2137629985809326,0.5080992579460144,0.7513805031776428,-3.2425804138183594, 0.8996396660804749
118,4024526853,0.12860154,0.649284,-0.28681707,0.69255185,9.621949195861816,-2.218984842300415,0.5359137058258057,0.6363282799720764,-3.2058517932891846, 0.7509194612503052
119,4024543520,0.12838261,0.6493942,-0.28677368,0.692507,9.624860763549805,-2.2304303646087646,0.5380972027778625,0.9217818379402161,-3.152897596359253, 0.8209189772605896
120,4024560187,0.12808916,0.6495467,-0.28665683,0.6924668,9.623785972595215,-2.203111410140991,0.5266450643539429,0.9217818379402161,-3.268052101135254, 0.7765193581581116
121,4024576854,0.12788221,0.6496575,-0.28661543,0.69241816,9.628724098205566,-2.21427059173584,0.5168201327323914,0.8692885637283325,-3.204660654067993, 0.774662435054779
122,4024593521,0.12715305,0.64997935,-0.28608394,0.69247025,9.629799842834473,-2.2103397846221924,0.5250549912452698,0.6437175869941711,-3.131319284439087, 0.7924505472183228
123,4024610188,0.12691525,0.6500917,-0.286024,0.6924332,9.644606590270996,-2.211265802383423,0.5650249123573303,0.6395683288574219,-3.1395275592803955, 0.8589282631874084
124,4024626855,0.1264223,0.65032053,-0.28571612,0.6924355,9.635318756103516,-2.211859703063965,0.5531564950942993,0.6439608335494995,-3.2379701137542725, 0.7975602149963379
125,4024643522,0.12627268,0.65041393,-0.28576434,0.6923553,9.59899616241455,-2.195796489715576,0.5225743055343628,0.5255277752876282,-3.4297711849212646, 0.9232674241065979
126,4024660189,0.12607934,0.65051645,-0.2857605,0.6922958,9.638849258422852,-2.253178358078003,0.5233168005943298,0.34524643421173096,-3.2855076789855957, 0.9089179635047913
127,4024676856,0.12592602,0.65060884,-0.28576183,0.69223636,9.633907318115234,-2.217846155166626,0.5383546948432922,0.5255533456802368,-3.281306743621826, 0.7587441205978394
128,4024693523,0.12574758,0.6507124,-0.28575188,0.6921755,9.622293472290039,-2.2247116565704346,0.5615869760513306,0.3747074007987976,-3.3289082050323486, 0.8109045028686523
129,4024710190,0.12555337,0.6508389,-0.28568774,0.69211835,9.645674705505371,-2.249253511428833,0.5474087595939636,0.40163910388946533,-3.3548665046691895, 0.6078726053237915
130,4024726857,0.12505622,0.6510879,-0.28534397,0.6921161,9.603931427001953,-2.238570213317871,0.5435001254081726,0.48732641339302063,-3.401174306869507, 0.636942982673645
131,4024743524,0.12496068,0.65118706,-0.28536436,0.69203144,9.629046440124512,-2.2303409576416016,0.5438137650489807,0.44565460085868835,-3.509183406829834, 0.5412924289703369
132,4024760191,0.124920525,0.65125895,-0.28544196,0.6919392,9.620137214660645,-2.233309268951416,0.5619440078735352,0.5618209838867188,-3.5417115688323975, 0.5755110383033752
133,4024776858,0.12477953,0.651379,-0.28546873,0.6918406,9.62298583984375,-2.2519211769104004,0.5385154485702515,0.66753751039505,-3.8330564498901367, 0.7365253567695618
134,4024793525,0.124769926,0.6514403,-0.2855996,0.69173074,9.626689910888672,-2.2382304668426514,0.5318242907524109,1.0437753200531006,-3.826870918273926, 0.666051983833313
135,4024810192,0.12462616,0.6515692,-0.28558737,0.6916402,9.619864463806152,-2.232710599899292,0.5200240612030029,0.6681649088859558,-3.80924916267395, 0.5695176124572754
136,4024826859,0.12445557,0.6517182,-0.28553674,0.6915515,9.618668556213379,-2.2438173294067383,0.5330896377563477,0.5522674918174744,-3.8356430530548096, 0.4947029650211334
137,4024843526,0.12485501,0.65162814,-0.28601125,0.6913683,9.61721420288086,-2.2392001152038574,0.5238643288612366,0.7638412117958069,-3.829662799835205, 0.4554770886898041
138,4024860193,0.12474656,0.65176374,-0.28598633,0.69127023,9.638627052307129,-2.2491424083709717,0.49591895937919617,0.8004418015480042,-3.9273366928100586, 0.32448092103004456
139,4024876860,0.1245348,0.65197283,-0.28581253,0.6911831,9.615191459655762,-2.2413086891174316,0.5193101763725281,0.8635769486427307,-4.041056156158447, 0.03104899637401104
140,4024893527,0.12444482,0.65214354,-0.28576395,0.69105834,9.635015487670898,-2.2361714839935303,0.5061931014060974,0.7992890477180481,-4.20189094543457, 0.04302292689681053
141,4024910194,0.124315284,0.6523375,-0.28567386,0.69093585,9.637622833251953,-2.2174696922302246,0.5103627443313599,0.5687236189842224,-4.2185139656066895, 0.011941920965909958
142,4024926861,0.1242508,0.6524782,-0.2856747,0.6908142,9.631752014160156,-2.232288360595703,0.5159303545951843,0.5304966568946838,-4.109890460968018, 0.20941582322120667
143,4024943528,0.1245805,0.652474,-0.28604743,0.6906045,9.619983673095703,-2.226925849914551,0.5061242580413818,0.5087515115737915,-4.293072700500488, 0.1599833369255066
144,4024960195,0.124233045,0.65273684,-0.28579977,0.6905213,9.6477689743042,-2.2094743251800537,0.4972703158855438,0.32968026399612427,-4.232728958129883, 0.2766875922679901
145,4024976862,0.12391665,0.652962,-0.2856088,0.6904443,9.637246131896973,-2.2294039726257324,0.5475732684135437,0.6792808771133423,-4.222893714904785, 0.45604053139686584
146,4024993529,0.123442546,0.6532597,-0.28529957,0.69037557,9.627323150634766,-2.2151410579681396,0.5211986303329468,0.5844880938529968,-4.419931888580322, 0.5671483874320984
147,4025010196,0.12316664,0.653472,-0.28515115,0.69028515,9.628647804260254,-2.2287073135375977,0.5207772850990295,0.6421039700508118,-4.32072114944458, 0.47263750433921814
148,4025026863,0.12202697,0.65404654,-0.284207,0.69033295,9.636833190917969,-2.226494550704956,0.5090987682342529,0.8076004981994629,-4.535061836242676, 0.5454673171043396
149,4025043530,0.12188344,0.6542003,-0.2842021,0.69021446,9.61822509765625,-2.2479307651519775,0.4782915413379669,0.9846868515014648,-4.491392612457275, 0.5645616054534912
150,4025060197,0.12174149,0.6543455,-0.2842401,0.69008636,9.584537506103516,-2.3042335510253906,0.5126266479492188,0.8705053925514221,-4.577208042144775, 0.7578095197677612
151,4025076864,0.12144251,0.65458435,-0.28403816,0.6899956,9.637832641601562,-2.2371344566345215,0.4622190296649933,2.263580322265625,-4.839430809020996, 0.2793257534503937
152,4025093531,0.12100586,0.65494245,-0.28364542,0.68989414,9.601672172546387,-2.289100170135498,0.5009036064147949,2.925565719604492,-5.359841823577881, -0.14720900356769562
153,4025110198,0.119879216,0.655404,-0.2823366,0.69018924,9.689785957336426,-2.3978989124298096,0.6738749146461487,9.843404769897461,-4.337934494018555, -0.8431574106216431
154,4025126865,0.117768854,0.65517986,-0.2786074,0.69227767,10.050264358520508,-2.589709758758545,1.0077458620071411,33.869239807128906,5.810898303985596, -4.356302261352539
155,4025143532,0.114346325,0.65494084,-0.27341267,0.69514275,9.218086242675781,-2.273512363433838,0.4782005250453949,45.077232360839844,8.752507209777832, -3.9989404678344727
156,4025160199,0.111293174,0.65522593,-0.26969028,0.69682187,9.445808410644531,-2.078617811203003,0.5399940609931946,34.00480651855469,0.5622586607933044, -1.0357178449630737
157,4025176866,0.108890615,0.65573233,-0.26730034,0.6976454,9.588948249816895,-2.058518409729004,0.5120449066162109,25.06730079650879,-4.603982448577881, 0.8013015389442444
158,4025193533,0.10672904,0.65642285,-0.26563552,0.69796586,9.562957763671875,-2.0492827892303467,0.5945377945899963,19.22766876220703,-7.751400947570801, 2.223012685775757
159,4025210200,0.104626775,0.65723526,-0.26446357,0.6979647,9.51121711730957,-2.1082868576049805,0.5859726071357727,16.076963424682617,-10.05416202545166, 3.7225351333618164
160,4025226867,0.10264472,0.6582349,-0.2637252,0.69759625,9.534303665161133,-1.9942506551742554,0.639501690864563,12.050280570983887,-12.515157699584961, 4.516656398773193
161,4025243534,0.101000145,0.65926844,-0.26356682,0.69692,9.566145896911621,-2.0279879570007324,0.6170915365219116,7.591899871826172,-13.981179237365723, 5.260974884033203
162,4025260201,0.09965862,0.6602719,-0.26389438,0.69603854,9.610713958740234,-2.086273670196533,0.6408554315567017,4.763652801513672,-14.881824493408203, 5.926150321960449
163,4025276868,0.09798176,0.66142255,-0.264038,0.6951292,9.623988151550293,-2.1718177795410156,0.5407629013061523,3.780611038208008,-15.386920928955078, 6.459970951080322
164,4025293535,0.09683303,0.662395,-0.26479784,0.69407433,9.590983390808105,-2.2315940856933594,0.4595848023891449,4.07073974609375,-16.143665313720703, 6.883286476135254
165,4025310202,0.09513324,0.6635511,-0.26514053,0.69307345,9.628754615783691,-2.1696043014526367,0.37350544333457947,4.419853687286377,-16.443397521972656, 7.38932991027832
166,4025326869,0.09415686,0.6643876,-0.26624596,0.69198096,9.657803535461426,-2.2134687900543213,0.35538461804389954,4.67102575302124,-16.41495704650879, 7.782678127288818
167,4025343536,0.09346992,0.66498363,-0.26758868,0.6909828,9.649456977844238,-2.2033920288085938,0.3011847734451294,6.44618034362793,-15.553457260131836, 7.862000942230225
168,4025360203,0.09281113,0.6655182,-0.26894462,0.69003,9.667919158935547,-2.2772443294525146,0.2664860486984253,6.916249752044678,-15.20909309387207, 7.883796215057373
169,4025376870,0.09074243,0.6664469,-0.2689822,0.6893937,9.60411548614502,-2.4505672454833984,0.2622532546520233,9.024025917053223,-14.504413604736328, 8.352293014526367
170,4025393537,0.08859338,0.6673005,-0.26893923,0.6888641,9.603588104248047,-2.3397839069366455,0.23771525919437408,11.18553638458252,-14.097825050354004, 8.525921821594238
171,4025410204,0.08459388,0.66885936,-0.2670934,0.6885734,9.606196403503418,-2.179095983505249,0.18515810370445251,9.719985961914062,-13.61764907836914, 8.578811645507812
172,4025426871,0.08375764,0.6691722,-0.26841933,0.6878556,9.584858894348145,-2.2102832794189453,0.19394716620445251,7.767488479614258,-13.373108863830566, 9.157952308654785
173,4025443538,0.07974398,0.6706567,-0.2668071,0.68751407,9.5536527633667,-2.226618528366089,0.1995353400707245,7.588635444641113,-13.369550704956055, 9.95383071899414
174,4025460205,0.07823011,0.6711356,-0.267794,0.68683666,9.557561874389648,-2.308741807937622,0.25452733039855957,6.9909892082214355,-13.54830265045166, 10.783747673034668
175,4025476872,0.0764973,0.67173773,-0.26874623,0.6860707,9.481913566589355,-2.3928115367889404,0.26206833124160767,5.284758567810059,-14.201400756835938, 11.505207061767578
176,4025493539,0.07396321,0.67277855,-0.2690702,0.68520117,9.4219331741333,-2.466839551925659,0.3167966902256012,2.0420262813568115,-15.1719970703125, 12.007953643798828
177,4025510206,0.07109334,0.67422014,-0.26920936,0.6840324,9.481356620788574,-2.529860019683838,0.33523881435394287,-1.8055185079574585,-17.30907440185547, 12.186649322509766
178,4025526873,0.07082696,0.6748393,-0.271967,0.6823565,9.519078254699707,-2.5802698135375977,0.20728439092636108,-5.215306282043457,-18.586017608642578, 12.125632286071777
179,4025543540,0.06837355,0.6764671,-0.27246514,0.68079424,9.586215019226074,-2.684659481048584,0.06815996766090393,-7.568695545196533,-18.980993270874023, 11.511631965637207
180,4025560207,0.06727354,0.67777914,-0.27398837,0.6789852,9.487799644470215,-2.9318408966064453,-0.04010152816772461,-6.981983184814453,-20.1505069732666, 9.656766891479492
181,4025576874,0.06602246,0.6794507,-0.27494526,0.6770478,9.419727325439453,-3.1404433250427246,-0.051035620272159576,-4.6646575927734375,-22.179399490356445, 7.048967361450195
182,4025593541,0.064902045,0.6812933,-0.2756068,0.67503256,9.509797096252441,-3.0427591800689697,-0.06935903429985046,-2.2745018005371094,-23.470075607299805, 4.555631160736084
183,4025610208,0.064024016,0.6831424,-0.27619594,0.67300385,9.525105476379395,-2.894390106201172,-0.10955308377742767,-2.2917263507843018,-23.325441360473633, 2.9921517372131348
184,4025626875,0.063496135,0.6848147,-0.27690244,0.6710611,9.64228343963623,-2.748342990875244,-0.18182337284088135,-3.9372165203094482,-21.644062042236328, 2.2454757690429688
185,4025643542,0.063299745,0.6863664,-0.27768835,0.66916716,9.603533744812012,-2.6725218296051025,-0.26802200078964233,-6.108293533325195,-20.19513511657715, 1.3649221658706665
186,4025660209,0.063252054,0.68786615,-0.2784541,0.6673109,9.57362174987793,-2.8599538803100586,-0.28211215138435364,-6.7800374031066895,-19.467308044433594, 0.714640200138092
187,4025676876,0.06331468,0.68926996,-0.27912006,0.6655757,9.53801441192627,-2.8594231605529785,-0.3286355435848236,-6.672590732574463,-18.212024688720703, -0.03456438332796097
188,4025693543,0.06361575,0.6905765,-0.27986902,0.6638761,9.539958953857422,-2.731461524963379,-0.3516629636287689,-8.185522079467773,-17.184593200683594, -0.5369452834129333
189,4025710210,0.06419027,0.6917707,-0.2807836,0.6621892,9.503116607666016,-2.6661884784698486,-0.29704251885414124,-10.242659568786621,-16.181842803955078, -0.783390998840332
190,4025726877,0.0647738,0.69300663,-0.28177682,0.66041565,9.389375686645508,-2.8596322536468506,-0.26309630274772644,-10.816091537475586,-16.81812858581543, -0.5693326592445374
191,4025743544,0.065048486,0.6944468,-0.28252158,0.65855503,9.27595043182373,-2.9792568683624268,-0.2830860912799835,-8.294939994812012,-18.674102783203125, -0.7994502782821655
192,4025760211,0.06480983,0.6961625,-0.28299093,0.6565626,9.282557487487793,-2.997360944747925,-0.30397623777389526,-4.729930877685547,-21.45195198059082, -0.4047197103500366
193,4025776878,0.06400441,0.6981338,-0.28315377,0.6544749,9.224390029907227,-3.000166893005371,-0.33907702565193176,-0.7074242234230042,-24.053752899169922, 0.12880010902881622
194,4025793545,0.06242558,0.70043427,-0.28294381,0.6522566,9.210894584655762,-3.068563938140869,-0.44438406825065613,4.563548564910889,-27.528797149658203, 1.1054407358169556
195,4025810212,0.060215913,0.7031373,-0.28244847,0.64976585,9.199321746826172,-3.0688743591308594,-0.5602282285690308,8.521973609924316,-31.773818969726562, 1.6447962522506714
196,4025826879,0.057747085,0.70585877,-0.28168467,0.64736646,9.43702507019043,-2.7686853408813477,-0.6120278239250183,11.148963928222656,-31.823341369628906, 1.4946799278259277
197,4025843546,0.055338364,0.7085131,-0.28094932,0.6449925,9.598817825317383,-2.611636161804199,-0.698287844657898,10.75064468383789,-31.316974639892578, 1.513453722000122
198,4025860213,0.052868098,0.7112326,-0.28028724,0.6424897,9.475780487060547,-2.5766491889953613,-0.8179922103881836,10.497747421264648,-32.40092849731445, 1.9878162145614624
199,4025876880,0.050394844,0.7140277,-0.27976987,0.6398082,9.488511085510254,-2.580324411392212,-0.9351640939712524,9.55654239654541,-33.68446731567383, 2.5171051025390625
200,4025893547,0.048034906,0.71697766,-0.27931616,0.6368823,9.47204875946045,-2.7821996212005615,-0.9216839671134949,8.301273345947266,-35.38389205932617, 1.9677752256393433
201,4025910214,0.046008673,0.72009933,-0.27909747,0.63359755,9.587180137634277,-2.515028715133667,-0.9738141298294067,4.990717887878418,-37.36041259765625, 1.2249144315719604
202,4025926881,0.044311136,0.7233809,-0.2792288,0.6299117,9.612360954284668,-2.7542176246643066,-0.8443507552146912,1.1209523677825928,-39.54525375366211, 1.113576054573059
203,4025943548,0.04283031,0.7267709,-0.2797435,0.6258709,9.590182304382324,-2.787620782852173,-0.8699781894683838,-2.2697088718414307,-41.51541519165039, 1.7726210355758667
204,4025960215,0.0416275,0.7302961,-0.28066966,0.6214179,9.722496032714844,-2.7893998622894287,-1.1424766778945923,-6.191477298736572,-43.77892303466797, 2.255591630935669
205,4025976882,0.040635254,0.7340621,-0.28184336,0.6164957,9.76889419555664,-2.7756831645965576,-1.514724612236023,-9.14449691772461,-46.860023498535156, 2.003652572631836
206,4025993549,0.039679628,0.7381553,-0.28305367,0.61109245,9.807730674743652,-2.75343918800354,-1.7238160371780396,-10.326395034790039,-50.63298416137695, 1.2708182334899902
207,4026010216,0.038816314,0.7425193,-0.28431377,0.60524786,10.00780200958252,-2.7803196907043457,-1.7797441482543945,-11.784989356994629,-53.86155700683594, 0.49507948756217957
208,4026026883,0.03828657,0.74689776,-0.28574327,0.59919083,10.82729721069336,-2.8809401988983154,-1.2841272354125977,-14.602425575256348,-54.42176818847656, -0.10507727414369583
209,4026043550,0.038540035,0.7512757,-0.28767428,0.5927426,11.901252746582031,-2.1141433715820312,-1.4656009674072266,-21.46973991394043,-55.09019088745117, -0.8471506237983704
210,4026060217,0.03961723,0.7557877,-0.29007325,0.5857251,12.02365493774414,-2.3110556602478027,-1.53556489944458,-28.715286254882812,-57.15534591674805, -2.1469004154205322
211,4026076884,0.040276844,0.7606756,-0.29181728,0.57844096,12.125544548034668,-2.6772639751434326,-1.5210281610488892,-24.335508346557617,-60.802406311035156, -4.645330905914307
212,4026093551,0.040710196,0.7659812,-0.292926,0.5707981,11.954405784606934,-2.734344244003296,-1.3010265827178955,-21.232332229614258,-64.72168731689453, -7.975760459899902
213,4026110218,0.040937163,0.77156305,-0.29353324,0.56289715,12.083562850952148,-2.801337480545044,-1.1350781917572021,-18.624040603637695,-67.5603256225586, -10.411810874938965
214,4026126885,0.04161004,0.777381,-0.29415375,0.554456,11.847712516784668,-2.713717222213745,-0.7922705411911011,-22.07252311706543,-70.58453369140625, -12.67605209350586
215,4026143552,0.0427297,0.78358316,-0.29502833,0.5450966,11.777278900146484,-2.9864068031311035,0.04182909429073334,-27.1915340423584,-76.28573608398438, -14.046222686767578
216,4026160219,0.04414466,0.7901874,-0.29655376,0.53452,11.805959701538086,-3.504545211791992,1.2557551860809326,-33.600433349609375,-84.149658203125, -12.828882217407227
217,4026176886,0.045544542,0.7970263,-0.29891646,0.52280426,11.924368858337402,-3.2025909423828125,2.16438627243042,-38.90465545654297,-91.75605773925781, -9.090741157531738
218,4026193553,0.048037738,0.80410707,-0.302666,0.50940955,12.014525413513184,-3.194404125213623,2.920241594314575,-53.32530212402344,-100.33533477783203, -6.484124660491943
219,4026210220,0.05084526,0.8111581,-0.30780894,0.49466318,11.927952766418457,-3.7921793460845947,2.2321929931640625,-62.84824752807617,-107.87580108642578, -0.3252863585948944
220,4026226887,0.05465699,0.81854355,-0.31525305,0.4770903,11.902573585510254,-4.564745903015137,-0.3130091428756714,-82.24833679199219,-123.7971420288086, 7.297492027282715
221,4026243554,0.06015489,0.82665247,-0.3248725,0.45550576,12.821903228759766,-4.233353137969971,1.3797543048858643,-107.40923309326172,-146.15872192382812, 10.774922370910645
222,4026260221,0.06690771,0.83418655,-0.33476835,0.43311298,10.628350257873535,-4.200455665588379,0.5701252222061157,-117.58334350585938,-146.6118927001953, 9.201058387756348
223,4026276888,0.075293966,0.8411736,-0.3441201,0.41029248,10.10531234741211,-5.439328193664551,-2.4506092071533203,-126.69588470458984,-143.69064331054688, 2.075812816619873
224,4026293555,0.07940872,0.84734374,-0.35135466,0.39019653,10.828503608703613,-6.339524269104004,-3.9376416206359863,-90.13904571533203,-134.7769012451172, 4.993896484375
225,4026310222,0.07963543,0.8522501,-0.35656923,0.37441513,10.056802749633789,-4.8760576248168945,-2.4629101753234863,-52.51937484741211,-114.66210174560547, 8.86513614654541
226,4026326889,0.07252977,0.8558227,-0.35879144,0.36548093,9.038704872131348,-5.051815986633301,0.2075531780719757,14.041394233703613,-87.61663055419922, 17.145639419555664
227,4026343556,0.057751734,0.8578387,-0.3580781,0.36408532,7.099395751953125,-5.063743591308594,2.5028538703918457,84.18351745605469,-57.055660247802734, 26.766319274902344
228,4026360223,0.036848623,0.85792595,-0.3537016,0.37081125,6.046497821807861,-3.780069351196289,2.8383405208587646,148.49964904785156,-18.21155548095703, 28.57624053955078
229,4026376890,0.015689189,0.85565555,-0.3463359,0.38426518,5.796014785766602,-1.787736177444458,2.3275818824768066,173.2375946044922,27.39385986328125, 19.249370574951172
230,4026393557,-0.00057936297,0.8508883,-0.33786428,0.4022898,6.600896835327148,-0.34120258688926697,1.8835915327072144,157.92445373535156,72.4549331665039, 6.523218631744385
231,4026410224,-0.010045851,0.8436875,-0.3295362,0.42367116,7.11356258392334,0.439168781042099,1.0823297500610352,125.5282211303711,114.43523406982422, -5.553923606872559
232,4026426891,-0.012661203,0.8343174,-0.32164127,0.44755092,7.1345319747924805,0.8363268375396729,0.3320162296295166,90.3646011352539,150.63131713867188, -18.04488754272461
233,4026443558,-0.009469346,0.8229156,-0.3138531,0.47351545,7.59438419342041,0.7813217043876648,-0.146540567278862,61.57307815551758,181.55886840820312, -30.843427658081055
234,4026460225,-0.0019974534,0.8093155,-0.30582255,0.5014755,8.62060546875,0.4777891933917999,-0.5849757194519043,42.673736572265625,209.10629272460938, -41.44382095336914
235,4026476892,0.008067552,0.7933434,-0.29706997,0.53131086,9.849671363830566,-0.5168882012367249,-1.3670201301574707,34.787841796875,233.0513916015625, -49.37812805175781
236,4026493559,0.018914713,0.7749231,-0.2872502,0.56269383,11.022041320800781,-1.773810863494873,-2.1782591342926025,37.52189254760742,252.00778198242188, -52.94476318359375
237,4026510226,0.028846443,0.75425583,-0.2761863,0.5949687,12.113049507141113,-2.6057522296905518,-2.9040026664733887,48.748390197753906,263.76531982421875, -51.47777557373047
238,4026526893,0.037262723,0.7316271,-0.26393512,0.6274331,13.263391494750977,-2.8350017070770264,-3.2729482650756836,61.51630401611328,270.22064208984375, -47.681602478027344
239,4026543560,0.044039484,0.7073104,-0.2507682,0.65946066,13.952699661254883,-2.3604049682617188,-3.3790855407714844,72.60586547851562,272.83673095703125, -42.264976501464844
240,4026560227,0.050209068,0.68165886,-0.23754005,0.69021416,14.17478084564209,-1.8196135759353638,-3.3432281017303467,73.3644027709961,272.0926513671875, -37.87441635131836
241,4026576894,0.05605066,0.6551894,-0.22385877,0.71935606,14.03530502319336,-1.5419000387191772,-3.292238235473633,74.27094268798828,268.5829162597656, -37.638710021972656
242,4026593561,0.06302206,0.628535,-0.21020474,0.74618125,13.847434043884277,-1.1533257961273193,-3.2983241081237793,65.56725311279297,261.3931884765625, -43.705955505371094
243,4026610228,0.0713324,0.60227317,-0.19627279,0.77049094,13.360838890075684,-1.6784884929656982,-3.266519069671631,57.88417434692383,251.2008056640625, -53.44427490234375
244,4026626895,0.081341185,0.5770879,-0.18304233,0.7917382,13.424756050109863,-1.3750946521759033,-3.6171841621398926,43.67488479614258,235.39012145996094, -62.54849624633789
245,4026643562,0.09367471,0.55245584,-0.1731007,0.8099719,14.351237297058105,-2.030944347381592,-4.776594161987305,13.2164945602417,222.11354064941406, -64.59862518310547
246,4026660229,0.106613345,0.52907324,-0.16691026,0.82514036,13.573925971984863,-2.2877755165100098,-6.373249053955078,-12.679950714111328,202.4198455810547, -57.273765563964844
247,4026676896,0.12001712,0.5095401,-0.16721962,0.83546567,10.308512687683105,-1.88064444065094,-9.689321517944336,-53.847816467285156,159.302734375, -44.334407806396484
248,4026693563,0.13338181,0.49850744,-0.17739825,0.83799154,9.124117851257324,-3.5781757831573486,-11.997359275817871,-112.24002838134766,75.50859069824219, -25.840717315673828
249,4026710230,0.13693194,0.49741703,-0.18511917,0.8363954,8.996675491333008,-8.112542152404785,-13.662690162658691,-60.20232009887695,-5.10933780670166, 6.279731750488281
250,4026726897,0.13179044,0.5031276,-0.18407056,0.8340339,9.630231857299805,-4.2301154136657715,-11.684630393981934,25.547109603881836,-49.17144775390625, 16.731996536254883
251,4026743564,0.12372312,0.5112792,-0.18259905,0.83062893,11.915719985961914,-3.9436070919036865,-1.6390646696090698,39.08366775512695,-69.75115966796875, 27.95703887939453
252,4026760231,0.11208035,0.5186497,-0.17906544,0.82847863,14.324396133422852,0.22369475662708282,7.867025852203369,64.38166809082031,-63.50294876098633, 43.135704040527344
253,4026776898,0.101290174,0.52788794,-0.17508814,0.8248754,11.799383163452148,2.277881622314453,-3.47639799118042,63.487693786621094,-77.99726104736328, 33.322845458984375
254,4026793565,0.09784475,0.5377968,-0.18106316,0.8175683,17.005455017089844,0.06388391554355621,-2.2623202800750732,-23.602384567260742,-93.2226791381836, 24.473289489746094
255,4026810232,0.09387887,0.5474665,-0.18764085,0.8100979,12.545906066894531,-2.9766461849212646,0.031539976596832275,-25.412302017211914,-93.4375991821289, 29.86099624633789
256,4026826899,0.091293894,0.55499214,-0.1985635,0.80263466,9.958500862121582,-3.0198681354522705,1.2710200548171997,-56.166534423828125,-82.47681427001953, 41.27409362792969
257,4026843566,0.08921074,0.56105864,-0.20881587,0.7960221,9.664386749267578,-7.275707244873047,-0.2537892162799835,-54.12411880493164,-70.10047912597656, 38.44809341430664
258,4026860233,0.08221618,0.5671649,-0.20919834,0.79233915,9.366621017456055,-6.270502090454102,0.8358765840530396,23.09980010986328,-60.016639709472656, 28.911500930786133
259,4026876900,0.07786242,0.5725093,-0.2099659,0.7887238,8.536474227905273,-1.3775913715362549,3.1355316638946533,10.377731323242188,-52.04318618774414, 17.09935760498047
260,4026893567,0.076392435,0.57712287,-0.21465704,0.78422976,10.286420822143555,-2.98524808883667,1.4827749729156494,-23.92289924621582,-49.53354263305664, 17.500587463378906
261,4026910234,0.07424335,0.5814615,-0.21856546,0.78014094,10.150273323059082,-2.551417827606201,1.3962070941925049,-16.55898094177246,-47.05693054199219, 18.67237663269043
262,4026926901,0.07297598,0.5853407,-0.2233782,0.7759854,10.101621627807617,-2.096595048904419,1.5143523216247559,-25.27349853515625,-44.017303466796875, 18.2178955078125
263,4026943568,0.07269522,0.58894455,-0.22828664,0.7718454,9.555558204650879,-2.0829873085021973,1.4559497833251953,-29.87468719482422,-41.040496826171875, 13.779067039489746
264,4026960235,0.074180365,0.5919908,-0.2341509,0.76760525,9.754737854003906,-1.9874573945999146,1.7347426414489746,-42.53960418701172,-36.214385986328125, 9.11050796508789
265,4026976902,0.076058395,0.5946184,-0.2401166,0.76353705,9.702528953552246,-2.6360154151916504,1.4575515985488892,-44.61683654785156,-32.74665832519531, 8.220684051513672
266,4026993569,0.07721722,0.5972582,-0.24452695,0.7599522,9.434927940368652,-2.693821907043457,1.4280962944030762,-32.7091178894043,-31.2275390625, 5.8716583251953125
267,4027010236,0.07805075,0.60017633,-0.2483668,0.7563141,9.320350646972656,-2.6970725059509277,1.993191123008728,-28.341257095336914,-33.16019821166992, 4.731472492218018
268,4027026903,0.0787536,0.6034224,-0.2523778,0.7523199,8.953429222106934,-2.8369252681732178,1.9626381397247314,-29.129589080810547,-36.67174530029297, 5.364846229553223
269,4027043570,0.07959744,0.6068466,-0.25668687,0.7480066,9.0155668258667,-3.0143790245056152,1.666057825088501,-31.71883201599121,-38.85594940185547, 5.387122631072998
270,4027060237,0.08017202,0.61047417,-0.2606875,0.7435969,8.952680587768555,-3.4743592739105225,1.227866530418396,-29.073474884033203,-40.62725067138672, 5.06944465637207
271,4027076904,0.08047035,0.6143266,-0.26405987,0.7391891,9.094707489013672,-3.3583784103393555,0.8557702898979187,-24.57901382446289,-41.92963790893555, 3.4346601963043213
272,4027093571,0.080430835,0.6184251,-0.2668006,0.7347784,8.801220893859863,-3.4678330421447754,0.6005762219429016,-19.812198638916016,-43.466346740722656, 2.029611587524414
273,4027110238,0.08000017,0.62304085,-0.26878908,0.73018694,8.700474739074707,-3.1312685012817383,0.48400548100471497,-14.39645767211914,-47.15764617919922, -0.24790742993354797
274,4027126905,0.07965676,0.62823015,-0.27117878,0.7248753,8.819046020507812,-2.7129809856414795,0.8527935743331909,-17.802814483642578,-53.1886100769043, -0.4271349310874939
275,4027143572,0.078887545,0.63362944,-0.27375594,0.71926963,9.17671012878418,-3.2902421951293945,1.7084118127822876,-17.335296630859375,-56.41057205200195, 1.9525889158248901
276,4027160239,0.07672651,0.63906217,-0.27528587,0.7140944,9.56089973449707,-3.3428683280944824,1.6075142621994019,-5.2684645652771,-56.769317626953125, 4.441004276275635
277,4027176906,0.07383836,0.6444449,-0.2766574,0.70901334,9.31244945526123,-3.6982240676879883,0.9599111080169678,-1.1519062519073486,-57.4171257019043, 7.456668853759766
278,4027193573,0.07018791,0.64990085,-0.27728227,0.70414335,8.980741500854492,-3.8050882816314697,0.652214527130127,6.303009986877441,-57.91975784301758, 7.8268818855285645
279,4027210240,0.06685537,0.65542537,-0.27780783,0.69912183,9.580459594726562,-2.491090774536133,0.398517370223999,5.1028218269348145,-58.2825927734375, 5.634381294250488
280,4027226907,0.06546141,0.6608245,-0.28023097,0.6931788,10.017629623413086,-1.7599645853042603,0.16838717460632324,-14.573651313781738,-59.00745391845703, 4.688587665557861
281,4027243574,0.065232284,0.66631275,-0.28394005,0.68640417,10.074692726135254,-2.1146395206451416,0.021264612674713135,-27.5575008392334,-61.549991607666016, 4.444802761077881
282,4027260241,0.065435104,0.67200476,-0.28836143,0.67895216,9.69313907623291,-2.4660375118255615,0.017252221703529358,-34.13013458251953,-65.09712219238281, 4.975854873657227
283,4027276908,0.0658852,0.6779497,-0.29316965,0.67089164,9.546513557434082,-2.8056366443634033,-0.10900604724884033,-38.170623779296875,-68.7791519165039, 4.837557315826416
284,4027293575,0.06640201,0.6841091,-0.298203,0.66231495,9.549163818359375,-2.981873035430908,-0.4174758791923523,-40.466426849365234,-72.14630889892578, 4.914958477020264
285,4027310242,0.06673167,0.6904718,-0.30322647,0.65333754,9.766738891601562,-3.005073070526123,-0.5955253839492798,-40.27079772949219,-75.34172821044922, 5.120629787445068
286,4027326909,0.06676498,0.6969275,-0.30805954,0.64415413,10.014914512634277,-2.9081263542175293,-1.0098521709442139,-38.397315979003906,-77.2717514038086, 5.259750843048096
287,4027343576,0.067088425,0.70346034,-0.31294113,0.6345954,10.454547882080078,-2.703343391418457,-1.172008752822876,-40.75926208496094,-78.82435607910156, 3.8726003170013428
288,4027360243,0.06753635,0.7102118,-0.31791672,0.62447387,10.850554466247559,-2.5031352043151855,-1.114872694015503,-42.88398361206055,-82.28020477294922, 3.0578203201293945
289,4027376910,0.067803934,0.7173792,-0.3226575,0.6137282,11.377120018005371,-2.204303741455078,-0.9584276080131531,-42.167564392089844,-87.40646362304688, 1.4921238422393799
290,4027393577,0.06727812,0.72511667,-0.3268477,0.60237074,11.746479988098145,-2.3889055252075195,-0.9073867201805115,-37.02214813232422,-94.3447265625, 0.5817558765411377
291,4027410244,0.06647752,0.7333138,-0.33092442,0.59018755,12.119433403015137,-1.9753034114837646,-0.9770510196685791,-36.827232360839844,-100.94269561767578, -0.2534479796886444
292,4027426911,0.065948166,0.74191606,-0.3349298,0.5770909,12.730384826660156,-2.1309330463409424,-0.7010122537612915,-39.79833221435547,-106.55967712402344, -3.044003486633301
293,4027443578,0.06476737,0.7510681,-0.33777955,0.56356657,14.047147750854492,-2.7199649810791016,-0.25853773951530457,-32.625946044921875,-111.9189224243164, -7.8054728507995605
294,4027460245,0.06304255,0.7606944,-0.33973798,0.54949814,14.114313125610352,-2.3636362552642822,0.4425862729549408,-27.419673919677734,-117.462646484375, -11.637001991271973
295,4027476912,0.061622962,0.7707628,-0.34155014,0.534295,15.126913070678711,-2.4251725673675537,2.553715944290161,-30.926742553710938,-124.32732391357422, -15.071459770202637
296,4027493579,0.06066977,0.7809728,-0.3444461,0.51745355,15.72008991241455,-2.149111032485962,4.802547454833984,-41.17780303955078,-132.94818115234375, -12.05782699584961
297,4027510246,0.061928462,0.7912507,-0.34908542,0.49822384,14.764025688171387,-2.617074728012085,5.59341287612915,-64.89820861816406,-141.57644653320312, -11.714179992675781
298,4027526913,0.062264908,0.8011905,-0.35563588,0.47722152,13.797309875488281,-7.471347332000732,2.4165306091308594,-70.84449005126953,-153.1643829345703, 1.9034388065338135
299,4027543580,0.058010012,0.8115102,-0.36282685,0.45436028,15.114299774169922,-10.154902458190918,0.7769292593002319,-52.06919479370117,-176.20639038085938, 18.748491287231445
300,4027560247,0.05480984,0.8216693,-0.37008378,0.42999348,13.842710494995117,-6.434885025024414,2.296755075454712,-62.02619171142578,-181.54776000976562, 15.589917182922363
301,4027576914,0.056763973,0.830952,-0.3785845,0.40369654,10.395798683166504,-6.467494487762451,0.0392490029335022,-100.0998764038086,-177.26953125, 8.865742683410645
302,4027593581,0.058044024,0.83851475,-0.3868442,0.37930977,10.999865531921387,-7.237154006958008,-2.476104974746704,-91.3042984008789,-163.2630615234375, 14.561902046203613
303,4027610248,0.05657276,0.84399724,-0.3925932,0.36102518,9.46371841430664,-5.545691967010498,-0.29564228653907776,-53.51884078979492,-128.98117065429688, 15.210922241210938
304,4027626915,0.052767657,0.8475218,-0.39677382,0.34855923,8.1715669631958,-3.7927331924438477,-2.1903181076049805,-21.162654876708984,-96.06468200683594, 19.443706512451172
305,4027643582,0.04781987,0.8498251,-0.39815184,0.34203258,8.03909969329834,-1.8159549236297607,2.263247013092041,7.960163116455078,-60.637264251708984, 11.337705612182617
306,4027660249,0.043078456,0.8501279,-0.39817706,0.341881,6.6911115646362305,-3.0032296180725098,3.4811925888061523,26.72330665588379,-17.706310272216797, 10.532479286193848
307,4027676916,0.034198724,0.84846246,-0.39510217,0.35048065,5.562975883483887,-3.004530191421509,2.65548038482666,81.55926513671875,27.62995147705078, 10.128586769104004
308,4027693583,0.024610521,0.8449557,-0.38913733,0.36608344,5.315488338470459,-1.7043691873550415,1.5105358362197876,111.23881530761719,71.65966796875, 1.6364516019821167
309,4027710250,0.017311912,0.8398332,-0.3806692,0.38661635,5.751125335693359,-1.2989968061447144,0.9854072332382202,117.15802001953125,110.90979766845703, -13.497051239013672
310,4027726917,0.012879165,0.83282673,-0.3697991,0.41168302,6.510087490081787,-1.7441331148147583,-0.07872357964515686,118.64471435546875,149.88038635253906, -29.499834060668945
311,4027743584,0.009714992,0.8235145,-0.35642454,0.4412389,6.848842144012451,-1.4373682737350464,-0.4459190368652344,129.6946258544922,185.5639190673828, -41.16157913208008
312,4027760251,0.008959437,0.811644,-0.3412107,0.47405654,7.406863212585449,-0.3793639540672302,-0.09237758815288544,129.47140502929688,217.82826232910156, -52.382080078125
313,4027776918,0.011295867,0.79680246,-0.32445002,0.5096186,8.042088508605957,0.04730040207505226,-0.17105835676193237,123.53326416015625,250.1855926513672, -63.93996810913086
314,4027793585,0.017637294,0.7784495,-0.30698028,0.5472377,8.851937294006348,0.19046469032764435,-0.5173085927963257,108.40950775146484,282.7629089355469, -73.84952545166016
315,4027810252,0.028772028,0.7560903,-0.29039723,0.58580667,10.755433082580566,-0.384331077337265,-1.3652565479278564,80.94891357421875,312.94744873046875, -78.55608367919922
316,4027826919,0.043581914,0.7296547,-0.274823,0.6246417,13.431879997253418,-1.3294167518615723,-2.6597542762756348,57.50833511352539,337.9137268066406, -79.91300964355469
317,4027843586,0.062003203,0.69956464,-0.26155442,0.6620837,15.65495777130127,-1.3044204711914062,-3.3247427940368652,25.759933471679688,352.7800598144531, -77.36436462402344
318,4027860253,0.08214658,0.6668284,-0.25120127,0.69677144,16.44671058654785,-2.4367151260375977,-4.157857418060303,-1.8777942657470703,353.458251953125, -67.5885238647461
319,4027876920,0.09980533,0.63262457,-0.24117167,0.72915137,16.86414337158203,-4.277837753295898,-4.881897449493408,3.167881727218628,345.4708557128906, -52.97215270996094
320,4027893587,0.112323835,0.59806883,-0.22856304,0.75990564,17.379642486572266,-4.591488838195801,-5.160846710205078,35.548824310302734,333.4700622558594, -38.965423583984375
321,4027910254,0.120399944,0.56442416,-0.21240631,0.7885514,16.88298797607422,-4.106062889099121,-5.558448314666748,69.76805877685547,315.8745422363281, -33.42074966430664
322,4027926921,0.1270012,0.533873,-0.19535528,0.8128266,15.343748092651367,-0.5334349870681763,-7.312195301055908,76.55191802978516,280.7977600097656, -37.03606414794922
323,4027943588,0.14088991,0.5072828,-0.18939176,0.8288216,12.514086723327637,0.4549996554851532,-8.34362506866455,-19.833097457885742,228.4548797607422, -49.60147476196289
324,4027960255,0.15016131,0.4869501,-0.18348265,0.8406343,9.806367874145508,-7.850521087646484,-12.78431510925293,-3.3934760093688965,172.23423767089844, -35.27428436279297
325,4027976922,0.15289684,0.47676268,-0.17556754,0.8476417,9.206700325012207,-4.666285514831543,-14.582160949707031,34.543914794921875,91.46244049072266, -22.023500442504883
326,4027993589,0.15360731,0.47619575,-0.17749333,0.84743094,9.2060546875,-4.649377822875977,-15.037898063659668,-14.730938911437988,-0.9127093553543091, 2.811002254486084
327,4028010256,0.14796728,0.48372132,-0.17912549,0.8438211,8.733031272888184,-4.115954875946045,-15.687821388244629,12.215299606323242,-66.494140625, 25.36397361755371
328,4028026923,0.14159352,0.49414104,-0.18196118,0.8382522,12.121705055236816,-3.976722240447998,-7.017250061035156,8.244606971740723,-91.79894256591797, 28.04420280456543
329,4028043590,0.12875256,0.5010531,-0.17477952,0.83774775,20.633460998535156,-3.8836660385131836,22.83753776550293,90.90138244628906,-52.647457122802734, 40.58226776123047
330,4028060257,0.10807167,0.5100991,-0.16246995,0.8376894,8.939013481140137,3.6499440670013428,-1.8847529888153076,149.8588409423828,-68.42241668701172, 65.89246368408203
331,4028076924,0.103165984,0.5222239,-0.16717827,0.8298742,15.405183792114258,-2.1236696243286133,-6.245750427246094,-9.875768661499023,-108.35987091064453, 25.545175552368164
332,4028093591,0.09380705,0.53572994,-0.16695589,0.8223867,17.178726196289062,2.307861566543579,-0.8375341296195984,35.626041412353516,-116.61444091796875, 31.897851943969727
333,4028110258,0.09358739,0.54579985,-0.18619397,0.8115887,10.300763130187988,-0.6189713478088379,1.5062196254730225,-114.0949935913086,-111.41648864746094, 53.76211166381836
334,4028126925,0.09271997,0.55394316,-0.20561023,0.8014206,10.124574661254883,-8.746912002563477,-1.2683889865875244,-113.08644104003906,-99.26171875, 60.93938446044922
335,4028143592,0.08366742,0.56244683,-0.20801115,0.7958549,8.585463523864746,-9.54737377166748,-1.1195964813232422,18.609209060668945,-84.43113708496094, 43.605995178222656
336,4028160259,0.072908245,0.57049817,-0.20127334,0.7929096,7.884788990020752,-3.117243528366089,2.2498953342437744,78.71517944335938,-69.00589752197266, 19.688365936279297
337,4028176926,0.06995779,0.57691824,-0.20507549,0.7875377,10.672666549682617,-0.5305191874504089,2.6849212646484375,-13.557831764221191,-64.13761138916016, 19.487892150878906
338,4028193593,0.06912617,0.5830582,-0.21263307,0.7810587,11.487321853637695,-3.6985254287719727,0.2201649248600006,-44.00259017944336,-65.85787200927734, 22.796552658081055
339,4028210260,0.06697417,0.58836013,-0.21834286,0.7756765,9.897564888000488,-1.3427408933639526,1.7676749229431152,-27.5794734954834,-58.01677322387695, 24.22525978088379
340,4028226927,0.06692728,0.59340507,-0.22582752,0.7696712,9.913105964660645,-2.5164051055908203,0.8324759602546692,-46.62089538574219,-56.84479522705078, 20.292966842651367
341,4028243594,0.06689201,0.59843457,-0.23177212,0.7639921,9.641121864318848,-2.780294418334961,1.4523667097091675,-38.02257537841797,-54.718448638916016, 14.129011154174805
342,4028260261,0.06779451,0.60311335,-0.23802872,0.7582882,8.885998725891113,-3.490616798400879,1.5710726976394653,-43.72727966308594,-51.64561462402344, 11.03760814666748
343,4028276928,0.06744108,0.6077662,-0.24170084,0.75342745,9.037531852722168,-3.818279504776001,1.2359198331832886,-23.681612014770508,-48.88594055175781, 7.300240993499756
344,4028293595,0.0665829,0.61234444,-0.24421299,0.7489737,9.364370346069336,-2.9151229858398438,1.402764081954956,-14.928606033325195,-47.11497116088867, 5.3728413581848145
345,4028310262,0.065954655,0.6168688,-0.24683887,0.7444422,9.446051597595215,-2.6453027725219727,1.532532811164856,-16.644790649414062,-46.84927749633789, 4.723324298858643
346,4028326929,0.06552451,0.62150943,-0.2499507,0.7395661,9.453810691833496,-2.2791502475738525,1.767156720161438,-20.509368896484375,-48.81035232543945, 5.4200215339660645
347,4028343596,0.06500654,0.62627584,-0.25349194,0.73436713,9.156181335449219,-2.6893293857574463,1.4715728759765625,-22.82355308532715,-51.19346237182617, 7.346080303192139
348,4028360263,0.06421991,0.63118476,-0.25690666,0.72902745,9.083348274230957,-3.0427253246307373,1.0103689432144165,-21.217065811157227,-52.9494743347168, 7.849353313446045
349,4028376930,0.06313282,0.63619375,-0.25989556,0.7236897,9.413187026977539,-2.8815956115722656,0.7489393949508667,-17.736103057861328,-53.80348587036133, 7.330240249633789
350,4028393597,0.06266288,0.6413047,-0.2634098,0.7179258,9.632251739501953,-2.314387083053589,0.5816237926483154,-23.773862838745117,-55.31383514404297, 6.19180965423584
351,4028410264,0.06268492,0.64650637,-0.26746956,0.71173084,9.492904663085938,-2.59030818939209,0.29316189885139465,-29.379732131958008,-57.0206413269043, 5.825404644012451
352,4028426931,0.062000223,0.65202034,-0.2707687,0.7054858,9.291969299316406,-2.979374408721924,0.11465519666671753,-22.47887420654297,-59.75614929199219, 5.311337471008301
353,4028443598,0.061026428,0.65800005,-0.27353126,0.6989227,9.517001152038574,-2.7272391319274902,0.00664973258972168,-18.97746467590332,-63.763267517089844, 3.305044412612915
354,4028460265,0.060716085,0.66410774,-0.27698708,0.6917756,9.365900039672852,-2.549764394760132,0.08515451848506927,-26.360485076904297,-66.07581329345703, 2.770524024963379
355,4028476932,0.060900774,0.67012835,-0.28109205,0.68425655,8.951274871826172,-2.9842967987060547,0.025660015642642975,-32.457069396972656,-66.70191955566406, 3.394306182861328
356,4028493599,0.060603872,0.67656374,-0.28492525,0.67631865,8.938950538635254,-2.9325380325317383,-0.055254798382520676,-29.600439071655273,-71.41397094726562, 3.43037486076355
357,4028510266,0.05979366,0.6830703,-0.2886332,0.6682297,9.38941764831543,-3.068049669265747,-0.12948332726955414,-26.902658462524414,-73.4142837524414, 5.031973361968994
358,4028526933,0.058553215,0.6894283,-0.29233778,0.66015095,9.528545379638672,-3.057368040084839,-0.39690065383911133,-24.91286277770996,-73.55130004882812, 7.2913031578063965
359,4028543600,0.05677475,0.69584906,-0.2956132,0.6520615,9.827449798583984,-2.790144681930542,-0.6328356266021729,-20.414703369140625,-74.80854034423828, 7.568989276885986
360,4028560267,0.05555752,0.7021989,-0.29924056,0.64365035,10.370790481567383,-2.357377529144287,-0.93840491771698,-25.364652633666992,-75.03986358642578, 6.758310317993164
361,4028576934,0.055167984,0.70850724,-0.30359784,0.63466746,10.942508697509766,-2.144176721572876,-1.1033778190612793,-33.784637451171875,-76.20502471923828, 6.494406700134277
362,4028593601,0.054968655,0.7149522,-0.30814502,0.6251952,11.12466812133789,-1.867818832397461,-1.1362855434417725,-36.50989532470703,-78.87307739257812, 6.129405498504639
363,4028610268,0.054426868,0.72176886,-0.31237966,0.61522937,11.426613807678223,-2.1317813396453857,-1.167667031288147,-34.39017868041992,-83.52037811279297, 5.103919506072998
364,4028626935,0.05358704,0.7291334,-0.31631234,0.60451627,11.706472396850586,-2.792247772216797,-0.7176386117935181,-33.034027099609375,-90.09102630615234, 3.4201555252075195
365,4028643602,0.053395204,0.7369321,-0.32068375,0.59265727,12.367555618286133,-2.767763137817383,-0.32376939058303833,-40.44346237182617,-96.41712188720703, 1.565322756767273
366,4028660269,0.054877643,0.7450546,-0.32625318,0.5791732,12.69170093536377,-2.5844340324401855,0.0010640919208526611,-57.28065490722656,-102.74884796142578, -0.49010998010635376
367,4028676936,0.05575754,0.754012,-0.33116755,0.56452256,14.471617698669434,-3.5046284198760986,0.5009242296218872,-53.89377212524414,-113.19078063964844, -3.7509312629699707
368,4028693603,0.05559542,0.76359993,-0.33530563,0.5489945,15.098318099975586,-1.7348697185516357,1.2979328632354736,-47.24806594848633,-122.31013488769531, -5.497395038604736
369,4028710270,0.055778816,0.7738284,-0.3401529,0.5313898,15.902205467224121,-1.6035741567611694,3.8463525772094727,-56.2895393371582,-135.16671752929688, -5.330265522003174
370,4028726937,0.05548933,0.7845518,-0.34455362,0.5125259,18.434558868408203,-0.5752788186073303,6.014900207519531,-54.90990447998047,-144.6953582763672, -7.600006103515625
371,4028743604,0.058524173,0.7950433,-0.35121888,0.4910471,17.737529754638672,-0.7735912799835205,8.124218940734863,-87.12271881103516,-151.09007263183594, -7.517827033996582
372,4028760271,0.06443117,0.80443954,-0.36112386,0.4672428,14.343035697937012,-5.989570140838623,2.8440980911254883,-119.8382797241211,-154.60816955566406, 2.2200686931610107
373,4028776938,0.06774804,0.8148043,-0.37125072,0.44008824,13.039525985717773,-11.261115074157715,-1.3684866428375244,-114.15413665771484,-182.859375, 7.851650238037109
374,4028793605,0.06719317,0.82531863,-0.37731686,0.41468894,13.395572662353516,-8.565715789794922,-0.7110729813575745,-75.6762924194336,-181.5006561279297, -2.807739734649658
375,4028810272,0.06587227,0.83445066,-0.38190973,0.39178878,9.815301895141602,-7.394335746765137,-2.0554521083831787,-61.3298454284668,-164.7252655029297, -4.273252964019775
376,4028826939,0.064911075,0.84144336,-0.3858542,0.3726616,10.267457008361816,-6.375115394592285,-1.523059606552124,-52.74210739135742,-136.09068298339844, -1.6660902500152588
377,4028843606,0.0639835,0.8459716,-0.38809904,0.3600252,8.046859741210938,-4.053740978240967,0.5666587352752686,-32.4957275390625,-91.40028381347656, -2.1656510829925537
378,4028860273,0.063777894,0.848676,-0.38868722,0.3529933,6.080824851989746,-3.608182668685913,-0.6359260678291321,-18.461393356323242,-51.66156768798828, -6.263511657714844
379,4028876940,0.06439358,0.8492882,-0.38742098,0.35280126,6.7292070388793945,-1.0451436042785645,4.686135768890381,-1.4058177471160889,-3.6754367351531982, -10.495025634765625
380,4028893607,0.064604945,0.84758323,-0.3850712,0.35937408,4.993988990783691,-2.4369184970855713,3.067051649093628,20.572792053222656,40.799652099609375, -6.66595983505249
381,4028910274,0.062589824,0.8440621,-0.38014415,0.3730053,4.723084926605225,-2.5292916297912598,1.3445794582366943,57.78446578979492,81.64749908447266, -8.236990928649902
382,4028926941,0.05966781,0.8387023,-0.37309423,0.39219776,5.027675151824951,-2.7536203861236572,0.07683785259723663,82.23587799072266,117.17058563232422, -11.034368515014648
383,4028943608,0.055498444,0.83146054,-0.3636609,0.41634676,5.171544551849365,-2.927445411682129,-0.4326951503753662,107.79769897460938,148.60928344726562, -14.548535346984863
384,4028960275,0.05057282,0.8219501,-0.35159913,0.44521803,5.522733211517334,-2.8085780143737793,-1.0550307035446167,130.59100341796875,181.22361755371094, -19.930599212646484
385,4028976942,0.045692287,0.8100657,-0.33674264,0.4778186,5.759388446807861,-2.371023654937744,-1.4177274703979492,147.09365844726562,210.66397094726562, -28.823408126831055
386,4028993609,0.04167773,0.7957189,-0.31888807,0.51323026,6.798049449920654,-1.8830721378326416,-1.8302569389343262,157.8808135986328,237.37901306152344, -41.780494689941406
387,4029010276,0.039944716,0.7785448,-0.29882726,0.550432,8.07715129852295,-1.5237786769866943,-2.1885364055633545,156.30654907226562,262.8130187988281, -55.17402267456055
388,4029026943,0.042259455,0.7580924,-0.27826795,0.58828354,9.634729385375977,-1.6506911516189575,-2.595773220062256,136.98582458496094,287.1739501953125, -66.2390365600586
389,4029043610,0.04959835,0.73439246,-0.2588655,0.62545747,12.201594352722168,-1.859505534172058,-2.9847214221954346,103.88895416259766,306.07861328125, -74.50473022460938
390,4029060277,0.06150011,0.7078254,-0.24272467,0.6605198,14.529834747314453,-2.49326753616333,-3.5257482528686523,62.095176696777344,314.7734069824219, -73.266357421875
391,4029076944,0.07535335,0.6790197,-0.22984748,0.6931268,15.663837432861328,-3.7494142055511475,-4.307343482971191,32.742271423339844,314.89447021484375, -63.544227600097656
392,4029093611,0.08871817,0.64895606,-0.21857762,0.72333235,15.599254608154297,-4.343186378479004,-4.231600284576416,22.93305778503418,308.11962890625, -52.97958755493164
393,4029110278,0.10065431,0.6181919,-0.20892552,0.7510381,15.852423667907715,-4.483120918273926,-3.5019371509552,17.09731101989746,297.37310791015625, -39.14607238769531
394,4029126945,0.110529706,0.5877136,-0.2009996,0.77587086,16.23558807373047,-3.7470157146453857,-3.2445881366729736,13.034067153930664,279.5922546386719, -23.585290908813477
395,4029143612,0.11812372,0.55886585,-0.19414885,0.79751027,13.882328987121582,-3.019486904144287,-4.282062530517578,13.37098503112793,254.08831787109375, -11.75899600982666
396,4029160279,0.12922591,0.53345865,-0.19250101,0.8134289,12.209488868713379,1.2555351257324219,-3.995945930480957,-33.455867767333984,213.77745056152344, -20.249404907226562
397,4029176946,0.14095993,0.5107302,-0.1931214,0.8258265,10.620747566223145,-4.021075248718262,-5.322726726531982,-50.723365783691406,184.78736877441406, -22.105619430541992
398,4029193613,0.14722562,0.49251246,-0.1878047,0.8369505,10.616490364074707,-3.6972692012786865,-4.699695587158203,4.908607482910156,153.2915802001953, -19.147003173828125
399,4029210280,0.15318903,0.47803977,-0.18715876,0.8443834,9.978716850280762,-1.9770112037658691,-4.894493579864502,-21.88756561279297,114.21587371826172, -10.173187255859375
400,4029226947,0.1579899,0.4680015,-0.19247521,0.8479195,8.493706703186035,-2.781989097595215,-6.389937400817871,-53.000308990478516,67.97999572753906, 6.368489742279053
401,4029243614,0.15983416,0.46348077,-0.19840708,0.84868944,7.909172058105469,-3.0791983604431152,-6.747264862060547,-44.7104606628418,22.429994583129883, 15.276592254638672
402,4029260281,0.15857333,0.4634266,-0.20339274,0.8477748,8.666611671447754,-2.8275649547576904,-6.606446266174316,-26.655126571655273,-12.101418495178223, 22.428590774536133
403,4029276948,0.15451391,0.4667613,-0.20764317,0.8456619,8.998628616333008,-2.3974363803863525,-7.223169326782227,-11.405013084411621,-38.694000244140625, 30.349689483642578
404,4029293615,0.14759287,0.47335204,-0.21021621,0.84259355,8.668057441711426,-2.105628490447998,-8.116440773010254,9.656841278076172,-62.902950286865234, 35.941551208496094
405,4029310282,0.13763794,0.48359692,-0.20847793,0.83888453,10.011773109436035,-3.4030399322509766,-6.1992506980896,47.323089599609375,-86.07624053955078, 33.55217742919922
406,4029326949,0.12393159,0.4922979,-0.19750698,0.83861506,18.467885971069336,-2.6690635681152344,19.974580764770508,116.5523681640625,-62.30014419555664, 29.93637466430664
407,4029343616,0.09821314,0.49850333,-0.17460339,0.84342337,14.204176902770996,6.338446140289307,14.195738792419434,230.7771759033203,-37.00767135620117, 66.5212173461914
408,4029360283,0.08776932,0.5103559,-0.16911325,0.83859086,7.513246059417725,5.945882797241211,-4.199982643127441,69.59549713134766,-96.31368255615234, 24.402427673339844
409,4029376950,0.08094206,0.52338654,-0.16926071,0.83118373,17.947723388671875,3.4740676879882812,-2.1914899349212646,22.115337371826172,-111.28539276123047, 20.474027633666992
410,4029393617,0.078156285,0.53598267,-0.18460573,0.8200826,14.682876586914062,2.6330366134643555,2.6549055576324463,-83.81005096435547,-125.7843017578125, 50.590694427490234
411,4029410284,0.07814058,0.54697406,-0.2064969,0.8075105,7.642207622528076,-10.62826919555664,-0.48161548376083374,-133.66302490234375,-122.16578674316406, 60.40755844116211
412,4029426951,0.06585114,0.558531,-0.20703734,0.80052656,7.877665042877197,-13.431278228759766,-1.959410548210144,39.32142639160156,-110.22797393798828, 50.36042785644531
413,4029443618,0.048782744,0.5702021,-0.19500124,0.796533,7.997633457183838,-6.318751811981201,1.1822303533554077,131.24493408203125,-100.46105194091797, 29.42589569091797
414,4029460285,0.03688619,0.58120114,-0.18630412,0.79128754,9.07114028930664,-0.748159646987915,1.957889437675476,90.77591705322266,-95.88417053222656, 14.610053062438965
415,4029476952,0.030977428,0.5911134,-0.1844931,0.78459436,11.222105026245117,-0.5560361742973328,0.6840638518333435,27.242414474487305,-89.85143280029297, 10.582611083984375
416,4029493619,0.027519394,0.6003717,-0.18879445,0.77662975,12.729490280151367,-0.04348867014050484,1.2234586477279663,-17.447765350341797,-89.68585205078125, 22.78457260131836
417,4029510286,0.024141036,0.6089442,-0.19517487,0.7684474,9.489785194396973,-2.695086717605591,0.5083429217338562,-29.289648056030273,-87.22118377685547, 31.826616287231445
418,4029526953,0.018736975,0.6169324,-0.19657196,0.7618421,9.361842155456543,-3.1237292289733887,1.0729715824127197,7.5398383140563965,-79.42817687988281, 22.707855224609375
419,4029543620,0.0145022,0.6242028,-0.19773972,0.7556852,9.337961196899414,-2.9905624389648438,1.187295913696289,4.292393684387207,-72.17140197753906, 16.630640029907227
420,4029560287,0.011939636,0.630565,-0.19947864,0.7499694,9.081171989440918,-2.977346420288086,1.254751443862915,-5.3493428230285645,-63.35906219482422, 11.667608261108398
421,4029576954,0.010014573,0.63638216,-0.2013959,0.7445521,9.495983123779297,-2.3989150524139404,1.343071699142456,-8.672121047973633,-58.414039611816406, 9.92241382598877
422,4029593621,0.008745846,0.64190125,-0.20410855,0.7390715,9.79520034790039,-1.8605631589889526,1.1650352478027344,-15.73186206817627,-56.331539154052734, 10.456202507019043
423,4029610288,0.008181943,0.6471316,-0.20821206,0.7333499,9.852827072143555,-1.7385485172271729,1.196171522140503,-26.272705078125,-55.042564392089844, 13.416085243225098
424,4029626955,0.00831741,0.6523284,-0.2131926,0.7272881,9.241851806640625,-2.636176109313965,0.8733043670654297,-34.302268981933594,-55.4587516784668, 13.83601188659668
425,4029643622,0.008251101,0.6577686,-0.21773389,0.72101665,9.14002799987793,-3.2958760261535645,0.5782608985900879,-31.50257110595703,-57.90480041503906, 12.509639739990234
426,4029660289,0.007349466,0.6634931,-0.22122057,0.71469223,9.227434158325195,-3.4905338287353516,0.30120283365249634,-22.56340217590332,-60.7625846862793, 11.44908332824707
427,4029676956,0.0060460977,0.66954106,-0.22402138,0.70816183,9.15623664855957,-2.9272680282592773,0.23523879051208496,-17.66596221923828,-63.883567810058594, 9.786415100097656
428,4029693623,0.0047415383,0.67599195,-0.2269681,0.7010696,9.404208183288574,-2.816789388656616,0.3035900592803955,-19.2241268157959,-68.45671844482422, 9.819937705993652
429,4029710290,0.0030987023,0.68229795,-0.2293796,0.69415075,9.428831100463867,-3.0685644149780273,0.11725638061761856,-14.814996719360352,-67.48030090332031, 9.197209358215332
430,4029726957,0.0012415742,0.6882201,-0.23180202,0.6874737,9.677116394042969,-2.349728584289551,0.054252542555332184,-13.493355751037598,-64.8700942993164, 10.88133716583252
431,4029743624,0.00008083775,0.69398075,-0.23506984,0.68053925,9.736542701721191,-2.3453683853149414,-0.1347791999578476,-21.20372200012207,-64.2409439086914, 11.853824615478516
432,4029760291,-0.0009127157,0.69959444,-0.23874637,0.6734741,9.618751525878906,-2.881274700164795,-0.3567272126674652,-24.12841796875,-63.92433547973633, 13.267829895019531
433,4029776958,-0.0017771702,0.7050075,-0.24242894,0.666476,9.85529613494873,-2.7042295932769775,-0.44743314385414124,-24.67072296142578,-62.47673034667969, 13.0313720703125
434,4029793625,-0.0017350749,0.71018213,-0.24700728,0.65926194,9.889183044433594,-2.559586763381958,-0.6772891879081726,-33.53339767456055,-60.92643737792969, 13.625167846679688
435,4029810292,-0.00075467734,0.7152851,-0.25235605,0.65167737,10.062884330749512,-2.6296842098236084,-0.9648678302764893,-42.238136291503906,-60.825069427490234, 13.268494606018066
436,4029826959,0.0015762651,0.7205085,-0.2587072,0.64337873,10.206748008728027,-2.4163808822631836,-1.1041085720062256,-54.61701202392578,-62.54194641113281, 11.9503812789917
437,4029843626,0.004784629,0.72581434,-0.2658605,0.6344204,10.254409790039062,-2.6846022605895996,-0.9735054969787598,-63.683502197265625,-64.63978576660156, 11.899697303771973
438,4029860293,0.007397671,0.73117614,-0.27292496,0.6251715,11.0423002243042,-3.623460292816162,-0.6298142671585083,-60.85995864868164,-67.43799591064453, 13.949365615844727
439,4029876960,0.008107354,0.7369026,-0.27887908,0.6157401,12.124475479125977,-2.481372594833374,-0.7323131561279297,-46.853084564208984,-73.46170806884766, 15.856538772583008
440,4029893627,0.008189716,0.743483,-0.28478792,0.60503083,11.109062194824219,-2.203693151473999,-0.9861781001091003,-45.88970947265625,-84.7845687866211, 16.589052200317383
441,4029910294,0.006556528,0.75112486,-0.28946933,0.59327596,11.171786308288574,-3.441948175430298,-0.7336103916168213,-34.00405502319336,-97.85995483398438, 15.327866554260254
442,4029926961,0.0046299556,0.7593231,-0.29402414,0.58048046,11.981635093688965,-3.276940107345581,-0.3684321641921997,-34.03038787841797,-106.11337280273438, 14.719589233398438
443,4029943628,0.0048424914,0.76776886,-0.30016682,0.566046,12.505813598632812,-2.4476230144500732,-0.23009145259857178,-54.8530158996582,-111.42489624023438, 13.926192283630371
444,4029960295,0.006387201,0.77696764,-0.30646005,0.54987586,14.392709732055664,-3.3766255378723145,0.9718184471130371,-66.03951263427734,-120.8210220336914, 7.940603733062744
445,4029976962,0.0053364267,0.7868878,-0.3107465,0.5331192,17.08930206298828,-3.2452828884124756,2.526329755783081,-45.80747985839844,-132.13282775878906, 5.500124454498291
446,4029993629,0.0056146868,0.7970261,-0.31624913,0.5144947,16.070512771606445,-0.384915828704834,4.655724048614502,-61.46745300292969,-140.3453826904297, 6.699037551879883
447,4030010296,0.009078417,0.8075452,-0.32234323,0.49384585,18.534976959228516,-1.4493601322174072,8.059704780578613,-85.4212875366211,-146.00662231445312, -2.194000720977783
448,4030026963,0.01552287,0.81695855,-0.3314434,0.4716818,14.881425857543945,-2.5781781673431396,7.0823540687561035,-115.65616607666016,-144.41680908203125, 6.773219585418701
449,4030043630,0.02586297,0.82616776,-0.34432158,0.44522032,10.98607349395752,-8.270894050598145,-2.6250908374786377,-159.642333984375,-159.576171875, 15.359127044677734
450,4030060297,0.032547902,0.835845,-0.35501406,0.41745585,14.108189582824707,-11.449753761291504,-3.091731548309326,-135.23367309570312,-176.70396423339844, 12.734143257141113
451,4030076964,0.034723386,0.84524006,-0.36096942,0.39251158,12.347343444824219,-9.10668659210205,-3.7125816345214844,-88.9766616821289,-169.67103576660156, -0.2793682813644409
452,4030093631,0.03554644,0.85356545,-0.3637608,0.37126994,11.241253852844238,-5.649822235107422,-0.810741662979126,-63.684349060058594,-147.90118408203125, -11.526326179504395
453,4030110298,0.037828404,0.8595233,-0.36594316,0.35478848,9.46853256225586,-4.458226203918457,1.7950104475021362,-59.3963623046875,-110.17628479003906, -11.75557804107666
454,4030126965,0.036698997,0.863823,-0.364402,0.3459404,6.66497278213501,-4.611137866973877,0.9758428335189819,-11.41584300994873,-68.6971206665039, -19.278831481933594
455,4030143632,0.03214157,0.8662656,-0.35966557,0.3452424,7.14235782623291,-3.820791006088257,2.141660451889038,36.468082427978516,-23.69464111328125, -23.4016170501709
456,4030160299,0.022610474,0.8665874,-0.3524156,0.35258865,6.428249359130859,-2.934544086456299,2.0492987632751465,91.45475769042969,17.459854125976562, -19.528217315673828
457,4030176966,0.011078676,0.86455625,-0.34381956,0.36634463,5.1879682540893555,-1.7479872703552246,1.246250867843628,121.78623962402344,56.68057632446289, -15.971099853515625
458,4030193633,0.0012890588,0.8600298,-0.33494768,0.38491255,4.714966297149658,-1.2102882862091064,0.8610332012176514,123.32402801513672,95.68697357177734, -15.722655296325684
459,4030210300,-0.0051445784,0.85303617,-0.32565525,0.40774044,4.510791301727295,-1.2712514400482178,0.35335665941238403,114.36917877197266,135.1392822265625, -21.332956314086914
460,4030226967,-0.00812488,0.84349567,-0.31589824,0.43434742,4.315856456756592,-1.5456817150115967,-0.250308096408844,103.97767639160156,172.1615753173828, -28.161645889282227
461,4030243634,-0.007741025,0.83124006,-0.3056729,0.46426764,5.060164451599121,-1.5822594165802002,-0.7358747720718384,93.21538543701172,206.7814178466797, -35.20696258544922
462,4030260301,-0.0047326116,0.8161296,-0.29472765,0.49703732,6.468036651611328,-1.4868942499160767,-1.3469610214233398,86.66463470458984,237.67454528808594, -41.8570442199707
463,4030276968,0.00015634054,0.79799414,-0.28273076,0.5322305,8.089151382446289,-0.8671717643737793,-2.0198209285736084,84.732421875,265.40643310546875, -48.13881301879883
464,4030293635,0.009055852,0.776874,-0.27070975,0.56841993,9.79944896697998,-0.21492624282836914,-2.6121480464935303,64.76470947265625,289.610107421875, -57.142574310302734
465,4030310302,0.022734009,0.7529979,-0.25994146,0.6040765,12.101994514465332,-0.6670029759407043,-3.468400478363037,33.18952941894531,306.3727722167969, -64.0235824584961
466,4030326969,0.039246675,0.7266307,-0.2507003,0.6384494,14.00217342376709,-2.082824230194092,-4.393562316894531,9.514633178710938,314.9208984375, -63.637569427490234
467,4030343636,0.054638553,0.69852895,-0.2411513,0.6715046,15.206151008605957,-3.6007566452026367,-4.9579877853393555,13.744622230529785,314.1401062011719, -57.62663269042969
468,4030360303,0.067317575,0.6696248,-0.23040809,0.70283973,15.897747039794922,-3.7366278171539307,-4.867796897888184,29.162353515625,305.58673095703125, -50.170005798339844
469,4030376970,0.078597315,0.64064336,-0.22031811,0.7313405,15.994711875915527,-3.246433973312378,-4.353732109069824,27.95340919494629,290.454833984375, -41.603755950927734
470,4030393637,0.08810425,0.611933,-0.21132608,0.75704515,15.222384452819824,-3.7036824226379395,-4.286562919616699,26.179622650146484,273.57269287109375, -29.78127098083496
471,4030410304,0.09479339,0.58402795,-0.2014761,0.78059816,14.533174514770508,-3.3183088302612305,-4.381793022155762,39.888824462890625,256.8477783203125, -21.21108055114746
472,4030426971,0.100273244,0.5576158,-0.19108284,0.8015596,13.407339096069336,-2.4805383682250977,-4.261815071105957,45.08271789550781,237.20965576171875, -20.665672302246094
473,4030443638,0.10792239,0.53425866,-0.1826651,0.8182631,11.788780212402344,1.1655662059783936,-3.7180986404418945,22.413888931274414,205.63946533203125, -31.999300003051758
474,4030460305,0.119787075,0.5124515,-0.18068776,0.8309012,10.952044486999512,-2.2723796367645264,-4.613639831542969,-33.24150085449219,182.59820556640625, -36.98357391357422
475,4030476972,0.12809809,0.49359265,-0.17673713,0.84185606,10.516779899597168,-4.224390029907227,-5.584012985229492,-9.08721923828125,157.14923095703125, -28.694047927856445
476,4030493639,0.13462467,0.4787003,-0.1772399,0.84929895,9.526116371154785,-2.693073272705078,-7.014111518859863,-29.530288696289062,116.3003921508789, -11.183257102966309
477,4030510306,0.14014061,0.46986914,-0.18401584,0.8518935,7.586257457733154,-2.9561266899108887,-8.889514923095703,-63.104652404785156,58.04671096801758, 3.479043960571289
478,4030526973,0.14133748,0.46847093,-0.19036424,0.8510703,7.4131622314453125,-3.9566283226013184,-10.103866577148438,-43.75397491455078,-1.4449000358581543, 14.69445514678955
479,4030543640,0.13782617,0.4732016,-0.19385867,0.84823555,8.753108978271484,-3.100132942199707,-10.392181396484375,-8.519853591918945,-47.0258674621582, 23.0496768951416
480,4030560307,0.13118492,0.4824371,-0.19736657,0.8432628,8.532139778137207,-2.460320472717285,-10.888128280639648,3.057687759399414,-84.28892517089844, 33.30736541748047
481,4030576974,0.12147784,0.49573284,-0.19858468,0.83669394,8.091001510620117,-3.321434736251831,-11.048361778259277,28.055051803588867,-115.07452392578125, 36.529476165771484
482,4030593641,0.11129475,0.50771564,-0.19431333,0.83191425,18.245746612548828,-2.7166476249694824,17.25882339477539,62.65382385253906,-97.34597778320312, 23.81129264831543
483,4030610308,0.08982594,0.5086266,-0.17775837,0.83763534,21.582656860351562,2.9026381969451904,29.378175735473633,177.85183715820312,-3.175292730331421, 68.30998992919922
484,4030626975,0.08287353,0.5158984,-0.17692196,0.8340743,-0.7285231351852417,5.4338531494140625,-3.734934091567993,29.026823043823242,-64.48533630371094, 26.230587005615234
485,4030643642,0.081094965,0.5268244,-0.1793882,0.8268617,17.296506881713867,-2.291656255722046,-3.7610652446746826,-10.627402305603027,-93.96593475341797, 1.805694580078125
486,4030660309,0.07664671,0.53829795,-0.18845087,0.81783104,16.923181533813477,5.768964767456055,3.3181207180023193,-40.35624313354492,-110.52980041503906, 39.207889556884766
487,4030676976,0.08166111,0.5474987,-0.21568188,0.8043995,8.671247482299805,-4.8271074295043945,0.6890729069709778,-184.47601318359375,-111.36067199707031, 53.994998931884766
488,4030693643,0.07735685,0.55620694,-0.2291234,0.7950805,8.1557035446167,-15.57494068145752,-4.309916973114014,-67.25566101074219,-99.22428894042969, 56.63672637939453
489,4030710310,0.05662906,0.56751746,-0.21479191,0.79283166,9.700050354003906,-9.599854469299316,-2.468029022216797,159.97183227539062,-97.4537582397461, 39.69622039794922
490,4030726977,0.041689485,0.57750404,-0.20135616,0.79006785,9.730742454528809,3.7670340538024902,2.9307942390441895,131.24530029296875,-84.00218200683594, 13.276976585388184
491,4030743644,0.04057947,0.5852374,-0.2091849,0.7823636,12.437094688415527,0.10778702050447464,0.7000840306282043,-46.685211181640625,-78.35875701904297, 24.35685920715332
492,4030760311,0.040924072,0.59174514,-0.21870942,0.7748094,11.45504093170166,-4.087655544281006,-0.6061530709266663,-61.7864990234375,-69.54166412353516, 25.208398818969727
493,4030776978,0.039831415,0.5972522,-0.22486,0.7688575,8.95992374420166,-2.07629132270813,1.3414795398712158,-35.82438278198242,-58.8892822265625, 21.089134216308594
494,4030793645,0.040320743,0.60251486,-0.23155782,0.76271343,10.911004066467285,-2.5772621631622314,0.9511955976486206,-45.58172607421875,-56.11093521118164, 15.308768272399902
495,4030810312,0.04010701,0.60733515,-0.23660822,0.7573325,9.533248901367188,-3.346360683441162,0.9143087863922119,-32.93962478637695,-51.301700592041016, 13.09859848022461
496,4030826979,0.04087903,0.6114589,-0.24054667,0.7527183,8.790889739990234,-3.6835501194000244,1.5420141220092773,-30.213287353515625,-42.57837677001953, 4.664456844329834
497,4030843646,0.04158779,0.61496687,-0.24385816,0.74874574,9.078130722045898,-3.6544785499572754,1.4035170078277588,-25.82243537902832,-36.6473503112793, 3.5453288555145264
498,4030860313,0.042470314,0.6183382,-0.24659961,0.7450122,9.532737731933594,-2.5442216396331787,1.2546113729476929,-23.27057456970215,-34.501609802246094, 0.5305126309394836
499,4030876980,0.044081733,0.62175846,-0.25047767,0.7407663,9.514948844909668,-2.4584736824035645,1.7499184608459473,-33.05419921875,-36.04751205444336, 1.403209924697876
500,4030893647,0.045381952,0.625557,-0.25479484,0.7360021,9.021255493164062,-2.8243649005889893,1.7131023406982422,-34.75016403198242,-40.88780212402344, 4.065128803253174
501,4030910314,0.04625403,0.6297071,-0.25881508,0.73098904,8.933517456054688,-3.162144660949707,1.1950139999389648,-31.742895126342773,-44.42542266845703, 4.263400077819824
502,4030926981,0.047458053,0.6341071,-0.26291496,0.7256254,9.146682739257812,-2.967784881591797,0.9725285172462463,-34.134971618652344,-46.657440185546875, 2.381042242050171
503,4030943648,0.049148917,0.63879573,-0.26733556,0.7197615,9.082406044006348,-3.0771985054016113,0.6260353326797485,-38.67616653442383,-49.52705764770508, 0.6659842729568481
504,4030960315,0.050586645,0.6439736,-0.2712956,0.7135394,8.65667724609375,-3.4067373275756836,0.3515518307685852,-35.784141540527344,-53.8495979309082, -1.1247981786727905
505,4030976982,0.05092699,0.65021443,-0.2741833,0.70671886,8.507536888122559,-3.1625728607177734,0.5320543646812439,-26.421119689941406,-63.40509033203125, -2.6875088214874268
506,4030993649,0.05081942,0.6568242,-0.27735406,0.6993388,9.098470687866211,-2.945856809616089,1.1962271928787231,-26.72704315185547,-68.6633071899414, -0.1429215967655182
507,4031010316,0.049760714,0.6633754,-0.28066885,0.6918691,9.449234962463379,-3.0795297622680664,1.0511751174926758,-23.326866149902344,-70.68035888671875, 5.159940242767334
508,4031026983,0.04815561,0.6699509,-0.28440154,0.6840783,9.332796096801758,-3.278782844543457,0.7234065532684326,-23.445993423461914,-73.48715209960938, 9.50729751586914
509,4031043650,0.045743074,0.6765312,-0.28787273,0.67627144,8.993518829345703,-3.5669071674346924,0.2507774233818054,-18.537246704101562,-75.1032485961914, 12.082137107849121
510,4031060317,0.042726994,0.68315524,-0.291088,0.6683874,9.28858470916748,-3.313603639602661,-0.03230469673871994,-14.68664836883545,-76.80144500732422, 13.579276084899902
511,4031076984,0.039682385,0.68983495,-0.29441229,0.6602083,9.742466926574707,-2.810544729232788,-0.5482845902442932,-15.639236450195312,-78.5535659790039, 14.020904541015625
512,4031093651,0.037341546,0.6966527,-0.29815567,0.6514477,10.277204513549805,-2.033247709274292,-1.0273377895355225,-22.018871307373047,-80.64441680908203, 12.380383491516113
513,4031110318,0.036207084,0.7034193,-0.30292052,0.64197344,10.4920654296875,-2.295114517211914,-1.080420732498169,-33.84680938720703,-81.63938903808594, 11.807445526123047
514,4031126985,0.035607293,0.71016896,-0.3083045,0.63193434,10.527958869934082,-2.834603786468506,-0.8048434257507324,-40.35060501098633,-83.3541030883789, 12.350829124450684
515,4031143652,0.03499517,0.7170038,-0.31382462,0.6214464,10.96272087097168,-2.8558285236358643,-0.9046640396118164,-41.81642150878906,-85.99932861328125, 12.787222862243652
516,4031160319,0.034296196,0.7240316,-0.31962162,0.6102824,11.585943222045898,-2.056760311126709,-0.6729129552841187,-43.9919319152832,-90.43655395507812, 13.954182624816895
517,4031176986,0.032387517,0.73192626,-0.3247747,0.59812796,11.736639022827148,-2.6552183628082275,-0.7156516313552856,-37.240962982177734,-101.54676818847656, 13.70595932006836
518,4031193653,0.029220996,0.74055654,-0.32911205,0.5851564,12.291299819946289,-3.090184450149536,-0.39665067195892334,-29.2227840423584,-111.348388671875, 12.963104248046875
519,4031210320,0.026549501,0.74955916,-0.33393678,0.57091427,13.035700798034668,-2.58522367477417,-0.07618863880634308,-36.51477813720703,-118.34148406982422, 12.366646766662598
520,4031226987,0.025056882,0.7592318,-0.33917782,0.5548857,14.022658348083496,-2.85595440864563,0.5950610637664795,-48.21404266357422,-127.60739135742188, 8.039233207702637
521,4031243654,0.021760484,0.769824,-0.34259367,0.5380778,16.52254295349121,-3.146442413330078,1.7425073385238647,-33.508644104003906,-139.1517791748047, 3.1348814964294434
522,4031260321,0.018497463,0.7806791,-0.3462701,0.51989955,15.650527000427246,-0.5125101208686829,3.406431198120117,-37.860084533691406,-147.44419860839844, 3.5939793586730957
523,4031276988,0.017080158,0.7922185,-0.34963343,0.4998552,17.92049217224121,-1.130171775817871,6.326296806335449,-51.022438049316406,-155.59715270996094, -6.500951290130615
524,4031293655,0.018034328,0.8032869,-0.3544402,0.47830692,17.70003890991211,-1.0663723945617676,8.670890808105469,-72.59790802001953,-156.81658935546875, -5.7877984046936035
525,4031310322,0.023981089,0.8135683,-0.36225912,0.45420313,14.313674926757812,-3.898315906524658,2.985429048538208,-116.4491958618164,-156.75791931152344, -3.9308745861053467
526,4031326989,0.030497897,0.82474416,-0.37075815,0.42591774,12.803974151611328,-10.282909393310547,-2.4098196029663086,-132.06385803222656,-181.7711639404297, -4.843276023864746
527,4031343656,0.03229252,0.8361516,-0.37374246,0.40015605,14.017918586730957,-8.710000038146973,-0.4692687690258026,-82.7140121459961,-179.068359375, -22.41716957092285
528,4031360323,0.03209678,0.8469615,-0.37527993,0.37522238,11.486468315124512,-9.314257621765137,-3.748788833618164,-65.35616302490234,-177.5483856201172, -23.5794734954834
529,4031376990,0.02942271,0.85555625,-0.37631902,0.3543199,12.392982482910156,-9.446432113647461,-2.1849045753479004,-39.786285400390625,-154.6791229248047, -13.522871971130371
530,4031393657,0.02218691,0.8615653,-0.37446615,0.34203613,9.313502311706543,-6.410096645355225,1.2861124277114868,15.794322967529297,-108.96270751953125, -11.011617660522461
531,4031410324,0.0138575155,0.86499316,-0.37110153,0.3374599,5.881120204925537,-5.396648406982422,0.49139270186424255,45.21677780151367,-59.88881301879883, -9.568826675415039
532,4031426991,0.0036212578,0.8661291,-0.36481982,0.34163472,7.129149913787842,-0.605305016040802,5.6154465675354,85.38981628417969,-7.139679431915283, -15.8006010055542
533,4031443658,-0.002239279,0.86478573,-0.35875556,0.35133386,5.15566349029541,-0.19513416290283203,3.6748459339141846,72.60560607910156,42.4684944152832, -18.38471221923828
534,4031460325,-0.0030119233,0.8611802,-0.35324776,0.3654807,4.593418598175049,-0.42258185148239136,1.755905032157898,52.01664352416992,86.89359283447266, -21.82851791381836
535,4031476992,-0.0011814538,0.85528636,-0.34766012,0.38420933,4.638185501098633,-1.9310929775238037,0.4045008420944214,47.97948455810547,126.0760726928711, -23.364553451538086
536,4031493659,0.00034213733,0.84709,-0.34046176,0.4080745,4.35811185836792,-2.7803516387939453,-0.19348084926605225,66.32594299316406,161.6175079345703, -26.562469482421875
537,4031510326,0.0011875223,0.8362683,-0.33125225,0.4369512,4.408560276031494,-2.676708936691284,-0.5204734802246094,87.6435546875,196.60125732421875, -30.233108520507812
538,4031526993,0.0021490017,0.8227246,-0.31962714,0.4700626,4.854555606842041,-2.4361863136291504,-1.0165836811065674,103.84832000732422,229.43807983398438, -38.24125289916992
539,4031543660,0.004360979,0.8064413,-0.30535322,0.506353,5.543195724487305,-2.292572259902954,-1.495234489440918,112.28507995605469,259.09405517578125, -51.20582580566406
540,4031560327,0.008638119,0.7871555,-0.28873107,0.544928,7.401080131530762,-2.3496298789978027,-2.0168278217315674,113.72960662841797,286.65509033203125, -65.05598449707031
541,4031576994,0.015718864,0.764511,-0.27086872,0.58472776,9.400777816772461,-2.2958710193634033,-2.5631680488586426,105.44876861572266,311.54150390625, -75.5420150756836
542,4031593661,0.026763737,0.7384846,-0.2537303,0.624136,12.662857055664062,-2.174082040786743,-3.1474709510803223,80.64248657226562,330.4092712402344, -81.43180847167969
543,4031610328,0.041989356,0.70929384,-0.23970099,0.6615763,14.97272777557373,-2.6296207904815674,-3.8681187629699707,42.055362701416016,340.74530029296875, -78.42884826660156
544,4031626995,0.05922337,0.6773951,-0.22864684,0.6966704,16.36941909790039,-3.6055221557617188,-4.598722457885742,14.092456817626953,344.1183166503906, -69.28130340576172
545,4031643662,0.07560319,0.64379084,-0.2194732,0.72914296,16.373001098632812,-4.498054027557373,-4.4818902015686035,4.282863140106201,338.0322265625, -54.84281921386719
546,4031660329,0.088565856,0.6094003,-0.21110673,0.7590928,17.09882354736328,-5.6532111167907715,-4.417537689208984,11.195754051208496,325.3135681152344, -34.29524612426758
547,4031676996,0.096691415,0.57565445,-0.20154862,0.786544,16.942283630371094,-5.0380988121032715,-4.787994384765625,34.47160339355469,305.29168701171875, -16.545150756835938
548,4031693663,0.10351828,0.5453788,-0.19245423,0.8092019,14.297152519226074,-0.39945679903030396,-6.096563816070557,32.82762908935547,265.55792236328125, -15.705704689025879
549,4031710330,0.11635345,0.51866937,-0.19222587,0.8249204,11.878961563110352,-0.4224550127983093,-6.779075622558594,-45.645572662353516,221.47886657714844, -25.524930953979492
550,4031726997,0.12355101,0.4974918,-0.18527442,0.83839786,10.424832344055176,-6.494704723358154,-8.949934959411621,14.10167407989502,180.19287109375, -26.609373092651367
551,4031743664,0.12555575,0.48363087,-0.17605045,0.8481414,10.551928520202637,-3.8525354862213135,-10.3423490524292,46.50502395629883,120.7437973022461, -16.987911224365234
552,4031760331,0.12577635,0.47847903,-0.17593683,0.85104936,8.706542015075684,-3.2680459022521973,-11.648340225219727,-1.3852955102920532,37.41259002685547, 7.249730110168457
553,4031776998,0.12150065,0.48155457,-0.17817576,0.84946847,8.175643920898438,-3.6000819206237793,-12.776449203491211,1.3946267366409302,-32.75922775268555, 27.454986572265625
554,4031793665,0.11524276,0.4897886,-0.18110164,0.8450024,8.95083999633789,-1.7268257141113281,-11.71513557434082,4.793830871582031,-75.23019409179688, 32.560359954833984
555,4031810332,0.108693786,0.5006036,-0.1864833,0.8383356,10.571091651916504,-2.962522029876709,-9.507819175720215,-9.12612247467041,-99.7541732788086, 37.572731018066406
556,4031826999,0.100025065,0.5083711,-0.18562672,0.8349233,19.06355094909668,-2.2094812393188477,20.483776092529297,36.08158874511719,-68.87277221679688, 34.64801025390625
557,4031843666,0.07898347,0.51257163,-0.17076044,0.8377788,13.450651168823242,4.641085624694824,12.941038131713867,165.25729370117188,-32.828914642333984, 65.58077239990234
558,4031860333,0.07695758,0.52273387,-0.17714685,0.8303291,7.284076690673828,3.8492484092712402,-5.712617874145508,-33.113975524902344,-92.81165313720703, 18.43072509765625
559,4031877000,0.07410713,0.53530395,-0.1812834,0.82164145,18.570314407348633,-0.09975147992372513,-2.297483444213867,-17.52167510986328,-110.72742462158203, 11.536060333251953
560,4031893667,0.072463855,0.54811865,-0.19719557,0.80958605,14.786312103271484,0.047629013657569885,1.520233392715454,-92.52628326416016,-128.9042510986328, 46.09971618652344
561,4031910334,0.07143616,0.5591374,-0.21810064,0.7966773,9.369386672973633,-7.541034698486328,-1.163388729095459,-124.67613983154297,-123.76386260986328, 63.55877685546875
562,4031927001,0.06126729,0.5699584,-0.22320037,0.7884008,8.344901084899902,-13.640909194946289,-3.38247013092041,3.946317672729492,-110.7803726196289, 55.36765670776367
563,4031943668,0.042673267,0.5808259,-0.21050856,0.78517956,8.635866165161133,-5.162406921386719,-0.9121086597442627,141.24166870117188,-96.60345458984375, 33.200260162353516
564,4031960335,0.034274068,0.5895504,-0.20799533,0.77973986,10.409743309020996,2.8546338081359863,2.8592824935913086,41.745113372802734,-82.10413360595703, 21.198984146118164
565,4031977002,0.034652963,0.5969928,-0.21855739,0.7711238,12.25641918182373,-2.5874316692352295,-0.45944157242774963,-68.79466247558594,-78.67438507080078, 28.300472259521484
566,4031993669,0.03339428,0.60326844,-0.22617899,0.76406527,10.788416862487793,-3.5339553356170654,-0.26583191752433777,-44.40728759765625,-67.84072875976562, 27.058330535888672
567,4032010336,0.03248814,0.608591,-0.23299976,0.75780815,9.710180282592773,-2.288634777069092,0.702794075012207,-40.62637710571289,-58.774940490722656, 23.551715850830078
568,4032027003,0.032087058,0.61357915,-0.23897585,0.7519188,10.76949405670166,-2.8766448497772217,0.32603392004966736,-37.82115173339844,-54.51240921020508, 18.0179443359375
569,4032043670,0.03302314,0.61763006,-0.24422343,0.7468588,9.537050247192383,-3.340775728225708,0.90641850233078,-38.54334259033203,-43.819496154785156, 9.765863418579102
570,4032060337,0.035252757,0.62076664,-0.24968734,0.7423361,9.069794654846191,-4.019866466522217,1.0573087930679321,-44.45784378051758,-34.740318298339844, 5.701252460479736
571,4032077004,0.03695986,0.62357354,-0.25338343,0.7386389,9.241350173950195,-3.531342029571533,0.775143563747406,-31.878084182739258,-30.025659561157227, 1.5794880390167236
572,4032093671,0.038802266,0.6262376,-0.25650632,0.73520464,9.663779258728027,-2.9355502128601074,1.158615231513977,-29.13375473022461,-27.809982299804688, -1.2521096467971802
573,4032110338,0.040672522,0.62892294,-0.25970045,0.73168164,9.496515274047852,-3.1085569858551025,1.1507905721664429,-29.77634620666504,-28.295120239257812, -1.1410268545150757
574,4032127005,0.04259923,0.63182133,-0.26277438,0.72796786,9.29755973815918,-2.8929502964019775,1.311252236366272,-29.70775032043457,-30.083520889282227, -2.3748114109039307
575,4032143672,0.04549644,0.6350757,-0.2673391,0.7232835,8.917381286621094,-2.5778207778930664,1.8189122676849365,-43.04768371582031,-34.79281234741211, -1.6778802871704102
576,4032160339,0.048153605,0.639042,-0.27225497,0.7177634,8.193634986877441,-3.5303750038146973,1.4463200569152832,-45.07354736328125,-42.57194900512695, -0.512696385383606
577,4032177006,0.049535923,0.64362395,-0.2761345,0.7120707,8.866945266723633,-3.489790439605713,1.0105847120285034,-34.4943733215332,-48.445072174072266, 0.006409658584743738
578,4032193673,0.05100038,0.64856535,-0.28050566,0.70574725,8.817327499389648,-3.0138468742370605,0.7801872491836548,-38.35137176513672,-53.03536605834961, 0.8769088387489319
579,4032210340,0.051798623,0.6539082,-0.28450704,0.6991261,8.785638809204102,-3.606274366378784,0.4857158064842224,-34.02945327758789,-57.49348831176758, 1.5814875364303589
580,4032227007,0.051424988,0.65974647,-0.28765243,0.6923487,8.956254959106445,-3.2451329231262207,0.5847740173339844,-24.787919998168945,-62.58772277832031, 2.3318240642547607
581,4032243674,0.05008587,0.6660607,-0.2904922,0.6851786,8.76339054107666,-3.8729138374328613,0.6466200351715088,-19.57433319091797,-68.4632797241211, 4.4569525718688965
582,4032260341,0.047175344,0.6727612,-0.29256058,0.6779203,8.669814109802246,-4.050549507141113,0.43967294692993164,-8.800093650817871,-73.58767700195312, 7.51124382019043
583,4032277008,0.043386735,0.67987615,-0.2943334,0.6702643,8.92635440826416,-3.551051616668701,0.155997171998024,-4.039072513580322,-79.05646514892578, 9.25760555267334
584,4032293675,0.039661244,0.6871679,-0.29682335,0.66190916,9.628497123718262,-2.831836462020874,-0.14634835720062256,-9.013272285461426,-83.25191497802734, 11.744559288024902
585,4032310342,0.03647588,0.6946045,-0.30031174,0.65269256,9.905669212341309,-2.6035068035125732,-0.8507893085479736,-17.837474822998047,-87.17546844482422, 13.479048728942871
586,4032327009,0.03361255,0.70227563,-0.30398113,0.642865,10.282848358154297,-2.539898633956909,-1.18841552734375,-21.390762329101562,-90.54660034179688, 12.270354270935059
587,4032343676,0.031437658,0.7101292,-0.30819184,0.63225526,10.673985481262207,-2.5735292434692383,-1.2000616788864136,-28.703935623168945,-93.83296966552734, 11.292535781860352
588,4032360343,0.029594775,0.71819997,-0.3127446,0.6208899,11.952569007873535,-1.60723876953125,-0.9544636011123657,-33.36836624145508,-97.85907745361328, 10.909907341003418
589,4032377010,0.02783543,0.72679347,-0.31791118,0.6082183,12.124184608459473,-1.15834379196167,-1.0084917545318604,-39.10060501098633,-106.52487182617188, 12.225126266479492
590,4032393677,0.02471182,0.7361607,-0.32231835,0.59461594,11.772202491760254,-2.198550224304199,-0.7864418625831604,-30.992717742919922,-117.28687286376953, 12.302699089050293
591,4032410344,0.019924602,0.74612147,-0.32553476,0.5804598,12.37734603881836,-3.0282626152038574,-0.21682554483413696,-18.832340240478516,-126.04719543457031, 11.68751335144043
592,4032427011,0.01576815,0.75623477,-0.32932022,0.5651628,13.167516708374023,-2.6889920234680176,0.14801281690597534,-26.887351989746094,-131.2314453125, 11.605655670166016
593,4032443678,0.013234937,0.76690704,-0.33372828,0.54800034,14.646848678588867,-3.109015703201294,1.1350369453430176,-41.925453186035156,-139.56752014160156, 7.08931303024292
594,4032460345,0.009489855,0.77822125,-0.33668676,0.5300226,17.019046783447266,-3.3127920627593994,2.3421740531921387,-31.907737731933594,-149.03158569335938, 2.4889960289001465
595,4032477012,0.006608748,0.78982514,-0.34006596,0.5103806,16.2861328125,-0.9175252318382263,4.3034868240356445,-41.926944732666016,-157.1534423828125, 0.843536913394928
596,4032493679,0.0061399005,0.8021088,-0.34341672,0.4885174,19.289865493774414,-1.7548209428787231,8.132989883422852,-60.116703033447266,-166.1179962158203, -9.412245750427246
597,4032510346,0.008183714,0.8133508,-0.3487076,0.46561497,17.401342391967773,-2.0603318214416504,8.297221183776855,-83.04373168945312,-162.72732543945312, -4.679901599884033
598,4032527013,0.014891469,0.82446194,-0.35752946,0.43842244,13.495057106018066,-6.924236297607422,0.16051805019378662,-130.77682495117188,-175.550048828125, 0.2324553281068802
599,4032543680,0.017362677,0.836469,-0.3637056,0.40955713,14.859464645385742,-10.741446495056152,-1.0372414588928223,-102.84780883789062,-197.9810333251953, -4.4157257080078125
600,4032560347,0.017317144,0.8484722,-0.36625433,0.38164544,12.806180000305176,-9.38386344909668,-2.9530293941497803,-75.86572265625,-198.4427032470703, -18.120737075805664
601,4032577014,0.014536811,0.85880643,-0.36756444,0.3565629,12.989324569702148,-10.252422332763672,-3.3225278854370117,-49.79554748535156,-184.3611297607422, -13.67618179321289
602,4032593681,0.009201638,0.8659612,-0.36724383,0.33935073,11.253981590270996,-7.413984775543213,2.013530731201172,-11.224766731262207,-136.4478302001953, -8.24866771697998
603,4032610348,0.0032093893,0.8700163,-0.36611068,0.3301892,7.005732536315918,-5.649201393127441,0.940802812576294,14.628796577453613,-82.98883819580078, -3.2111573219299316
604,4032627015,-0.0049131652,0.87186056,-0.36082938,0.331116,6.976891994476318,-1.5099347829818726,5.694612503051758,62.079978942871094,-22.9423770904541, -17.396711349487305
605,4032643682,-0.008695227,0.8713723,-0.355614,0.3378961,6.5316972732543945,-0.8189631700515747,4.1590800285339355,50.490787506103516,28.136558532714844, -21.259090423583984
606,4032660349,-0.011460497,0.8683839,-0.350183,0.35092813,5.61403226852417,-2.7175168991088867,1.6561481952667236,60.3232536315918,73.80717468261719, -19.140304565429688
607,4032677016,-0.015197865,0.86287314,-0.3430861,0.37082538,5.409878730773926,-2.3987233638763428,1.1084508895874023,86.85008239746094,118.38592529296875, -21.193695068359375
608,4032693683,-0.018547695,0.85457146,-0.33455244,0.3967858,4.862182140350342,-1.7281240224838257,0.7965431213378906,102.79728698730469,162.2245635986328, -24.74445915222168
609,4032710350,-0.020072352,0.84329224,-0.32478517,0.4277502,4.529199123382568,-1.175376296043396,0.3169459104537964,107.31647491455078,203.7982635498047, -30.74347496032715
610,4032727017,-0.018419616,0.8288907,-0.31372678,0.4627924,4.694052696228027,-1.0621821880340576,-0.21588817238807678,102.227294921875,243.5629119873047, -41.15848922729492
611,4032743684,-0.0132201305,0.8111328,-0.3015357,0.50096494,5.943702697753906,-1.2081798315048218,-0.9961405992507935,92.79927062988281,279.6193542480469, -52.0609130859375
612,4032760351,-0.004707642,0.7896868,-0.28844082,0.5414563,7.886462688446045,-0.9640080332756042,-1.9888653755187988,82.58021545410156,312.0765075683594, -61.087581634521484
613,4032777018,0.0077739786,0.76450217,-0.2752985,0.5828272,10.15514087677002,-0.5481624603271484,-3.0446784496307373,63.08491134643555,338.6738586425781, -68.74951934814453
614,4032793685,0.024743011,0.73565525,-0.2632886,0.6236017,13.065192222595215,-0.5175139307975769,-4.366626262664795,33.646156311035156,358.6888122558594, -73.88951110839844
615,4032810352,0.045514286,0.7040539,-0.2536304,0.6617467,15.580220222473145,-0.7490652203559875,-5.546535968780518,-0.8775328397750854,363.7189025878906, -73.76763153076172
616,4032827019,0.06735388,0.67051536,-0.24659595,0.6964651,16.588926315307617,-2.26055908203125,-6.534490585327148,-24.533716201782227,357.0406799316406, -63.62718200683594
617,4032843686,0.084339775,0.6362515,-0.2388941,0.72869825,16.583133697509766,-5.227309703826904,-6.650701999664307,-3.4604899883270264,341.2186584472656, -43.39735794067383
618,4032860353,0.09290327,0.60234874,-0.22538586,0.76009655,16.995880126953125,-5.424439430236816,-6.608180999755859,61.3619499206543,325.4185791015625, -27.722402572631836
619,4032877020,0.09634269,0.5700293,-0.20841323,0.78889126,16.367233276367188,-3.276064395904541,-7.00501012802124,97.72615814208984,300.782470703125, -19.435096740722656
620,4032893687,0.099087216,0.54231834,-0.19028255,0.8123212,13.555826187133789,0.11946245282888412,-7.8678364753723145,102.15380096435547,254.686767578125, -30.35308074951172
621,4032910354,0.10881143,0.51929927,-0.17991975,0.82832223,12.20289134979248,0.918502151966095,-8.23974323272705,26.250652313232422,204.79190063476562, -51.52873992919922
622,4032927021,0.115674235,0.5007936,-0.16827719,0.8411353,10.513660430908203,-7.870345115661621,-10.511609077453613,43.22980880737305,165.3192596435547, -47.72433853149414
623,4032943688,0.1165817,0.48892236,-0.15365821,0.85073704,10.128214836120605,-5.350493431091309,-11.483610153198242,82.59412384033203,111.60437774658203, -33.847782135009766
624,4032960355,0.11822449,0.4850122,-0.15297414,0.8528691,8.474611282348633,-3.5077338218688965,-12.29304027557373,-2.801435947418213,29.774795532226562, -5.740540981292725
625,4032977022,0.11606222,0.4894123,-0.15685043,0.8499434,8.73095417022705,-5.378205299377441,-14.245976448059082,-15.346545219421387,-43.291194915771484, 18.903356552124023
626,4032993689,0.11174777,0.4990709,-0.16178297,0.84395933,8.689821243286133,-2.804541826248169,-13.4833984375,-13.284090995788574,-87.21710205078125, 26.874292373657227
627,4033010356,0.1092588,0.5095197,-0.16886099,0.83662343,15.223970413208008,-2.970350503921509,4.295599460601807,-32.809913635253906,-95.82149505615234, 21.719833374023438
628,4033027023,0.095784195,0.5125193,-0.16137452,0.8379191,22.074539184570312,-2.074772596359253,27.267967224121094,93.89753723144531,-24.530447006225586, 49.00859832763672
629,4033043690,0.084741116,0.5188317,-0.15937218,0.83560383,2.100668430328369,5.862359523773193,-1.5946234464645386,51.82697677612305,-57.530704498291016, 48.27754211425781
630,4033060357,0.086666405,0.52869976,-0.16918196,0.82725066,15.868800163269043,-6.158318996429443,-5.378036975860596,-66.8591537475586,-92.15953063964844, 8.582308769226074
631,4033077024,0.07918671,0.5404257,-0.17224947,0.8197562,16.598615646362305,5.505505084991455,1.8695224523544312,7.85861349105835,-106.36547088623047, 35.87773513793945
632,4033093691,0.084033236,0.5495749,-0.19714998,0.8074889,9.573728561401367,-1.5941400527954102,1.4689887762069702,-168.07620239257812,-106.84321594238281, 48.130775451660156
633,4033110358,0.084014915,0.55770963,-0.21516687,0.7972487,9.397522926330566,-10.993589401245117,-2.2049612998962402,-109.26869201660156,-96.17510986328125, 51.70310974121094
634,4033127025,0.0707365,0.5675292,-0.2115537,0.79256076,8.62220573425293,-10.661663055419922,-1.51569664478302,69.3838882446289,-91.1809310913086, 42.017486572265625
635,4033143692,0.056658756,0.5774001,-0.2031563,0.7887503,9.32868766784668,-1.0481266975402832,2.2714784145355225,99.9159927368164,-86.8360366821289, 27.900169372558594
636,4033160359,0.05174321,0.5859148,-0.20729616,0.7817004,11.331483840942383,-1.1754931211471558,0.864587664604187,-9.50428295135498,-84.4554214477539, 28.6224308013916
637,4033177026,0.04915465,0.59303623,-0.21393554,0.77467686,10.6085205078125,-3.107083559036255,0.3109264671802521,-32.77655792236328,-74.43152618408203, 28.20542335510254
638,4033193693,0.04719367,0.5992231,-0.22012264,0.7682781,10.13611125946045,-1.9409072399139404,0.6301723122596741,-32.30901336669922,-65.82908630371094, 24.605939865112305
639,4033210360,0.04677129,0.60505885,-0.2271186,0.7616652,10.5801420211792,-2.4048070907592773,0.7450157403945923,-43.35197830200195,-62.80009841918945, 20.29244613647461
640,4033227027,0.04590342,0.61056155,-0.23276575,0.75559783,9.684837341308594,-3.184152841567993,0.8061993718147278,-33.69460678100586,-59.05880355834961, 17.72304916381836
641,4033243694,0.04508789,0.6158191,-0.23621708,0.7502906,9.041434288024902,-3.8580129146575928,1.0335917472839355,-21.37221336364746,-53.83308792114258, 8.861749649047852
642,4033260361,0.044048283,0.6205984,-0.23825958,0.74575496,8.906624794006348,-3.708005428314209,1.1714839935302734,-12.051623344421387,-48.04813766479492, 5.05214262008667
643,4033277028,0.043142255,0.6250422,-0.2394766,0.7416958,9.46982192993164,-2.7880465984344482,0.9973177313804626,-7.722602844238281,-43.85041427612305, 1.5225510597229004
644,4033293695,0.04314095,0.62914664,-0.2413095,0.7376203,9.731316566467285,-2.2790093421936035,0.9902085065841675,-14.889619827270508,-40.9041748046875, 0.11120468378067017
645,4033310362,0.043855797,0.6331643,-0.24412598,0.73320043,9.736272811889648,-1.964062213897705,1.490510106086731,-23.585233688354492,-41.08037185668945, 0.7872958779335022
646,4033327029,0.045027748,0.63747,-0.24834329,0.72796345,9.137917518615723,-2.016704797744751,1.8892738819122314,-33.92979049682617,-45.77919387817383, 3.8706166744232178
647,4033343696,0.04562977,0.6422868,-0.25255692,0.7222197,8.887739181518555,-3.079566478729248,1.318312644958496,-32.131629943847656,-51.572235107421875, 5.692631721496582
648,4033360363,0.045934092,0.6476324,-0.2566277,0.7159643,9.115842819213867,-2.7122466564178467,1.1234863996505737,-30.85051727294922,-56.961273193359375, 5.456603527069092
649,4033377030,0.046594128,0.65320385,-0.26136285,0.709115,9.486546516418457,-2.43257737159729,0.8725475668907166,-36.68985366821289,-60.3321418762207, 6.081081390380859
650,4033393697,0.04764018,0.6590334,-0.2668213,0.7015785,9.096449851989746,-3.076948404312134,0.6564491987228394,-43.112213134765625,-64.24723052978516, 6.773723125457764
651,4033410364,0.04681792,0.6653248,-0.27056107,0.6942251,9.027777671813965,-3.6362862586975098,0.5192995667457581,-25.876758575439453,-68.53974914550781, 7.20764684677124
652,4033427031,0.045310214,0.671844,-0.27380443,0.68673444,9.335823059082031,-2.9824106693267822,0.43169426918029785,-20.574703216552734,-71.39590454101562, 7.727778434753418
653,4033443698,0.04391633,0.6784021,-0.27772465,0.67875737,9.263375282287598,-3.0256381034851074,0.3747465908527374,-25.20623779296875,-73.8548583984375, 10.091029167175293
654,4033460365,0.0422753,0.6850806,-0.28181928,0.6704147,9.294829368591309,-3.118804454803467,0.27080947160720825,-25.534786224365234,-76.68174743652344, 11.71564769744873
655,4033477032,0.04011416,0.69191486,-0.28587705,0.661755,9.493349075317383,-2.922708511352539,-0.12718704342842102,-23.504125595092773,-79.91962432861328, 13.543355941772461
656,4033493699,0.037898324,0.69890404,-0.29014933,0.6526184,9.825456619262695,-2.853722333908081,-0.6459320187568665,-25.126665115356445,-83.09033966064453, 14.378854751586914
657,4033510366,0.03591658,0.7060487,-0.2944098,0.64306194,9.83777141571045,-3.200536012649536,-0.9308707118034363,-26.995588302612305,-85.36326599121094, 12.856439590454102
658,4033527033,0.03427468,0.71329135,-0.29855454,0.63317174,10.08138370513916,-2.9454376697540283,-0.9167205095291138,-28.803823471069336,-86.72024536132812, 10.514357566833496
659,4033543700,0.03237219,0.7205264,-0.30239925,0.62317646,10.81954288482666,-3.2099032402038574,-0.9117283225059509,-26.43708038330078,-87.69746398925781, 10.172818183898926
660,4033560367,0.03036893,0.7279078,-0.3059911,0.6128604,12.073210716247559,-1.5982295274734497,-0.9962350130081177,-25.503145217895508,-90.1012191772461, 8.982827186584473
661,4033577034,0.028284179,0.7358569,-0.30999154,0.6013488,11.701711654663086,-1.2845731973648071,-1.1112515926361084,-29.21236801147461,-98.780029296875, 9.961875915527344
662,4033593701,0.024520034,0.7445766,-0.3133277,0.5889233,11.368966102600098,-2.5133934020996094,-0.7682580947875977,-19.761720657348633,-110.08488464355469, 11.760538101196289
663,4033610368,0.019637804,0.7539174,-0.31616685,0.57555366,12.43967342376709,-2.8716983795166016,-0.17686191201210022,-13.967445373535156,-119.80956268310547, 12.263323783874512
664,4033627035,0.015676977,0.7638368,-0.31967178,0.56046253,13.957866668701172,-3.1464762687683105,0.7151062488555908,-25.06128692626953,-129.1803741455078, 10.597451210021973
665,4033643702,0.0114202,0.7744354,-0.32276413,0.54400676,16.3101749420166,-3.5834178924560547,1.6487904787063599,-24.867704391479492,-139.67105102539062, 7.953738212585449
666,4033660369,0.007949973,0.78522164,-0.32679668,0.52589756,16.130727767944336,-1.2772616147994995,3.3113150596618652,-36.26052474975586,-147.642333984375, 9.501738548278809
667,4033677036,0.0061291796,0.79664767,-0.33044693,0.5060832,18.65801239013672,-1.374854564666748,5.555061340332031,-47.617549896240234,-155.59605407714844, 0.0075372387655079365
668,4033693703,0.007232367,0.80767226,-0.33524972,0.4849965,19.345624923706055,-0.16703274846076965,9.177750587463379,-70.59567260742188,-154.79681396484375, -2.9243977069854736
669,4033710370,0.015853621,0.8175988,-0.34398854,0.4614686,15.432799339294434,-1.2174687385559082,5.405053615570068,-131.20040893554688,-147.85812377929688, -3.6609947681427
670,4033727037,0.028534606,0.82818955,-0.35517853,0.4325931,11.560956001281738,-8.921029090881348,-2.563373565673828,-174.42527770996094,-170.91661071777344, -4.90457010269165
671,4033743704,0.035331067,0.83926094,-0.36047345,0.40552723,13.908782005310059,-8.726661682128906,-0.29383718967437744,-118.92196655273438,-175.3102264404297, -21.890077590942383
672,4033760371,0.038935665,0.84978867,-0.36225325,0.38094187,10.532328605651855,-7.936517715454102,-1.887034296989441,-84.76982879638672,-166.65187072753906, -31.385087966918945
673,4033777038,0.040218197,0.8584957,-0.3638398,0.3591503,12.304811477661133,-8.88853931427002,-4.179339408874512,-64.28946685791016,-151.35418701171875, -21.2109317779541
674,4033793705,0.0360032,0.86476684,-0.36294594,0.34518498,9.650232315063477,-7.982073783874512,-0.12225955724716187,-6.89982271194458,-112.26744079589844, -14.055233001708984
675,4033810372,0.0295562,0.8687064,-0.36050206,0.33840024,6.306111812591553,-6.765520095825195,-2.165964365005493,27.29932403564453,-69.30555725097656, -10.403701782226562
676,4033827039,0.017071426,0.8704886,-0.35408223,0.34144497,6.810887336730957,-2.125077724456787,5.035161972045898,96.46802520751953,-19.74711799621582, -12.762434005737305
677,4033843706,0.0068038516,0.8700266,-0.34677303,0.35036626,4.610471248626709,-0.9517837762832642,3.8227615356445312,99.29607391357422,26.098154067993164, -17.082645416259766
678,4033860373,0.0009220766,0.8674608,-0.33932588,0.3638257,3.8313827514648438,-1.1557198762893677,2.188209295272827,84.10556030273438,68.72541809082031, -23.201454162597656
679,4033877040,-0.0029964987,0.86275405,-0.3314682,0.38180596,4.805774211883545,-3.3376035690307617,0.1955842822790146,83.95238494873047,105.60870361328125, -25.50942039489746
680,4033893707,-0.008199132,0.8558275,-0.32157776,0.40506816,4.636163711547852,-3.8894171714782715,-0.5171772241592407,108.96516418457031,139.79806518554688, -29.23904037475586
681,4033910374,-0.013928622,0.84628624,-0.30983827,0.43313554,4.805974006652832,-3.2266409397125244,-0.4845500588417053,127.97074127197266,174.10118103027344, -33.14496994018555
682,4033927041,-0.019666761,0.8339471,-0.29572463,0.46550304,5.183724403381348,-2.5574471950531006,-0.8028282523155212,144.5038604736328,207.23318481445312, -41.37371063232422
683,4033943708,-0.023228573,0.81885844,-0.27968135,0.5007098,5.7025532722473145,-1.5189226865768433,-0.9159094095230103,144.35264587402344,236.50242614746094, -54.19084167480469
684,4033960375,-0.022252247,0.80065286,-0.26324943,0.5377361,6.921239852905273,-1.1130485534667969,-1.1963045597076416,124.15211486816406,266.1630859375, -66.29045104980469
685,4033977042,-0.016305216,0.77910507,-0.24753767,0.5757214,9.078455924987793,-1.2246553897857666,-1.879225492477417,96.3792724609375,292.93310546875, -74.7909164428711
686,4033993709,-0.005378457,0.7542769,-0.23390594,0.6134542,12.03293514251709,-1.5806198120117188,-2.647162914276123,61.44373321533203,313.287841796875, -77.75763702392578
687,4034010376,0.009319958,0.7263666,-0.22329961,0.6499559,14.03965950012207,-2.556487560272217,-3.300687074661255,27.230207443237305,326.11566162109375, -72.97329711914062
688,4034027043,0.024403758,0.6957262,-0.21430412,0.6851598,15.443185806274414,-3.771531581878662,-4.13864278793335,16.014312744140625,332.35101318359375, -62.57412338256836
689,4034043710,0.03770677,0.6633082,-0.20476082,0.71880037,16.326950073242188,-3.592872381210327,-4.391790390014648,24.523035049438477,330.79754638671875, -54.48869705200195
690,4034060377,0.04926189,0.63004094,-0.19489895,0.75009114,16.304866790771484,-3.2089085578918457,-4.032681465148926,30.595483779907227,321.99774169921875, -46.7464485168457
691,4034077044,0.05805986,0.5968011,-0.18398035,0.77885133,16.723817825317383,-2.9506568908691406,-4.224743366241455,44.67618179321289,307.67596435546875, -38.011016845703125
