PacketCounter,SampleTimeFine,Quat_W,Quat_X,Quat_Y,Quat_Z,Acc_X,Acc_Y,Acc_Z,Gyr_X,Gyr_Y,Gyr_Z 
1,436981631,0.64591384,0.30233577,-0.64952004,0.26365182,0.009224963374435902,-0.040705520659685135,0.08302497863769531,-0.0010599102824926376,0.0013130151201039553, -0.08248216658830643
2,436998298,0.6457849,0.30173153,-0.6495516,0.2645807,9.810672760009766,0.5625026226043701,-0.2436683028936386,0.8418958783149719,5.4330620765686035, 1.8863688707351685
3,437014965,0.6464411,0.3014799,-0.64884764,0.26499185,9.775115966796875,0.529787003993988,-0.09768612682819366,-1.7049353122711182,7.681948184967041, 3.358203411102295
4,437031632,0.64756435,0.30117083,-0.6476469,0.26553738,9.617874145507812,0.4937257468700409,-0.15988197922706604,-0.6659687161445618,7.25036096572876, 3.179426670074463
5,437048299,0.6483066,0.3011153,-0.64672714,0.26603043,9.649954795837402,0.46185213327407837,-0.13503259420394897,1.1981302499771118,5.125876426696777, 2.138615608215332
6,437064966,0.64872086,0.30124,-0.6460744,0.26646492,9.767766952514648,0.4401625394821167,-0.15272106230258942,2.7532432079315186,2.8935112953186035, 1.013821005821228
7,437081633,0.648857,0.30147913,-0.64568967,0.2667959,9.77008056640625,0.48585790395736694,-0.10822698473930359,3.094545602798462,1.0011683702468872, 0.1468183845281601
8,437098300,0.64881915,0.30185694,-0.64544475,0.26705298,9.79198932647705,0.497626394033432,-0.0615389421582222,3.1692702770233154,-0.6464900970458984, -0.2075524926185608
9,437114967,0.6487036,0.3022941,-0.64529675,0.26719716,9.785717010498047,0.5208628177642822,-0.124102883040905,3.255687952041626,-1.9330415725708008, -0.6170867681503296
10,437131634,0.6484497,0.3028396,-0.6452807,0.26723394,9.712342262268066,0.536046028137207,-0.17405378818511963,4.225192546844482,-3.148646116256714, -0.9593236446380615
11,437148301,0.6480372,0.3035893,-0.64531064,0.26731193,9.725308418273926,0.5759537816047668,-0.1871347725391388,4.471048831939697,-3.9185380935668945, -1.1785427331924438
12,437164968,0.64754075,0.30433923,-0.6455094,0.26718217,9.70781135559082,0.5349524021148682,-0.18120335042476654,4.505601406097412,-5.105828762054443, -1.4464775323867798
13,437181635,0.64686304,0.30519128,-0.6458825,0.26695007,9.769168853759766,0.4941508173942566,-0.2561567425727844,5.434344291687012,-6.904891490936279, -1.768723964691162
14,437198302,0.64597523,0.30623153,-0.6463527,0.26677075,9.797882080078125,0.5159816741943359,-0.227225661277771,6.224586486816406,-8.26292896270752, -2.009291410446167
15,437214969,0.64506143,0.30728307,-0.64675796,0.2667905,9.833090782165527,0.5661295652389526,-0.20168612897396088,5.396103382110596,-7.752082824707031, -1.3557188510894775
16,437231636,0.6444583,0.30760533,-0.64740384,0.26630968,9.752684593200684,0.6358262896537781,-0.20933601260185242,4.370417594909668,-6.963467597961426, -0.5449487566947937
17,437248303,0.6438115,0.30810586,-0.64785814,0.26619053,9.737869262695312,0.6185230612754822,-0.25190073251724243,3.1492297649383545,-6.165119647979736, 0.17088158428668976
18,437264970,0.64333165,0.3082731,-0.6484081,0.26581743,9.74283218383789,0.5857493877410889,-0.265623539686203,2.869717836380005,-5.639725208282471, 0.38590022921562195
19,437281637,0.6428325,0.30848464,-0.648904,0.26556975,9.748808860778809,0.5512076616287231,-0.29012131690979004,2.7036702632904053,-5.370944499969482, 0.6596230864524841
20,437298304,0.64229155,0.30882618,-0.6493078,0.26549512,9.757458686828613,0.5399180054664612,-0.3203646242618561,2.4450204372406006,-5.1132426261901855, 0.7022554278373718
21,437314971,0.6418058,0.30902243,-0.6497678,0.26531538,9.734546661376953,0.5456293821334839,-0.33365491032600403,2.1298177242279053,-4.996333599090576, 0.7870078086853027
22,437331638,0.64137214,0.30914828,-0.6501993,0.26516053,9.795312881469727,0.5761382579803467,-0.3466881513595581,1.471571445465088,-4.458159923553467, 1.008673071861267
23,437348305,0.6413313,0.30887356,-0.65036833,0.26516482,9.944169998168945,0.5685768723487854,-0.17067354917526245,-1.3096797466278076,-0.5348699688911438, 2.256613254547119
24,437364972,0.6418616,0.30790502,-0.6502925,0.26519406,9.753983497619629,0.580214262008667,-0.3672609329223633,-4.149642467498779,4.292080879211426, 3.845344066619873
25,437381639,0.642331,0.3070532,-0.650221,0.2652204,9.669581413269043,0.5670329928398132,-0.428993284702301,-2.949673891067505,3.8624916076660156, 3.4088776111602783
26,437398306,0.64253175,0.3065885,-0.65017843,0.26537627,9.632888793945312,0.5759597420692444,-0.4390448033809662,-1.9950498342514038,2.1140143871307373, 2.859651565551758
27,437414973,0.6424748,0.30667475,-0.6499999,0.26585144,9.628913879394531,0.5477610230445862,-0.3571627736091614,-0.6549167037010193,1.1697256565093994, 2.1072654724121094
28,437431640,0.6425182,0.3063528,-0.6501494,0.26575193,9.704627990722656,0.569868803024292,-0.28272536396980286,0.12800587713718414,0.02217419631779194, 1.6891000270843506
29,437448307,0.6424508,0.30613804,-0.6503207,0.26574332,9.876908302307129,0.5636308789253235,-0.2885456085205078,0.08414410799741745,-0.6534695625305176, 1.898201823234558
30,437464974,0.6423542,0.30592957,-0.65045947,0.2658774,9.866887092590332,0.5240893959999084,-0.33280813694000244,-0.39223283529281616,-0.43223991990089417, 2.519822120666504
31,437481641,0.64227766,0.30562264,-0.6506501,0.26594874,9.781980514526367,0.4928380846977234,-0.43169087171554565,-0.3386511206626892,-0.4738861620426178, 2.698547840118408
32,437498308,0.6421137,0.30556005,-0.6507252,0.26623273,9.676342010498047,0.5178725719451904,-0.4487361013889313,-0.15071791410446167,-0.4013766050338745, 2.5016627311706543
33,437514975,0.6419653,0.30547985,-0.650836,0.26641133,9.693645477294922,0.5185710787773132,-0.3705926835536957,-0.18857352435588837,-0.5919607281684875, 2.1278135776519775
34,437531642,0.6417653,0.3054644,-0.65096104,0.26660624,9.792576789855957,0.48309895396232605,-0.34314095973968506,-0.5517744421958923,-0.9936831593513489, 2.052147150039673
35,437548309,0.64164597,0.3052322,-0.6512154,0.2665376,9.785980224609375,0.4173964858055115,-0.40220123529434204,0.21768875420093536,-1.214042067527771, 1.8448891639709473
36,437564976,0.64152956,0.3050089,-0.6514796,0.26642796,9.725458145141602,0.43800458312034607,-0.383312463760376,1.6527810096740723,-1.25741708278656, 1.536832332611084
37,437581643,0.6412913,0.3051313,-0.65154135,0.26670974,9.7775297164917,0.5275295376777649,-0.3190467357635498,1.509081244468689,-0.8939856886863708, 1.6236978769302368
38,437598310,0.6409787,0.30543503,-0.65150756,0.26719642,9.723616600036621,0.5340225100517273,-0.33069971203804016,0.9377002716064453,-0.8413388133049011, 1.7496100664138794
39,437614977,0.6407429,0.3055811,-0.65152967,0.2675409,9.699403762817383,0.498636931180954,-0.3578207790851593,0.5064078569412231,-0.7124939560890198, 1.7736855745315552
40,437631644,0.6406521,0.3053198,-0.6517885,0.26742578,9.718127250671387,0.44124144315719604,-0.38061562180519104,0.21336019039154053,-1.1395602226257324, 1.647735357284546
41,437648311,0.6404997,0.3052417,-0.651952,0.26748157,9.791668891906738,0.4126678705215454,-0.39020538330078125,1.1676510572433472,-1.011189341545105, 1.5062381029129028
42,437664978,0.64045227,0.30501235,-0.65204126,0.26763874,9.845006942749023,0.47599485516548157,-0.30794408917427063,-0.16063006222248077,0.23808927834033966, 2.293290615081787
43,437681645,0.6404584,0.30483925,-0.65197515,0.26798266,9.707382202148438,0.5053814053535461,-0.3767666518688202,-0.6686707735061646,1.3564549684524536, 2.4986660480499268
44,437698312,0.6405417,0.30445063,-0.6520434,0.26805922,9.70043659210205,0.49479880928993225,-0.3633265793323517,-0.7653715014457703,1.0508953332901, 2.344503402709961
45,437714979,0.6405164,0.30432478,-0.65201896,0.2683216,9.70023250579834,0.4845218360424042,-0.3752746284008026,-0.3416862487792969,0.7967278361320496, 2.0656964778900146
46,437731646,0.6405513,0.30405515,-0.65209603,0.26835683,9.689621925354004,0.47139662504196167,-0.38351526856422424,0.027495235204696655,0.5057228207588196, 1.7307014465332031
47,437748313,0.64043957,0.30408767,-0.6520903,0.26860064,9.762661933898926,0.4854300320148468,-0.34480634331703186,0.30235153436660767,-0.0008580255089327693, 1.47922945022583
48,437764980,0.6403327,0.30407673,-0.6521358,0.26875743,9.78915786743164,0.4651849865913391,-0.3433937728404999,-0.1358753889799118,-0.301423043012619, 1.3832203149795532
49,437781647,0.6401805,0.30411297,-0.6522112,0.26889548,9.814325332641602,0.4173412322998047,-0.3824835419654846,0.15515534579753876,-0.761811375617981, 1.2297362089157104
50,437798314,0.6400982,0.30397767,-0.65237457,0.26884812,9.76260757446289,0.4627799689769745,-0.3767951428890228,0.5208021998405457,-0.815790057182312, 1.1463924646377563
51,437814981,0.64005816,0.3037314,-0.6526136,0.26864168,9.756500244140625,0.4663698375225067,-0.3908810615539551,0.6799083352088928,-1.0249178409576416, 0.9658613204956055
52,437831648,0.6397844,0.3040018,-0.65263385,0.26893887,9.704183578491211,0.4772717356681824,-0.40530267357826233,0.8266307711601257,-1.2120954990386963, 1.0318013429641724
53,437848315,0.63972294,0.3037425,-0.65292853,0.2686627,9.7026948928833,0.49440237879753113,-0.3804560601711273,1.0819764137268066,-1.4468356370925903, 0.8466213345527649
54,437864982,0.6393516,0.30413535,-0.65299785,0.26893288,9.695588111877441,0.4919772148132324,-0.375563383102417,1.1173220872879028,-2.1513259410858154, 0.6666793823242188
55,437881649,0.6390079,0.3043573,-0.6532148,0.26897222,9.678281784057617,0.4713163673877716,-0.4121890366077423,1.5378824472427368,-2.748767614364624, 0.5873439908027649
56,437898316,0.6386994,0.3044399,-0.653545,0.26880953,9.752147674560547,0.4753338098526001,-0.4143896698951721,1.9971693754196167,-3.1646924018859863, 0.4115384817123413
57,437914983,0.63830435,0.30474785,-0.6537618,0.26887158,9.717388153076172,0.48696181178092957,-0.3995474874973297,1.7988632917404175,-3.0973312854766846, 0.4119354784488678
58,437931650,0.63780606,0.30532607,-0.653839,0.26920995,9.760757446289062,0.49438193440437317,-0.4084418714046478,1.515458583831787,-2.990884304046631, 0.4434390366077423
59,437948317,0.63755506,0.30545765,-0.6540109,0.26923814,9.730030059814453,0.4764239192008972,-0.38634228706359863,0.673261821269989,-2.0010948181152344, 0.7058027982711792
60,437964984,0.6372902,0.3057277,-0.65407693,0.2693982,9.741674423217773,0.44870659708976746,-0.42419230937957764,0.7736507654190063,-1.6346280574798584, 0.5230817794799805
61,437981651,0.6370932,0.30589917,-0.6541613,0.2694645,9.757845878601074,0.46346521377563477,-0.44627368450164795,1.102236032485962,-1.3744031190872192, 0.40890035033226013
62,437998318,0.63694185,0.30601475,-0.6542488,0.2694788,9.759607315063477,0.5125870108604431,-0.4480603337287903,1.153922438621521,-1.1635721921920776, 0.3279898166656494
63,438014985,0.63683695,0.3060198,-0.6543602,0.26945037,9.792620658874512,0.5130959749221802,-0.42277997732162476,0.5444042682647705,-0.9363874793052673, 0.5996509194374084
64,438031652,0.63671833,0.30613053,-0.65436894,0.26958343,9.71325969696045,0.4989633560180664,-0.4781739115715027,0.2694648206233978,-0.4705309271812439, 0.7217467427253723
65,438048319,0.6367211,0.30596003,-0.65450513,0.26944008,9.702448844909668,0.471290647983551,-0.4831812381744385,0.949148952960968,-0.40368175506591797, 0.6654114723205566
66,438064986,0.63669455,0.30588076,-0.65460646,0.26934642,9.723966598510742,0.51374751329422,-0.4637330174446106,1.0231313705444336,-0.467239648103714, 0.48377910256385803
67,438081653,0.63659817,0.3059484,-0.6546548,0.26938,9.754255294799805,0.5063834190368652,-0.43333330750465393,0.9985431432723999,-0.6073411703109741, 0.4697688817977905
68,438098320,0.6363688,0.30635592,-0.65453815,0.26974183,9.76906681060791,0.5212343335151672,-0.4018290042877197,0.6329089999198914,-0.5695111751556396, 0.4565783441066742
69,438114987,0.636292,0.30640137,-0.6545859,0.26975587,9.741781234741211,0.47085484862327576,-0.48393985629081726,0.4388544261455536,-0.5381484627723694, 0.4748658537864685
70,438131654,0.636119,0.30674067,-0.65447927,0.27003652,9.714445114135742,0.5114691853523254,-0.46709200739860535,0.6657188534736633,-0.3763529658317566, 0.2959355413913727
71,438148321,0.6360699,0.30678418,-0.6545147,0.2700168,9.736260414123535,0.5087586641311646,-0.4667166769504547,0.21835468709468842,-0.4225711524486542, 0.2667882740497589
72,438164988,0.63597256,0.30696395,-0.65447867,0.27012905,9.766733169555664,0.48998361825942993,-0.5135293006896973,0.6065535545349121,-0.33889442682266235, 0.2217995971441269
73,438181655,0.63609225,0.30664846,-0.65463114,0.26983586,9.770413398742676,0.5326510667800903,-0.4530443251132965,0.5570442080497742,0.05821126326918602, 0.4606764018535614
74,438198322,0.6361705,0.30646363,-0.654632,0.26985976,9.769683837890625,0.5278106331825256,-0.46756547689437866,-0.488293319940567,0.8343017101287842, 1.1788820028305054
75,438214989,0.6364876,0.30587244,-0.65465707,0.26972184,9.791224479675293,0.5113819241523743,-0.39863091707229614,-1.7241699695587158,2.2821364402770996, 1.8334786891937256
76,438231656,0.6367156,0.30557573,-0.6545235,0.26984432,9.695934295654297,0.5266507267951965,-0.4557186961174011,-1.9962152242660522,2.4538819789886475, 1.6281415224075317
77,438248323,0.63694793,0.30534607,-0.6543749,0.26991615,9.680856704711914,0.5024811625480652,-0.4740780293941498,-1.150420069694519,2.337190866470337, 1.037794589996338
78,438264990,0.6370674,0.3052436,-0.65429395,0.26994628,9.737641334533691,0.48384395241737366,-0.4509100317955017,-0.8424913287162781,1.2063132524490356, 0.6478027701377869
79,438281657,0.6371863,0.30510452,-0.6542964,0.26981676,9.72758674621582,0.48745471239089966,-0.5008370876312256,-0.2386847287416458,0.6312185525894165, 0.22269600629806519
80,438298324,0.6371118,0.30533025,-0.6541943,0.26998496,9.754491806030273,0.5228164792060852,-0.4463750422000885,0.30515608191490173,0.06682992726564407, 0.1557060033082962
81,438314991,0.6370956,0.3053764,-0.65418404,0.26999566,9.777229309082031,0.5549987554550171,-0.4174220561981201,0.10996170341968536,-0.012319707311689854, 0.29724177718162537
82,438331658,0.63721377,0.30525827,-0.65409076,0.27007645,9.804484367370605,0.5230333805084229,-0.4419930577278137,-0.9842447638511658,1.3853331804275513, 0.9531701803207397
83,438348325,0.63730395,0.30527928,-0.6538911,0.27032363,9.71329402923584,0.5187191367149353,-0.5065228343009949,-0.7968623042106628,1.7667577266693115, 0.9510571956634521
84,438364992,0.63740474,0.30520162,-0.65381646,0.27035406,9.673541069030762,0.5455166101455688,-0.48695316910743713,-0.46886613965034485,1.0734347105026245, 0.6108949184417725
85,438381659,0.6374723,0.30514038,-0.6537832,0.2703444,9.704529762268066,0.569755494594574,-0.45504483580589294,-0.4750130772590637,0.6387358903884888, 0.5142197608947754
86,438398326,0.6375872,0.30490214,-0.6538896,0.27008474,9.699049949645996,0.5506930351257324,-0.4229508936405182,-0.5258671045303345,0.12553423643112183, 0.3398997485637665
87,438414993,0.6376302,0.3047579,-0.6540125,0.2698484,9.72312068939209,0.5475602746009827,-0.37191125750541687,-0.45333197712898254,-0.4164368808269501, 0.21905900537967682
88,438431660,0.63747483,0.3050894,-0.6539404,0.2700156,9.741320610046387,0.5106716752052307,-0.43306082487106323,-0.14419950544834137,-0.6514974236488342, -0.0023307555820792913
89,438448327,0.63741577,0.3052192,-0.65394026,0.27000874,9.729561805725098,0.47352203726768494,-0.4583267271518707,0.01983063295483589,-0.44617319107055664, 0.02934574894607067
90,438464994,0.6373803,0.30545413,-0.653838,0.27007404,9.749463081359863,0.5592902302742004,-0.36293497681617737,0.164785698056221,0.038527898490428925, -0.3511756956577301
91,438481661,0.63731515,0.30557105,-0.65387225,0.2700129,9.803385734558105,0.5362192988395691,-0.4374064803123474,-0.5606107115745544,-0.7249417901039124, -0.04684562608599663
92,438498328,0.637321,0.3056177,-0.65387404,0.26994178,9.776514053344727,0.5301225185394287,-0.4637339413166046,-0.7954151630401611,-0.1464662253856659, 0.023557281121611595
93,438514995,0.63723737,0.30586937,-0.65377414,0.27009624,9.823644638061523,0.46109461784362793,-0.4582013785839081,-0.5535800457000732,-0.0814996063709259, 0.13431939482688904
94,438531662,0.6371866,0.3060128,-0.6537515,0.27010822,9.772672653198242,0.4783499240875244,-0.45960700511932373,-0.6954872608184814,-0.32521724700927734, 0.048555273562669754
95,438548329,0.6375129,0.30562013,-0.65361744,0.27010724,9.9454345703125,0.5465677976608276,-0.30829039216041565,-2.887063503265381,2.8576667308807373, 1.4348810911178589
96,438564996,0.63842374,0.3045029,-0.65322876,0.27015817,10.042256355285645,0.609542191028595,-0.06051944941282272,-7.485660076141357,8.012046813964844, 3.3395707607269287
97,438581663,0.64078116,0.3018862,-0.65195894,0.27058056,9.8541898727417,0.4363217353820801,-0.30075159668922424,-13.940134048461914,21.905376434326172, 7.184042453765869
98,438598330,0.64230126,0.3001298,-0.65120226,0.2707525,9.360389709472656,0.5819220542907715,-0.5893128514289856,-8.557621002197266,13.8318510055542, 4.779071807861328
99,438614997,0.64318013,0.2993951,-0.6504543,0.2712774,9.523033142089844,0.6184170842170715,-0.34625980257987976,-4.643994331359863,9.65848159790039, 3.083648204803467
100,438631664,0.64364815,0.2990344,-0.65005136,0.27153036,9.706340789794922,0.5234493017196655,-0.32870790362358093,-3.612441301345825,5.058438777923584, 1.6853095293045044
101,438648331,0.64396274,0.29886872,-0.64979184,0.27158815,9.693922996520996,0.4740108549594879,-0.29221537709236145,-1.6780799627304077,3.039247751235962, 0.4922056496143341
102,438664998,0.6440675,0.2989223,-0.6496943,0.27151394,9.733002662658691,0.48798567056655884,-0.313517302274704,-0.585890531539917,0.7267283201217651, -0.3559012711048126
103,438681665,0.6440255,0.2992862,-0.6495466,0.27156624,9.7243013381958,0.4975026547908783,-0.3227115571498871,0.2948470115661621,-0.06757911294698715, -0.9713872671127319
104,438698332,0.6439641,0.29965234,-0.64948195,0.27146226,9.734049797058105,0.5079735517501831,-0.26689714193344116,1.0730373859405518,-0.7895625829696655, -1.4965497255325317
105,438714999,0.6438277,0.3001437,-0.64942527,0.27137917,9.784624099731445,0.5074434876441956,-0.25124070048332214,1.4738636016845703,-1.361609697341919, -1.7904430627822876
106,438731666,0.6436392,0.30064115,-0.6494514,0.27121302,9.795931816101074,0.5532950162887573,-0.26762351393699646,2.2108306884765625,-2.1048519611358643, -1.937447190284729
107,438748333,0.6433625,0.30120832,-0.64948964,0.27114868,9.779340744018555,0.6298600435256958,-0.27206772565841675,1.9501063823699951,-2.5116329193115234, -1.5709805488586426
108,438765000,0.6430871,0.3016701,-0.64960754,0.27100626,9.6792573928833,0.6504555940628052,-0.304342120885849,1.8394975662231445,-2.7920658588409424, -1.2903293371200562
109,438781667,0.64278543,0.3022374,-0.64962685,0.2710433,9.662060737609863,0.6649914979934692,-0.3135164976119995,1.4521822929382324,-2.3613882064819336, -1.0589314699172974
110,438798334,0.6425079,0.3026773,-0.6497421,0.27093416,9.643381118774414,0.6344913244247437,-0.30165356397628784,1.717311978340149,-2.6796770095825195, -1.0095628499984741
111,438815001,0.64217305,0.30321535,-0.64984906,0.2708697,9.699235916137695,0.5965035557746887,-0.26774752140045166,2.0066206455230713,-3.0056118965148926, -1.1335541009902954
112,438831668,0.6421492,0.3032509,-0.649893,0.27078125,10.177252769470215,0.5534794926643372,0.1981167197227478,-1.1825511455535889,-0.4653571844100952, 0.31447914242744446
113,438848335,0.6441604,0.29958987,-0.64966553,0.2706256,10.306114196777344,0.28549689054489136,0.09374746680259705,-21.29245376586914,16.538740158081055, 12.177820205688477
114,438865002,0.6453268,0.29719347,-0.6496707,0.2704766,9.140752792358398,0.5175915360450745,-0.6667968034744263,-15.3992338180542,9.332441329956055, 8.61683464050293
115,438881669,0.6458968,0.29593757,-0.64968926,0.2704479,9.480057716369629,0.7661802768707275,-0.35432982444763184,-7.520378112792969,4.803247451782227, 5.176283836364746
116,438898336,0.6461969,0.2953337,-0.6497081,0.2703463,9.66176986694336,0.5353778600692749,-0.24666328728199005,-6.062783241271973,2.1951050758361816, 2.5007669925689697
117,438915003,0.6463388,0.29517066,-0.6496703,0.27027568,9.805818557739258,0.5208849906921387,-0.21434494853019714,-2.4383931159973145,1.0214921236038208, 0.8369910717010498
118,438931670,0.6462885,0.2954631,-0.6495512,0.27036282,9.86263656616211,0.5664390325546265,-0.1918567568063736,-0.5018167495727539,-0.04128767177462578, -0.2713025212287903
119,438948337,0.6464359,0.29511383,-0.64962584,0.27021247,9.98362922668457,0.35878732800483704,-0.14832966029644012,-3.4320380687713623,0.7439401745796204, 1.5462963581085205
120,438965004,0.64644784,0.29459646,-0.6498154,0.27029306,9.724149703979492,0.4961850941181183,-0.3296044170856476,-4.973769187927246,0.34885138273239136, 3.8385560512542725
121,438981671,0.64656746,0.29410318,-0.64991176,0.27031243,9.585604667663574,0.7057095766067505,-0.19754469394683838,-4.135875225067139,1.1181674003601074, 3.0582783222198486
122,438998338,0.6468005,0.29350215,-0.6500989,0.2699581,9.663935661315918,0.5915703773498535,-0.22562822699546814,-4.133877754211426,0.7404696345329285, 1.8290224075317383
123,439015005,0.6469624,0.2933551,-0.6501122,0.2696976,9.732705116271973,0.45999911427497864,-0.11491074413061142,-2.9249703884124756,0.4958042502403259, 0.04348396509885788
124,439031672,0.64689034,0.29379025,-0.6500134,0.26963493,9.892149925231934,0.39677363634109497,-0.01020254846662283,-0.16406214237213135,-0.7779473066329956, -1.4408551454544067
125,439048339,0.6466614,0.2945167,-0.649974,0.26948634,9.847951889038086,0.46972963213920593,-0.13818134367465973,1.937491774559021,-2.4404802322387695, -2.729865550994873
126,439065006,0.646518,0.2951969,-0.64990294,0.26925716,9.880338668823242,0.543309211730957,-0.11981935799121857,2.030658006668091,-1.9748798608779907, -3.11287784576416
127,439081673,0.64639354,0.29543167,-0.65004295,0.26896054,9.76315689086914,0.491534948348999,-0.3396756947040558,-1.216603398323059,-2.162569999694824, -1.009332537651062
128,439098340,0.64634407,0.29562885,-0.6501071,0.2687074,9.623251914978027,0.6184558868408203,-0.30594590306282043,-1.3797305822372437,-1.3292735815048218, -0.9311113357543945
129,439115007,0.6463474,0.29583204,-0.65013176,0.26841623,9.632555961608887,0.656964898109436,-0.2682531177997589,-1.1410073041915894,-0.98526930809021, -1.2989095449447632
130,439131674,0.64639574,0.2961509,-0.6500522,0.26814067,9.734577178955078,0.5784887075424194,-0.1887965053319931,-0.6449150443077087,-0.5054282546043396, -2.0211877822875977
131,439148341,0.64630294,0.29680732,-0.6499386,0.26791406,9.962653160095215,0.35836419463157654,-0.07931927591562271,1.5530836582183838,-1.5048484802246094, -3.1136975288391113
132,439165008,0.64612275,0.29766965,-0.64979774,0.2677334,10.248321533203125,0.22128300368785858,0.08972284197807312,3.150881052017212,-2.0603113174438477, -3.7355995178222656
133,439181675,0.64606655,0.29813647,-0.64969474,0.26759967,9.902514457702637,0.3667345643043518,-0.18564754724502563,0.7729208469390869,-0.8906304836273193, -1.9167776107788086
134,439198342,0.6461916,0.29779306,-0.6498345,0.26734027,9.46548080444336,0.5568311810493469,-0.370940625667572,-3.36230731010437,0.10295025259256363, 1.2835164070129395
135,439215009,0.64623183,0.29743737,-0.6500293,0.2671658,9.391371726989746,0.8680086731910706,-0.2687501013278961,-3.5279195308685303,-0.3356160819530487, 2.0039570331573486
136,439231676,0.6461666,0.29724756,-0.6502928,0.2668931,9.46008014678955,1.090986728668213,-0.15319444239139557,-2.9998748302459717,-1.6093356609344482, 1.1852340698242188
137,439248343,0.6461028,0.29709008,-0.6506544,0.2663415,9.47402572631836,1.0269780158996582,-0.18300381302833557,-2.8553426265716553,-2.6191296577453613, 0.009995357133448124
138,439265010,0.6459765,0.2971538,-0.65095586,0.26583946,9.605372428894043,0.8778322339057922,-0.17107810080051422,-3.0119762420654297,-2.998222589492798, -0.6928490996360779
139,439281677,0.6458314,0.29732987,-0.65126914,0.26522756,9.7423734664917,0.6737105250358582,-0.26044267416000366,-2.1885411739349365,-3.5388684272766113, -1.6173394918441772
140,439298344,0.6455215,0.29798716,-0.6514492,0.26480165,9.851552963256836,0.577045202255249,-0.3425824046134949,-0.3353727459907532,-4.247918128967285, -2.862680673599243
141,439315011,0.6451942,0.29877782,-0.6516069,0.2643197,9.92080307006836,0.6119009256362915,-0.34770724177360535,0.765518844127655,-4.553068161010742, -3.734204053878784
142,439331678,0.6449202,0.29958707,-0.6517147,0.26380596,9.904125213623047,0.6688563823699951,-0.34122055768966675,0.4832540452480316,-4.195937156677246, -4.144686222076416
143,439348345,0.64469135,0.3004838,-0.65173066,0.2633056,9.87418270111084,0.7053655385971069,-0.4999905824661255,1.8886231184005737,-3.676447629928589, -4.764552116394043
144,439365012,0.6444433,0.3015322,-0.65165854,0.26289257,9.82369613647461,0.7514790296554565,-0.5732694268226624,2.80188250541687,-3.4686005115509033, -5.18306303024292
145,439381679,0.64416975,0.30252713,-0.65159357,0.26258063,9.720568656921387,0.8075641393661499,-0.5927656292915344,2.510345458984375,-3.316998243331909, -4.4044108390808105
146,439398346,0.6439292,0.30347884,-0.651494,0.26231927,9.625580787658691,0.7382364869117737,-0.5172806978225708,3.228628396987915,-2.7827048301696777, -4.124938488006592
147,439415013,0.6436078,0.3045857,-0.65136695,0.26214075,9.858809471130371,0.6154819130897522,-0.42699164152145386,4.7594733238220215,-3.1042721271514893, -4.3639302253723145
148,439431680,0.6433399,0.30582294,-0.6510685,0.26209915,10.083362579345703,0.504417359828949,-0.055530447512865067,4.767696380615234,-2.119105815887451, -4.74940299987793
149,439448347,0.6437594,0.30636832,-0.6503374,0.26224744,9.899394989013672,0.5312530994415283,-0.0768914744257927,3.0604169368743896,4.5593109130859375, -3.0106961727142334
150,439465014,0.6445202,0.30682912,-0.6492556,0.26252034,9.611846923828125,0.7616215348243713,-0.2041563093662262,3.0542831420898438,8.029026985168457, -3.4394021034240723
151,439481681,0.64521474,0.30745888,-0.64811575,0.26289368,9.461198806762695,0.8333917856216431,-0.2953146696090698,4.28896951675415,7.878180980682373, -3.7376115322113037
152,439498348,0.6457504,0.30811435,-0.6471505,0.26318872,9.490351676940918,0.8865917921066284,-0.3603857755661011,4.642424583435059,6.217272758483887, -3.5492169857025146
153,439515015,0.646214,0.30857125,-0.64638466,0.26339778,9.56648063659668,0.9314441084861755,-0.2950877249240875,3.1697957515716553,5.194850921630859, -2.4800264835357666
154,439531682,0.64650685,0.30865288,-0.64598095,0.2635736,9.570998191833496,1.0408873558044434,-0.2825232148170471,-1.1079797744750977,3.310985565185547, 0.1892586350440979
155,439548349,0.64698404,0.30798477,-0.64587414,0.2634458,9.649465560913086,0.991081178188324,-0.15351174771785736,-5.134885311126709,3.6173267364501953, 2.446890115737915
156,439565016,0.64746886,0.3070426,-0.64591235,0.26326105,9.747915267944336,0.8729887008666992,-0.20839856564998627,-6.713101863861084,3.3853907585144043, 3.717907667160034
157,439581683,0.647966,0.30606475,-0.64584005,0.26335368,9.590852737426758,0.7666449546813965,-0.6321521401405334,-5.981297492980957,4.5492329597473145, 4.87708854675293
158,439598350,0.6485236,0.30536044,-0.6455777,0.26344183,9.581932067871094,0.6841686367988586,-0.5002620816230774,-3.4313981533050537,5.2480621337890625, 3.113755702972412
159,439615017,0.64898276,0.3050566,-0.645193,0.2636058,9.89657974243164,0.6079347133636475,-0.2485034465789795,-1.7253868579864502,4.7615227699279785, 1.6130303144454956
160,439631684,0.6494289,0.3047722,-0.6447876,0.2638281,9.921862602233887,0.6453638076782227,-0.39999255537986755,-1.3461267948150635,4.883862018585205, 1.7620580196380615
161,439648351,0.6497572,0.30424654,-0.6446704,0.26391256,9.787152290344238,0.7118394374847412,-0.2856650948524475,-3.34098482131958,3.233558416366577, 3.0307700634002686
162,439665018,0.6500942,0.30371687,-0.64459205,0.2638843,9.755967140197754,0.9621173143386841,-0.10484912991523743,-3.336848497390747,2.909865617752075, 2.602679491043091
163,439681685,0.65039426,0.3033675,-0.6444376,0.26392394,9.833592414855957,0.8472657203674316,0.1715606302022934,-3.243746042251587,2.8292877674102783, 2.0519165992736816
164,439698352,0.65055776,0.30327722,-0.6443003,0.2639599,9.92742919921875,0.8920577168464661,0.10169998556375504,-1.1223613023757935,1.6882033348083496, 1.1702635288238525
165,439715019,0.65056294,0.30350664,-0.64419246,0.26394677,9.8349027633667,0.8118276596069336,-0.024872520938515663,0.697632372379303,0.17454417049884796, -0.10890520364046097
166,439731686,0.65031403,0.3035125,-0.64444375,0.26394016,9.905096054077148,0.5463842749595642,-0.3007267713546753,-1.9048293828964233,-2.228753089904785, 2.1515889167785645
167,439748353,0.65013677,0.30307823,-0.64486694,0.26384223,9.727372169494629,0.7404511570930481,-0.28585532307624817,-3.6823253631591797,-2.003848075866699, 3.8991305828094482
168,439765020,0.6499157,0.30261847,-0.6453063,0.2638398,9.597689628601074,1.1289254426956177,0.015794724225997925,-3.611506223678589,-2.034365653991699, 4.56130838394165
169,439781687,0.6498804,0.30200285,-0.645712,0.26363933,9.534598350524902,1.136714220046997,0.08188814669847488,-5.061851501464844,-1.1758280992507935, 3.9829227924346924
170,439798354,0.6497659,0.30177307,-0.64596784,0.26355857,9.582273483276367,0.7934688925743103,-0.04692758619785309,-3.1862967014312744,-1.367180347442627, 2.680234670639038
171,439815021,0.6494967,0.30192855,-0.6462911,0.2632513,9.777425765991211,0.7240892648696899,0.04883290082216263,-0.37418875098228455,-3.4321277141571045, 0.3537818491458893
172,439831688,0.6490868,0.30237037,-0.6466786,0.2628029,9.912779808044434,0.7708076238632202,0.08295653015375137,0.518932580947876,-5.165249824523926, -1.1577709913253784
173,439848355,0.6486566,0.30265546,-0.64719397,0.26226777,9.949386596679688,0.7053095698356628,-0.03311937302350998,-1.5348539352416992,-5.780850887298584, -0.5254445672035217
174,439865022,0.6482868,0.3025852,-0.64777315,0.2618328,9.723217010498047,0.8565611839294434,-0.3100172281265259,-3.8891100883483887,-5.010612964630127, 1.5487937927246094
175,439881689,0.6481205,0.30221564,-0.64834243,0.2612617,9.479795455932617,1.077370524406433,-0.28956350684165955,-5.744583606719971,-3.773122787475586, 1.889404296875
176,439898356,0.6481656,0.301522,-0.6489618,0.26041278,9.581734657287598,1.0630180835723877,-0.2767072319984436,-8.34510612487793,-3.013795852661133, 1.8315069675445557
177,439915023,0.6482231,0.30100447,-0.64945906,0.2596269,9.530244827270508,0.7160510420799255,-0.44535374641418457,-7.296304225921631,-2.609192132949829, 1.07906973361969
178,439931690,0.6481469,0.30110452,-0.6497059,0.2590829,9.664477348327637,0.5389118194580078,-0.40704667568206787,-3.1155288219451904,-2.700756549835205, -0.8675020933151245
179,439948357,0.64803386,0.30150002,-0.6498622,0.2585133,9.81560230255127,0.6933757662773132,-0.20302896201610565,-0.9113255739212036,-2.991499662399292, -2.45086669921875
180,439965024,0.64776236,0.30229962,-0.6499471,0.2580459,9.676636695861816,0.8271026015281677,-0.2079753279685974,0.41220441460609436,-3.968226909637451, -3.6296911239624023
181,439981691,0.6472186,0.30351362,-0.65023464,0.25726,9.668313026428223,0.9746902585029602,-0.24203766882419586,2.536189556121826,-7.403110027313232, -6.030178546905518
182,439998358,0.6462323,0.3053984,-0.6507909,0.25609964,10.006332397460938,0.8918740749359131,-0.14180254936218262,3.0879147052764893,-12.618095397949219, -9.299018859863281
183,440015025,0.64536995,0.30692077,-0.6515243,0.25458485,10.391707420349121,0.4512358009815216,-0.1980685442686081,-0.32298922538757324,-12.946998596191406, -9.100545883178711
184,440031692,0.6453808,0.3069102,-0.6519224,0.25354886,9.6843843460083,0.17888924479484558,-0.9513229131698608,-6.034609794616699,-3.85280442237854, -2.3729147911071777
185,440048359,0.64562154,0.30731162,-0.65176564,0.2528521,9.277225494384766,0.6761596202850342,-0.43593910336494446,-2.271449327468872,-0.33625632524490356, -4.3181986808776855
186,440065026,0.6455335,0.30819687,-0.6515813,0.25247413,10.004986763000488,0.7001979351043701,-0.148861363530159,1.9697898626327515,-1.8559092283248901, -4.560572624206543
187,440081693,0.64502597,0.30991608,-0.65126103,0.25249314,10.129682540893555,0.6471676826477051,0.025055525824427605,7.007272720336914,-3.862421989440918, -6.038824081420898
188,440098360,0.64427453,0.31203845,-0.6511031,0.25220475,10.00580883026123,0.9430120587348938,0.1289440095424652,9.202796936035156,-6.944235324859619, -8.51134967803955
189,440115027,0.6434869,0.31442457,-0.65097284,0.2515879,9.766942977905273,1.3412070274353027,-0.001505550928413868,9.15034294128418,-8.405109405517578, -11.029054641723633
190,440131694,0.642638,0.31739017,-0.6507107,0.25071013,9.575399398803711,1.2532782554626465,-0.33900755643844604,10.353199005126953,-9.72860050201416, -14.904473304748535
191,440148361,0.64131147,0.32084084,-0.65077895,0.24953502,9.842747688293457,0.9231993556022644,-0.4725990295410156,12.37785816192627,-14.755291938781738, -16.859851837158203
192,440165028,0.6401867,0.32409868,-0.65060425,0.24866728,9.537700653076172,0.7568055987358093,-0.8249550461769104,12.691675186157227,-11.787858009338379, -15.516754150390625
193,440181695,0.63999265,0.32613555,-0.6499897,0.24811018,10.068251609802246,0.8017285466194153,-0.6877942085266113,7.395369529724121,-2.890535354614258, -11.27375602722168
194,440198362,0.6405607,0.32638195,-0.6495205,0.24754778,9.400652885437012,1.0610140562057495,-1.082436442375183,-3.6630265712738037,2.809502363204956, -4.216837406158447
195,440215029,0.6410615,0.32533932,-0.6499212,0.24657108,8.852478981018066,1.3007649183273315,-1.0758546590805054,-10.928559303283691,0.12394629418849945, 1.6888827085494995
196,440231696,0.6410925,0.32423675,-0.6507055,0.24587263,8.77679443359375,1.8703100681304932,-0.9541672468185425,-10.338879585266113,-2.9901437759399414, 4.898117542266846
197,440248363,0.64123553,0.32318583,-0.6513566,0.24515823,8.80617618560791,2.209770441055298,-0.799369215965271,-9.795208930969238,-1.9624072313308716, 4.133615493774414
198,440265030,0.64158577,0.3217722,-0.65195817,0.24450189,8.766573905944824,1.9275542497634888,-1.1412897109985352,-11.383865356445312,-0.05194258689880371, 5.612456798553467
199,440281697,0.6422797,0.32016504,-0.6522529,0.24400322,9.1844482421875,1.7213870286941528,-0.7302796840667725,-13.219862937927246,3.4115817546844482, 6.050050735473633
200,440298364,0.643049,0.31848982,-0.65252346,0.24344528,9.925396919250488,1.0332472324371338,-0.49965906143188477,-12.778787612915039,3.953943967819214, 5.883874893188477
201,440315031,0.6435139,0.31766325,-0.65256834,0.24317624,10.429622650146484,0.6719681024551392,-0.03851950913667679,-5.8608903884887695,2.8676044940948486, 3.319053888320923
202,440331698,0.64347154,0.31752467,-0.6528149,0.24280727,10.075159072875977,0.8158358335494995,-0.2550339698791504,-2.7956135272979736,-1.7260911464691162, 1.0684785842895508
203,440348365,0.64315766,0.31768292,-0.65329593,0.2421367,9.910698890686035,1.3340239524841309,-0.1444006860256195,-3.4109976291656494,-5.224658489227295, -0.6058173179626465
204,440365032,0.64280677,0.31711513,-0.6545164,0.24051157,9.869425773620605,1.5878238677978516,-0.12881356477737427,-11.012931823730469,-9.465371131896973, 0.06461448222398758
205,440381699,0.6424227,0.31565088,-0.6562355,0.23877358,9.8316650390625,1.237345576286316,-0.5138174891471863,-17.441879272460938,-10.719968795776367, 4.838201522827148
206,440398366,0.64250517,0.3136272,-0.657565,0.23755707,9.713415145874023,1.3111382722854614,-0.7588387131690979,-17.54514503479004,-4.815757751464844, 8.037922859191895
207,440415033,0.64304566,0.31141803,-0.6582945,0.23698018,9.735302925109863,1.1885603666305542,-0.8688345551490784,-15.396987915039062,1.6005713939666748, 9.666492462158203
208,440431700,0.6434978,0.30991402,-0.6584884,0.23718552,9.959874153137207,0.44370776414871216,-0.9177157282829285,-7.458332538604736,4.125895023345947, 8.921913146972656
209,440448367,0.64346355,0.30983934,-0.6582614,0.23800483,10.357279777526855,-0.01617647521197796,-0.7700983285903931,4.172085285186768,2.8485488891601562, 4.982189655303955
210,440465034,0.6428489,0.31122437,-0.6578311,0.23904659,10.23029613494873,0.26825493574142456,-0.2682833969593048,12.704501152038574,-0.8257410526275635, -0.1514095515012741
211,440481701,0.6418166,0.31339607,-0.65750676,0.23987342,9.854085922241211,1.0071284770965576,-0.11919190734624863,15.766617774963379,-4.964015007019043, -3.7776846885681152
212,440498368,0.6406711,0.31549135,-0.657482,0.24025644,9.392800331115723,1.421882152557373,-0.4814188480377197,12.927873611450195,-7.670933246612549, -4.54445219039917
213,440515035,0.6394148,0.31713077,-0.65794355,0.24018212,9.22620677947998,1.8008313179016113,-0.5561972260475159,7.806980609893799,-10.598376274108887, -3.2065582275390625
214,440531702,0.63802457,0.31832415,-0.6589175,0.23962945,9.076020240783691,1.8641411066055298,-0.6401427984237671,3.3009350299835205,-13.750033378601074, -1.9216197729110718
215,440548369,0.6364243,0.31909537,-0.66035086,0.23891202,9.291977882385254,1.6478599309921265,-0.9661197066307068,0.717546820640564,-16.353607177734375, 0.6422197818756104
216,440565036,0.6351659,0.3192276,-0.66176176,0.23817936,9.449841499328613,1.3088310956954956,-0.9978587627410889,-3.184352397918701,-13.702254295349121, 2.922750473022461
217,440581703,0.6345131,0.31871223,-0.6628356,0.23762298,9.528425216674805,1.1417841911315918,-0.7636032700538635,-6.742265224456787,-8.083974838256836, 4.983356952667236
218,440598370,0.6339959,0.318189,-0.6637993,0.23701371,9.40034008026123,0.9092643857002258,-0.7229496240615845,-6.244941711425781,-7.009929180145264, 4.256749153137207
219,440615037,0.6333808,0.31818855,-0.6644767,0.2367611,9.67212963104248,1.001787543296814,-0.8504699468612671,-1.7878304719924927,-6.295742511749268, 2.963242292404175
220,440631704,0.6328934,0.31808552,-0.66504884,0.23659597,9.747316360473633,1.1641075611114502,-0.9480006694793701,-1.6475496292114258,-4.868896961212158, 3.346625566482544
221,440648371,0.6327264,0.3176059,-0.66550404,0.23640712,9.702006340026855,1.2618409395217896,-0.8208506107330322,-4.029979228973389,-2.339963674545288, 4.2034735679626465
222,440665038,0.632554,0.31704402,-0.66604096,0.23611043,9.779467582702637,0.9726687669754028,-0.8578844666481018,-4.901580333709717,-2.816372871398926, 4.2989325523376465
223,440681705,0.6323199,0.31684047,-0.6664693,0.23580156,9.91993236541748,0.7100208401679993,-0.5622864961624146,-4.015699863433838,-3.3149492740631104, 2.5463955402374268
224,440698372,0.63155556,0.3173715,-0.66708076,0.23540652,9.785269737243652,0.4064047634601593,-0.8079222440719604,-0.1221982091665268,-7.915580749511719, 0.02705341950058937
225,440715039,0.63072115,0.3182287,-0.66762394,0.23494641,9.718606948852539,0.6152790784835815,-0.8054311871528625,1.6878196001052856,-8.577131271362305, -1.8567802906036377
226,440731706,0.6300334,0.3189134,-0.6681579,0.23434477,9.627431869506836,1.0371416807174683,-0.5118473768234253,-0.41887015104293823,-7.934609413146973, -1.917572021484375
227,440748373,0.62937504,0.31950247,-0.66870505,0.23375003,9.311711311340332,1.2964826822280884,-0.6834893226623535,-0.5011382102966309,-7.675217628479004, -1.501877784729004
228,440765040,0.62832874,0.32067692,-0.6692869,0.23329037,9.198241233825684,1.4385144710540771,-0.9521085023880005,2.3856639862060547,-10.358162879943848, -2.787994623184204
229,440781707,0.62709004,0.32194516,-0.67006135,0.23265243,9.145484924316406,1.4133495092391968,-1.0692936182022095,3.539670944213867,-12.486263275146484, -3.3831708431243896
230,440798374,0.6257599,0.3230731,-0.67105764,0.2317972,9.299224853515625,1.3976216316223145,-0.9852731227874756,1.9204353094100952,-14.103002548217773, -3.0331990718841553
231,440815041,0.62430257,0.32404616,-0.6722724,0.23084703,9.431748390197754,1.2435795068740845,-1.3190997838974,0.44828030467033386,-15.621636390686035, -1.9897758960723877
232,440831708,0.6229007,0.32507524,-0.67346096,0.2297197,9.470473289489746,0.9794130921363831,-0.9149385094642639,-0.6656361818313599,-15.767435073852539, -3.0944907665252686
233,440848375,0.62123114,0.32628754,-0.6749311,0.22820288,9.841132164001465,0.9777962565422058,-0.824546754360199,-0.983477771282196,-19.332286834716797, -4.626223564147949
234,440865042,0.61918557,0.32795188,-0.6765547,0.22656278,9.899113655090332,0.8313647508621216,-1.2165318727493286,0.2490519881248474,-22.806669235229492, -6.229904651641846
235,440881709,0.6169541,0.32990345,-0.6782602,0.2247096,9.84448528289795,1.0199239253997803,-1.3742804527282715,1.3021464347839355,-24.900331497192383, -8.080109596252441
236,440898376,0.6144536,0.33230808,-0.6799919,0.22277607,9.622291564941406,1.0930657386779785,-1.3598604202270508,3.618489980697632,-27.12604331970215, -10.091638565063477
237,440915043,0.61159784,0.3351026,-0.68182474,0.22083834,9.625533103942871,1.2717336416244507,-1.4348716735839844,5.630159378051758,-29.85080337524414, -11.119383811950684
238,440931710,0.60842603,0.33789667,-0.68396205,0.21872307,9.541605949401855,1.576247215270996,-1.4584052562713623,4.611234188079834,-33.07280731201172, -10.60342025756836
239,440948377,0.6050479,0.34042582,-0.68648154,0.21626584,9.533304214477539,1.6873043775558472,-1.46088445186615,2.723430871963501,-35.94065856933594, -9.721373558044434
240,440965044,0.6012803,0.34295157,-0.68936574,0.21359132,9.82096004486084,1.5021860599517822,-1.6792843341827393,2.1088404655456543,-39.801509857177734, -9.167645454406738
241,440981711,0.5967208,0.34602922,-0.6927174,0.21054885,10.2039794921875,1.3917810916900635,-2.0711147785186768,3.9392082691192627,-47.15827178955078, -11.053238868713379
242,440998378,0.592424,0.34915796,-0.6956791,0.20773363,9.8984956741333,1.1184135675430298,-1.5086417198181152,5.2039690017700195,-43.83349609375, -11.681742668151855
243,441015045,0.5872093,0.35290998,-0.6991692,0.20445615,10.859220504760742,0.9532296061515808,-1.7312626838684082,7.234568119049072,-52.36762237548828, -14.038236618041992
244,441031712,0.58161753,0.3568311,-0.70292735,0.20071276,11.386176109313965,0.7258003354072571,-1.718942642211914,6.200135231018066,-56.66160583496094, -15.5809965133667
245,441048379,0.574974,0.3607059,-0.7078064,0.19572023,12.47750186920166,0.8115010261535645,-1.746037483215332,0.8592509031295776,-69.29177856445312, -16.15928840637207
246,441065046,0.5680012,0.36465645,-0.71308833,0.18948747,12.371450424194336,0.5528169870376587,-1.5596766471862793,-4.621232509613037,-75.7313003540039, -20.033367156982422
247,441081713,0.55957067,0.36961472,-0.7189398,0.18273307,12.626924514770508,0.31031477451324463,-1.9487109184265137,-0.29209575057029724,-87.79998779296875, -23.758392333984375
248,441098380,0.55010325,0.37589246,-0.72462934,0.17607912,13.318399429321289,0.46802768111228943,-1.1236507892608643,8.073354721069336,-93.79045104980469, -29.066465377807617
249,441115047,0.5405626,0.3824345,-0.7301316,0.16865343,13.154500007629395,0.43735504150390625,-0.06405805796384811,5.67355489730835,-95.89128875732422, -33.78435134887695
250,441131714,0.52963346,0.390183,-0.7358303,0.16062176,13.782487869262695,-0.11261864751577377,0.057588130235672,10.55875301361084,-106.77010345458984, -40.051719665527344
251,441148381,0.5177167,0.3989591,-0.7413463,0.15233777,14.837360382080078,-0.8753288984298706,1.0463519096374512,15.891654014587402,-113.12642669677734, -45.68400955200195
252,441165048,0.50845635,0.40433508,-0.74640816,0.14443007,16.98284339904785,-1.807768702507019,2.8306589126586914,-1.103830099105835,-93.65718841552734, -31.194190979003906
253,441181715,0.49510592,0.41254,-0.75236017,0.13651139,13.879072189331055,-0.6317375302314758,0.9684979319572449,19.21432876586914,-121.00556182861328, -39.42408752441406
254,441198382,0.47675663,0.42574307,-0.75836074,0.12780836,14.443755149841309,3.8398568630218506,-2.457421064376831,46.31526565551758,-154.23951721191406, -63.25206756591797
255,441215049,0.4589976,0.4392789,-0.7633228,0.11702044,15.364614486694336,5.10971212387085,-4.383874893188477,35.79872131347656,-154.34060668945312, -75.355224609375
256,441231716,0.44538558,0.45052782,-0.7664836,0.10563766,13.912940979003906,2.8349783420562744,-1.6754361391067505,14.483807563781738,-127.00393676757812, -73.96427917480469
257,441248383,0.43569833,0.45943314,-0.7680325,0.09599186,11.479012489318848,-0.1848689466714859,4.076024055480957,5.5538506507873535,-94.53614044189453, -64.1803207397461
258,441265050,0.43083385,0.46535513,-0.7681298,0.08833866,9.912374496459961,-1.64044988155365,8.716035842895508,-7.07041597366333,-56.829532623291016, -50.3564453125
259,441281717,0.429816,0.46826074,-0.7676026,0.082319416,8.861383438110352,-2.3475515842437744,5.877925872802734,-19.229236602783203,-28.082799911499023, -34.0892219543457
260,441298384,0.43598074,0.46712723,-0.76512396,0.07936169,7.350734710693359,-2.508739948272705,6.938023090362549,-37.004005432128906,27.379653930664062, -14.26653003692627
261,441315051,0.44664216,0.46128604,-0.76255274,0.07899035,6.569599151611328,-3.3645670413970947,5.6429123878479,-51.88326644897461,61.84910583496094, 15.31037425994873
262,441331718,0.46015608,0.45300418,-0.7588626,0.084683,6.544116973876953,-3.396919012069702,4.6600260734558105,-36.053897857666016,100.5254898071289, 41.42619323730469
263,441348385,0.47506285,0.44316316,-0.7540879,0.09629823,7.810634613037109,-3.1813862323760986,3.515960931777954,-13.844188690185547,130.3368682861328, 63.93449020385742
264,441365052,0.4914892,0.43201,-0.7478054,0.11221856,8.713593482971191,-2.1915371417999268,2.552456855773926,0.49327099323272705,156.8945770263672, 79.04293823242188
265,441381719,0.5094288,0.4194355,-0.7398959,0.13080764,9.529966354370117,-1.0198850631713867,1.4815254211425781,6.115594863891602,178.98495483398438, 89.25486755371094
266,441398386,0.52826166,0.40539354,-0.7305196,0.15145002,10.516951560974121,-0.18224911391735077,0.38826072216033936,10.117510795593262,195.7300567626953, 98.81034851074219
267,441415053,0.547887,0.38976395,-0.71969193,0.17305316,11.332154273986816,0.26971888542175293,-0.36090096831321716,8.426640510559082,209.1749267578125, 105.36812591552734
268,441431720,0.5666741,0.3741468,-0.7069766,0.1976845,12.093423843383789,0.4241451323032379,-1.1896356344223022,27.899019241333008,220.13624572753906, 112.65050506591797
269,441448387,0.5842973,0.35925043,-0.6922178,0.22443339,13.107803344726562,0.6545916795730591,-1.8282105922698975,46.71729278564453,226.84715270996094, 113.75875854492188
270,441465054,0.60119414,0.34511408,-0.6754857,0.25135863,13.374164581298828,1.3318493366241455,-2.203500509262085,55.38954544067383,230.5573272705078, 107.16736602783203
271,441481721,0.61764205,0.33074862,-0.65730035,0.27763286,14.406478881835938,1.6835310459136963,-3.061594247817993,54.94380569458008,233.356201171875, 102.98173522949219
272,441498388,0.63350016,0.31612,-0.63805366,0.30270982,14.908727645874023,1.5729224681854248,-3.9294960498809814,51.729949951171875,233.07054138183594, 97.9311752319336
273,441515055,0.64763063,0.3026634,-0.6177786,0.32759613,14.285079956054688,1.3970717191696167,-5.009600639343262,61.84458541870117,227.28158569335938, 93.45897674560547
274,441531722,0.66058767,0.2899597,-0.5970662,0.35079804,13.832324981689453,1.773854374885559,-5.603992462158203,61.42137145996094,219.32237243652344, 84.64636993408203
275,441548389,0.6729222,0.27651346,-0.57769006,0.37012208,13.204960823059082,2.6912522315979004,-6.07980489730835,40.10184097290039,205.153564453125, 74.41226196289062
276,441565056,0.6848504,0.26086044,-0.56096506,0.38503262,12.855865478515625,3.3196868896484375,-6.475220203399658,6.346319198608398,188.98309326171875, 69.00627136230469
277,441581723,0.6955177,0.24348629,-0.54794544,0.39588603,11.600330352783203,3.137092351913452,-6.763603210449219,-24.99622917175293,164.4884796142578, 66.689697265625
278,441598390,0.7054158,0.22585022,-0.5365105,0.4043969,10.846957206726074,3.0527524948120117,-7.108173847198486,-38.1273078918457,151.35037231445312, 61.35929870605469
279,441615057,0.713501,0.21104303,-0.5267191,0.41102833,10.290605545043945,2.6612870693206787,-7.0269598960876465,-33.108367919921875,126.43595886230469, 49.53040313720703
280,441631724,0.71977633,0.20071389,-0.51759416,0.41681236,9.653202056884766,2.6210882663726807,-7.214407444000244,-13.463837623596191,103.21265411376953, 35.356292724609375
281,441648391,0.7240473,0.19530019,-0.50974447,0.42163277,9.273384094238281,3.3797383308410645,-8.021471977233887,6.553425312042236,74.79222106933594, 20.71195411682129
282,441665058,0.726529,0.1924996,-0.50464505,0.42477402,8.21766471862793,3.2460997104644775,-9.070477485656738,8.113970756530762,45.40923309326172, 12.195413589477539
283,441681725,0.72695786,0.1922873,-0.5028946,0.42621017,7.619217872619629,3.0103652477264404,-9.919958114624023,8.077362060546875,12.11182689666748, 5.220915794372559
284,441698392,0.72592944,0.1950999,-0.5035668,0.42589086,8.399080276489258,4.215133190155029,-9.840944290161133,11.97417163848877,-15.890769958496094, -6.4666523933410645
285,441715059,0.7240177,0.19851692,-0.5087164,0.42142305,7.882589340209961,6.504867076873779,-8.697139739990234,-11.290436744689941,-48.34954833984375, -20.584060668945312
286,441731726,0.7217819,0.20189613,-0.5188219,0.4112089,12.183271408081055,7.50769567489624,-7.010381698608398,-45.50940704345703,-81.68778991699219, -41.232505798339844
287,441748393,0.72373503,0.19729695,-0.5254197,0.40151685,20.48241424560547,-1.2609301805496216,9.047693252563477,-79.16085052490234,-25.897226333618164, -26.751983642578125
288,441765060,0.72294545,0.19079764,-0.5405932,0.38562366,15.296940803527832,-12.613663673400879,5.189517021179199,-130.97103881835938,-81.76903533935547, -31.560211181640625
289,441781727,0.71482706,0.20528437,-0.5503166,0.37951607,11.64397144317627,-9.256274223327637,-3.3375658988952637,33.876861572265625,-124.78750610351562, -48.883689880371094
290,441798394,0.70822054,0.22243169,-0.5553012,0.37495157,13.429627418518066,-5.038667678833008,-4.350709438323975,63.08316421508789,-100.47511291503906, -62.180240631103516
291,441815061,0.7045859,0.2430903,-0.553292,0.37193274,10.142731666564941,5.313066482543945,-0.6573504209518433,99.58638000488281,-61.68719482421875, -86.51364135742188
292,441831728,0.70200264,0.25497547,-0.5571478,0.3629965,12.16207218170166,7.842733860015869,1.0757536888122559,17.777002334594727,-73.57080841064453, -74.6123275756836
293,441848395,0.7012652,0.2555868,-0.56402504,0.3532399,9.090529441833496,3.4866433143615723,1.371193528175354,-50.58869552612305,-54.42610549926758, -34.582149505615234
294,441865062,0.7000395,0.25645924,-0.57027626,0.34490323,7.848361015319824,2.5295310020446777,1.2343997955322266,-41.451629638671875,-51.50048065185547, -28.62966537475586
295,441881729,0.69880193,0.25720614,-0.57576025,0.3376699,9.25832748413086,1.290671944618225,1.1819751262664795,-35.89006423950195,-45.66728973388672, -24.140352249145508
296,441898396,0.69718087,0.25846595,-0.58103144,0.33096316,10.540535926818848,-0.4990169107913971,1.0712467432022095,-30.165599822998047,-46.46906661987305, -23.135013580322266
297,441915063,0.6950459,0.2611619,-0.5856993,0.3250569,10.395994186401367,-0.7891226410865784,1.1863398551940918,-17.790874481201172,-47.510894775390625, -24.969758987426758
298,441931730,0.69324565,0.26358363,-0.5899327,0.31923917,10.5038423538208,-0.7825888395309448,1.3837957382202148,-18.369150161743164,-43.34964370727539, -25.004032135009766
299,441948397,0.6915694,0.26663613,-0.59343636,0.3138,10.375032424926758,-2.0023767948150635,0.6346850991249084,-12.444884300231934,-40.101566314697266, -27.382753372192383
300,441965064,0.6889338,0.2734046,-0.59517336,0.3104658,10.58229923248291,-1.426835536956787,0.023794051259756088,19.387584686279297,-39.79629135131836, -33.74755859375
301,441981731,0.6857881,0.28194228,-0.5958288,0.30853108,9.983795166015625,0.4943399727344513,0.5134340524673462,36.763614654541016,-37.91917037963867, -35.33747482299805
302,441998398,0.68273205,0.28927237,-0.5967323,0.30677226,9.843585014343262,1.77926504611969,0.8403220176696777,31.090984344482422,-35.83716583251953, -29.282217025756836
303,442015065,0.6800179,0.29449356,-0.59836197,0.304651,10.000934600830078,2.0570719242095947,1.0870169401168823,17.493213653564453,-34.136962890625, -21.60544204711914
304,442031732,0.67748547,0.29801008,-0.60078067,0.30210283,9.709395408630371,1.5280909538269043,0.5662785172462463,5.746595859527588,-34.39496612548828, -15.367106437683105
305,442048399,0.6748683,0.30061656,-0.6037062,0.29953536,9.64465045928955,1.442035436630249,0.6770480275154114,0.5505540370941162,-35.27310562133789, -10.484557151794434
306,442065066,0.67215437,0.30247986,-0.6072215,0.29664233,9.487277030944824,1.2772318124771118,0.6731906533241272,-5.261196613311768,-37.57328414916992, -7.494776725769043
307,442081733,0.66945076,0.30404696,-0.6109895,0.2933992,9.410146713256836,1.47364342212677,0.7688934206962585,-8.626008033752441,-38.84095764160156, -7.375691890716553
308,442098400,0.66686064,0.30520257,-0.6150439,0.28960234,9.393268585205078,1.5488266944885254,0.8813512921333313,-13.658520698547363,-40.02778244018555, -7.828878879547119
309,442115067,0.6642248,0.3065526,-0.61912966,0.28549862,9.307324409484863,1.1350200176239014,0.819602906703949,-14.028965950012207,-41.41542434692383, -9.902860641479492
310,442131734,0.6612261,0.3089159,-0.62318003,0.28106558,9.030348777770996,0.9730976223945618,0.7458945512771606,-9.966740608215332,-45.499267578125, -15.0875825881958
311,442148401,0.6579039,0.31188568,-0.627485,0.2759576,8.991143226623535,1.2401405572891235,0.3011924922466278,-9.904791831970215,-50.66250991821289, -19.595998764038086
312,442165068,0.6547375,0.3141548,-0.63235223,0.26973394,9.32898998260498,1.3319867849349976,-0.1721051037311554,-19.286136627197266,-53.609432220458984, -20.713298797607422
313,442181735,0.65194196,0.31543344,-0.637584,0.2626029,9.688724517822266,0.29295632243156433,-0.8919059038162231,-29.16568946838379,-53.76929473876953, -20.39518165588379
314,442198402,0.6490036,0.31738308,-0.6425945,0.25521478,10.130565643310547,-0.3905119001865387,-1.401862382888794,-26.575668334960938,-55.17500305175781, -24.72256088256836
315,442215069,0.6451147,0.32194597,-0.6466733,0.24898043,10.078015327453613,-0.32200318574905396,-1.5042284727096558,-6.108965873718262,-57.285213470458984, -31.500614166259766
316,442231736,0.6405758,0.32801732,-0.6503654,0.24308942,10.034778594970703,0.9774667024612427,-1.065141201019287,4.208259105682373,-60.28235626220703, -36.44236373901367
317,442248403,0.6358336,0.3345367,-0.65390503,0.23708455,10.154773712158203,1.8539226055145264,-0.908076822757721,6.385525703430176,-61.529335021972656, -38.95641326904297
318,442265070,0.63069695,0.3413197,-0.65747505,0.23118983,10.250466346740723,2.025374174118042,-0.6599706411361694,8.891861915588379,-63.6180305480957, -38.94643020629883
319,442281737,0.62534624,0.3477975,-0.66141516,0.22474179,10.714866638183594,1.3962266445159912,-0.9732928276062012,4.98228120803833,-67.01171875, -38.756717681884766
320,442298404,0.6200498,0.3538967,-0.66538006,0.21809372,11.668509483337402,0.658137857913971,-1.199285626411438,2.2773427963256836,-66.77216339111328, -37.9241828918457
321,442315071,0.6140662,0.3608898,-0.66919595,0.21179746,12.624540328979492,0.17213208973407745,-0.9885591864585876,9.59299087524414,-69.77225494384766, -39.85646057128906
322,442331738,0.6066908,0.3689023,-0.6736794,0.20492314,12.98274040222168,0.35870489478111267,-0.7005511522293091,13.717440605163574,-81.92375183105469, -43.31892395019531
323,442348405,0.5976574,0.37818033,-0.679019,0.19677047,14.025575637817383,-0.29163435101509094,-0.62815260887146,16.074342727661133,-98.21466064453125, -50.01957702636719
324,442365072,0.5859426,0.38920274,-0.6856931,0.18712941,16.612045288085938,-1.2269366979599,0.03133457899093628,21.459434509277344,-122.46605682373047, -57.201786041259766
325,442381739,0.5723474,0.4005264,-0.693885,0.17470232,19.106748580932617,-1.9424318075180054,2.269820213317871,12.614541053771973,-145.32012939453125, -63.392948150634766
326,442398406,0.5576351,0.41149306,-0.7030536,0.15947591,19.638303756713867,-4.4525346755981445,5.1528215408325195,-0.24521708488464355,-161.8226776123047, -68.70957946777344
327,442415073,0.5381781,0.42701572,-0.71216714,0.14436008,17.356847763061523,-4.6608357429504395,3.9770431518554688,31.242019653320312,-189.3063201904297, -85.31533813476562
328,442431740,0.51429784,0.44587642,-0.7210219,0.12968954,17.42779541015625,-3.9662985801696777,3.473912239074707,59.01538848876953,-212.08290100097656, -96.43014526367188
329,442448407,0.4875377,0.46686152,-0.7283516,0.11769255,15.79941177368164,1.9301881790161133,-1.9034537076950073,89.96806335449219,-214.729736328125, -99.65040588378906
330,442465074,0.46086743,0.48600432,-0.7355117,0.10209718,16.515850067138672,6.862870216369629,-7.167562961578369,65.61808013916016,-223.80015563964844, -103.10467529296875
331,442481741,0.4480633,0.49642384,-0.73823905,0.08835111,18.378999710083008,5.390008926391602,1.1866681575775146,4.101510524749756,-127.29631042480469, -77.64107513427734
332,442498408,0.44663703,0.49751812,-0.740422,0.069040015,10.188482284545898,-0.23946751654148102,10.507044792175293,-91.35591888427734,-81.247802734375, -56.22601318359375
333,442515075,0.44247302,0.49771425,-0.74363106,0.059254434,8.850289344787598,-9.120216369628906,7.979813575744629,-36.718788146972656,-65.38709259033203, -17.611967086791992
334,442531742,0.43520147,0.5014114,-0.7451111,0.06321313,7.862585544586182,-7.497992515563965,7.826086044311523,55.52228927612305,-30.45794105529785, 1.6021418571472168
335,442548409,0.4335162,0.5013939,-0.7452753,0.07233757,5.9963836669921875,-2.3246309757232666,9.18997573852539,52.171390533447266,21.472702026367188, 29.09468650817871
336,442565076,0.44068986,0.49428114,-0.74462646,0.08372688,6.108920574188232,-2.567150831222534,9.525118827819824,12.502596855163574,80.5856704711914, 64.98979949951172
337,442581743,0.45512575,0.48157308,-0.7424605,0.098491125,6.502123832702637,-2.467803478240967,8.260222434997559,-10.974390029907227,137.02073669433594, 94.5202865600586
338,442598410,0.47434834,0.46494773,-0.7381577,0.118070476,8.337112426757812,-2.790337085723877,6.271023273468018,-13.053141593933105,186.7201690673828, 119.2665786743164
339,442615077,0.495451,0.44610903,-0.73162216,0.1422821,10.02607250213623,-1.8751046657562256,3.833418130874634,-0.9607551097869873,220.13571166992188, 136.9384002685547
340,442631744,0.51724476,0.4256835,-0.7229545,0.16908059,11.735238075256348,-0.4921605885028839,1.6565688848495483,6.608982086181641,240.3517303466797, 146.51480102539062
341,442648411,0.5395213,0.4034105,-0.71231157,0.19694945,13.211946487426758,1.4290817975997925,-0.3568834662437439,6.2407331466674805,255.05543518066406, 153.1636199951172
342,442665078,0.5624242,0.378197,-0.7004185,0.22374083,14.25710391998291,2.1090915203094482,-1.1298503875732422,-9.999345779418945,263.7599182128906, 159.26576232910156
343,442681745,0.5837266,0.35286698,-0.6867074,0.25135863,15.571206092834473,2.8044590950012207,-2.2928855419158936,0.4920140206813812,265.42041015625, 160.76963806152344
344,442698412,0.6031187,0.32941833,-0.6703557,0.27991897,16.872373580932617,3.4840431213378906,-2.930408000946045,21.690279006958008,266.0500183105469, 152.58294677734375
345,442715079,0.62117594,0.3091192,-0.65086746,0.3081517,16.96820068359375,4.899211406707764,-3.7518301010131836,42.3077392578125,266.12188720703125, 132.19778442382812
346,442731746,0.63851446,0.2902924,-0.6291057,0.33504573,17.40437889099121,5.426870822906494,-4.529754161834717,48.947265625,266.6867980957031, 116.62352752685547
347,442748413,0.65404314,0.27374268,-0.6056192,0.36127296,16.602924346923828,5.087747573852539,-6.001189708709717,63.647884368896484,259.8978271484375, 104.62232208251953
348,442765080,0.666953,0.2605586,-0.58149546,0.38619405,15.655248641967773,5.3771467208862305,-7.352909564971924,79.85370635986328,241.09393310546875, 90.08660888671875
349,442781747,0.67790395,0.25011498,-0.5577661,0.40839437,14.729850769042969,5.907546520233154,-8.486451148986816,83.99817657470703,219.3699493408203, 72.60936737060547
350,442798414,0.68750393,0.24149948,-0.53592926,0.42637584,13.593667984008789,6.204757213592529,-9.93233871459961,73.3394775390625,193.05709838867188, 53.03249740600586
351,442815081,0.6960589,0.23430252,-0.51657873,0.4401713,11.95987319946289,5.782983779907227,-11.095281600952148,59.0566291809082,166.43890380859375, 35.258392333984375
352,442831748,0.70254546,0.22926736,-0.50115776,0.45023054,10.35057544708252,4.552066802978516,-13.455459594726562,47.56145095825195,127.82382202148438, 22.329761505126953
353,442848415,0.70711464,0.2271888,-0.4892559,0.45716825,9.123101234436035,4.799699783325195,-14.796294212341309,43.21206283569336,90.25777435302734, 8.575814247131348
354,442865082,0.7104322,0.22616701,-0.48247844,0.45972744,7.823935508728027,6.039653778076172,-15.19522762298584,19.472640991210938,51.08550262451172, -4.2962822914123535
355,442881749,0.71253395,0.22532067,-0.48160267,0.4578047,8.141753196716309,6.6297430992126465,-15.44912338256836,-11.311558723449707,10.809324264526367, -13.719489097595215
356,442898416,0.71450895,0.22489855,-0.4841001,0.4522663,8.482975959777832,6.397143363952637,-13.85174560546875,-31.631240844726562,-12.971932411193848, -27.172758102416992
357,442915083,0.7152939,0.22568892,-0.49140447,0.44265217,7.120716094970703,5.570770263671875,-13.072733879089355,-52.35454559326172,-50.536720275878906, -40.05944061279297
358,442931750,0.7150478,0.2239716,-0.50338435,0.43028802,16.977554321289062,-0.11258511990308762,-7.171810626983643,-86.61164093017578,-73.58464050292969, -34.682193756103516
359,442948417,0.7196009,0.20830224,-0.5180577,0.41279677,21.823503494262695,-8.120038032531738,12.99249267578125,-188.31971740722656,-36.79106521606445, -21.6328067779541
360,442965084,0.7163324,0.205413,-0.5354354,0.39747012,13.55131721496582,-16.583641052246094,-1.2206816673278809,-113.82656860351562,-111.27715301513672, -30.401275634765625
361,442981751,0.7059704,0.22560163,-0.5457082,0.39104012,11.371283531188965,-3.10209584236145,-6.447580337524414,62.06906509399414,-152.8978271484375, -62.29911422729492
362,442998418,0.7032664,0.239976,-0.5488541,0.3828669,15.200177192687988,0.3217813968658447,-3.261474609375,34.58892059326172,-76.59315490722656, -80.61461639404297
363,443015085,0.7022592,0.25135338,-0.5512002,0.37394094,8.292790412902832,5.719219207763672,1.9805806875228882,16.552248001098633,-59.654422760009766, -78.73137664794922
364,443031752,0.6994961,0.25712278,-0.5588136,0.36375913,9.30456256866455,6.854892253875732,2.300342082977295,-25.805448532104492,-79.52240753173828, -49.89237976074219
365,443048419,0.6975215,0.25813773,-0.56648093,0.35486376,8.266059875488281,4.82424783706665,2.7639951705932617,-45.265743255615234,-62.6193733215332, -27.272855758666992
366,443065086,0.6965172,0.2569576,-0.57385933,0.34571958,8.36213207244873,1.899133324623108,1.5307295322418213,-57.780513763427734,-52.57753372192383, -22.76871109008789
367,443081753,0.69467163,0.25665656,-0.5808101,0.3379623,11.1175537109375,-1.1138548851013184,0.11980898678302765,-45.59366989135742,-53.515907287597656, -18.34425926208496
368,443098420,0.6924613,0.25833306,-0.58646685,0.33138797,11.962249755859375,-2.6896800994873047,-0.6667892336845398,-27.77022361755371,-51.31207275390625, -22.040874481201172
369,443115087,0.6904149,0.2618025,-0.59063935,0.32547203,11.112724304199219,-2.3181240558624268,0.24722203612327576,-13.486289978027344,-46.50478744506836, -29.171403884887695
370,443131754,0.6886832,0.26590103,-0.5937633,0.3200895,10.238375663757324,-1.9274791479110718,0.950610339641571,-6.551894187927246,-40.708892822265625, -31.808727264404297
371,443148421,0.68607616,0.27293688,-0.5954801,0.3165576,10.270272254943848,-1.73992919921875,0.30411091446876526,19.60896110534668,-40.71678161621094, -35.70609664916992
372,443165088,0.6823829,0.28304073,-0.5958933,0.31488544,9.882264137268066,0.7023387551307678,0.6604126691818237,46.57029342651367,-42.213504791259766, -39.59988784790039
373,443181755,0.678321,0.29239255,-0.59675807,0.31347567,9.481266021728516,2.399156332015991,0.8898996710777283,43.856170654296875,-43.716060638427734, -33.61952209472656
374,443198422,0.6745747,0.29916674,-0.5987214,0.3114177,9.487634658813477,2.532538890838623,0.6421197056770325,26.171945571899414,-43.305423736572266, -24.534090042114258
375,443215089,0.6713208,0.30326247,-0.6016655,0.30880222,9.448403358459473,2.048935890197754,0.20521658658981323,8.342799186706543,-41.25228500366211, -15.124736785888672
376,443231756,0.66887146,0.30517095,-0.60506773,0.30557284,9.654186248779297,1.436524510383606,0.3386431038379669,-6.941948413848877,-36.685760498046875, -9.65902042388916
377,443248423,0.66651046,0.3062791,-0.60905886,0.30166957,9.80113410949707,0.8403942584991455,0.3546472489833832,-14.846292495727539,-38.77070236206055, -8.377660751342773
378,443265090,0.663976,0.30757624,-0.61332285,0.29726768,9.415220260620117,0.8813766241073608,0.32488057017326355,-16.266416549682617,-42.201683044433594, -10.5228271484375
379,443281757,0.66139406,0.3090763,-0.6176483,0.2924733,9.288756370544434,1.0743008852005005,0.27340948581695557,-17.019372940063477,-43.9390869140625, -12.945473670959473
380,443298424,0.65871394,0.31076017,-0.62211615,0.28722072,9.46181869506836,0.8949404954910278,0.3434062600135803,-18.205652236938477,-46.35885238647461, -15.310827255249023
381,443315091,0.65556866,0.31325147,-0.6265436,0.28203973,9.657560348510742,0.21535195410251617,0.048004284501075745,-13.166305541992188,-49.62114715576172, -17.611473083496094
382,443331758,0.6517417,0.31704187,-0.63086635,0.27699268,9.867002487182617,0.5349406003952026,-0.12007620930671692,-5.0617194175720215,-54.328304290771484, -21.51619529724121
383,443348425,0.64775985,0.3211705,-0.63521135,0.27159443,9.926584243774414,0.6405231952667236,-0.4271518588066101,-4.772452354431152,-56.520694732666016, -24.220935821533203
384,443365092,0.6436526,0.32576066,-0.63941437,0.26597115,9.871108055114746,0.5530980229377747,-0.9326330423355103,-3.1580398082733154,-57.804595947265625, -27.324954986572266
385,443381759,0.6394023,0.33100674,-0.643342,0.26021248,9.789326667785645,1.0182411670684814,-1.0688886642456055,-0.025779586285352707,-58.724422454833984, -31.17052459716797
386,443398426,0.6346973,0.33716208,-0.64717287,0.25426078,9.930691719055176,1.634639859199524,-1.0024992227554321,4.325544834136963,-62.382877349853516, -35.452857971191406
387,443415093,0.6292898,0.34411404,-0.6510224,0.24849522,9.872812271118164,1.4351341724395752,-0.7750780582427979,10.228483200073242,-66.55975341796875, -36.91582489013672
388,443431760,0.62284744,0.35208055,-0.6551294,0.24270578,10.325591087341309,1.289933443069458,-0.7325982451438904,16.520429611206055,-74.10646057128906, -39.187232971191406
389,443448427,0.6155615,0.36074162,-0.65962076,0.2363261,10.88621997833252,1.2523709535598755,-0.8942810893058777,18.237627029418945,-82.15184783935547, -42.5118293762207
390,443465094,0.6073115,0.3699019,-0.66454756,0.22961271,11.523301124572754,0.8404297828674316,-1.1755616664886475,20.52189826965332,-90.01805114746094, -43.54892349243164
391,443481761,0.5986592,0.37828705,-0.67048895,0.2212487,13.131258964538574,0.574045717716217,-1.1262507438659668,9.16407299041748,-99.08007049560547, -43.69511032104492
392,443498428,0.5908636,0.38526148,-0.67600995,0.21322384,15.410758972167969,-0.8316594362258911,-0.8837119936943054,3.3327670097351074,-90.38789367675781, -38.205787658691406
393,443515095,0.5813347,0.39285022,-0.6829638,0.20317313,16.409513473510742,-0.5405462980270386,0.5654780268669128,-1.0984678268432617,-110.55567932128906, -42.981990814208984
394,443531762,0.5694193,0.40145162,-0.6919911,0.18906766,18.819406509399414,-1.0810668468475342,2.7057809829711914,-12.542693138122559,-142.45849609375, -55.03688049316406
395,443548429,0.55604833,0.410949,-0.7017334,0.17175974,19.55610466003418,-3.340183734893799,4.590141296386719,-21.183086395263672,-162.25013732910156, -68.00625610351562
396,443565096,0.537218,0.4258873,-0.711558,0.15395442,18.467517852783203,-4.3930816650390625,4.237176895141602,12.548693656921387,-196.8223114013672, -89.53532409667969
397,443581763,0.51566464,0.4424904,-0.72095275,0.13608605,20.198657989501953,-6.180922031402588,6.345907211303711,26.81627082824707,-210.58299255371094, -96.3454818725586
398,443598430,0.4891177,0.4623777,-0.72920877,0.123391345,15.84034252166748,0.1355963796377182,-1.6988158226013184,80.36341094970703,-218.73410034179688, -93.13919830322266
399,443615097,0.4594345,0.48265672,-0.7376026,0.10910985,18.001020431518555,6.357485294342041,-7.339529037475586,83.57632446289062,-240.3496856689453, -97.3580551147461
400,443631764,0.4426758,0.49539396,-0.74095905,0.09799367,19.131933212280273,6.367877006530762,-0.20349641144275665,36.685508728027344,-142.6997528076172, -75.4913558959961
401,443648431,0.43823448,0.4989321,-0.7432474,0.08124609,12.278376579284668,-0.30111992359161377,9.395890235900879,-61.21202087402344,-89.73668670654297, -57.70126724243164
402,443665098,0.43346727,0.50050086,-0.7459908,0.07143522,10.320801734924316,-7.342593193054199,9.541189193725586,-30.811674118041992,-67.95799255371094, -25.02068328857422
403,443681765,0.4292246,0.50290996,-0.7467578,0.07211518,9.21699047088623,-6.313538074493408,10.023427963256836,24.655864715576172,-23.765302658081055, -5.178358554840088
404,443698432,0.43395382,0.49987337,-0.7457607,0.07517738,6.164252281188965,-1.5585922002792358,10.67155933380127,-9.338454246520996,38.36772918701172, 19.223722457885742
405,443715099,0.44755638,0.48951024,-0.74397075,0.081121035,6.422922611236572,-2.7955126762390137,9.682167053222656,-46.491519927978516,99.87034606933594, 58.06021499633789
406,443731766,0.46556142,0.47534332,-0.7407176,0.09294632,6.019303321838379,-2.9824442863464355,7.132856845855713,-42.10877990722656,148.76834106445312, 88.21798706054688
407,443748433,0.48615465,0.45891222,-0.7351807,0.112084225,7.76270866394043,-2.646899938583374,5.39656400680542,-19.111637115478516,194.58843994140625, 114.0268325805664
408,443765100,0.50853854,0.44004127,-0.7274785,0.13611497,8.989720344543457,-1.8783835172653198,3.746255874633789,-6.519814491271973,228.182373046875, 134.49710083007812
409,443781767,0.5314101,0.41965052,-0.7173602,0.16398522,10.526851654052734,-1.4809494018554688,1.9337992668151855,8.156829833984375,252.10081481933594, 147.7548370361328
410,443798434,0.55397123,0.3983669,-0.704594,0.19485126,11.977982521057129,-0.4361479580402374,0.2681954801082611,23.5491943359375,269.89227294921875, 155.8173828125
411,443815101,0.57642215,0.37570676,-0.68930894,0.22679311,13.484981536865234,1.219556450843811,-0.785682737827301,27.193078994750977,283.75006103515625, 159.83985900878906
412,443831768,0.59861046,0.3509746,-0.6720842,0.2584284,15.26035213470459,1.884167194366455,-1.8454747200012207,21.22871971130371,292.645263671875, 163.8629913330078
413,443848435,0.61815053,0.3274546,-0.6526844,0.2909751,16.744417190551758,2.183391571044922,-3.789834976196289,40.68413543701172,289.4200744628906, 161.49266052246094
414,443865102,0.63545936,0.30673203,-0.63074785,0.32289952,17.397188186645508,3.3890202045440674,-5.339557647705078,59.87744140625,283.2200622558594, 145.0709991455078
415,443881769,0.65216434,0.2871524,-0.6068775,0.3520298,17.503389358520508,5.375671863555908,-6.856735706329346,58.31875228881836,280.67193603515625, 125.20574188232422
416,443898436,0.66830075,0.26702008,-0.58284295,0.37731758,16.956911087036133,5.863640308380127,-8.22359561920166,41.319427490234375,272.85723876953125, 111.3895492553711
417,443915103,0.68262553,0.24630007,-0.5611019,0.39815012,15.414319038391113,5.687898635864258,-9.713260650634766,18.128070831298828,248.4845733642578, 102.23918151855469
418,443931770,0.69496316,0.22604923,-0.542513,0.4142559,14.201970100402832,6.148643970489502,-10.803608894348145,-3.1760776042938232,216.8319549560547, 89.0741195678711
419,443948437,0.7054521,0.207745,-0.5260103,0.42719173,12.764693260192871,5.464643955230713,-11.210432052612305,-8.774369239807129,189.60946655273438, 75.22994995117188
420,443965104,0.71306986,0.1939696,-0.51190984,0.43801308,11.222658157348633,4.6339006423950195,-12.353399276733398,2.584505796432495,151.3664093017578, 60.508338928222656
421,443981771,0.71773493,0.18708,-0.49982944,0.4472453,10.00570297241211,4.561646461486816,-13.663125991821289,28.603710174560547,108.33612823486328, 40.11105728149414
422,443998438,0.7203039,0.1861332,-0.4907765,0.45349237,8.546792030334473,6.59109354019165,-14.26828670501709,41.05329513549805,64.2115478515625, 15.33523178100586
423,444015105,0.7210459,0.18749517,-0.48790288,0.45485094,8.438910484313965,8.190556526184082,-15.254434585571289,19.05916976928711,14.121212005615234, -3.007218599319458
424,444031772,0.7206921,0.18981858,-0.48989114,0.45230377,8.791526794433594,8.460539817810059,-14.637054443359375,-3.0716235637664795,-21.56496238708496, -15.832952499389648
425,444048439,0.7169588,0.19775544,-0.4987313,0.44511807,8.962319374084473,8.748868942260742,-16.71271514892578,-7.78712797164917,-90.28377532958984, -38.20553970336914
426,444065106,0.7135234,0.20512316,-0.50911975,0.43543813,27.4290714263916,1.8191794157028198,-4.8485493659973145,-24.296524047851562,-98.40463256835938, -47.283607482910156
427,444081773,0.717196,0.19537225,-0.5223459,0.41786885,17.70481300354004,-8.564135551452637,11.778306007385254,-154.4241180419922,-47.220584869384766, -43.28164291381836
428,444098440,0.71065325,0.20517343,-0.5374713,0.40496987,9.850229263305664,-12.033783912658691,-4.8091912269592285,-32.95183181762695,-143.24752807617188, -58.60609817504883
429,444115107,0.70197463,0.22484262,-0.5446372,0.40006003,13.440885543823242,-4.816390037536621,-5.584112167358398,70.00415802001953,-128.4048309326172, -61.41313552856445
430,444131774,0.6990544,0.2447133,-0.5415477,0.39769912,9.408149719238281,4.906639575958252,0.5237178802490234,99.83165740966797,-53.8827018737793, -81.60961151123047
431,444148441,0.69640416,0.25846097,-0.5463553,0.38693026,11.081903457641602,10.083704948425293,-1.0012867450714111,17.017507553100586,-88.2344741821289, -86.64545440673828
432,444165108,0.6972971,0.2568161,-0.5524352,0.37767422,11.939064025878906,2.065561294555664,1.1748512983322144,-60.70811462402344,-37.36278533935547, -28.65194320678711
433,444181775,0.6966769,0.2580965,-0.55838335,0.3691011,8.075199127197266,1.0901392698287964,2.276984453201294,-41.080711364746094,-48.87886047363281, -32.764312744140625
434,444198442,0.69475865,0.26169443,-0.56320196,0.362809,9.391804695129395,0.3466886281967163,1.9090955257415771,-16.054885864257812,-50.311302185058594, -29.43484115600586
435,444215109,0.6926902,0.26656523,-0.5667492,0.35765728,10.216283798217773,-0.649343729019165,1.47506844997406,-2.118129014968872,-45.96213150024414, -30.829042434692383
436,444231776,0.68986607,0.27213958,-0.5702175,0.35337922,11.167394638061523,-0.02735929936170578,0.8743361234664917,6.216802597045898,-48.67074203491211, -27.707090377807617
437,444248443,0.68796057,0.27553257,-0.57420546,0.3479659,10.474343299865723,0.241276353597641,1.1839572191238403,-11.56215763092041,-44.3636589050293, -25.80384063720703
438,444265110,0.68640214,0.27798703,-0.57809055,0.34261778,10.212129592895508,-0.8979790210723877,0.4306017756462097,-16.15497589111328,-40.149715423583984, -22.81598663330078
439,444281777,0.6839964,0.28291598,-0.5805952,0.3391414,10.46462631225586,-1.1522302627563477,0.2857963442802429,7.834941864013672,-39.25770568847656, -24.473602294921875
440,444298444,0.6809277,0.2897945,-0.582167,0.33680627,9.935731887817383,0.22757259011268616,0.9455469250679016,25.02356719970703,-39.84574890136719, -27.177778244018555
441,444315111,0.67777014,0.29629526,-0.58385515,0.33458927,9.537789344787598,1.3717567920684814,1.1994775533676147,23.634889602661133,-39.6425666809082, -24.685157775878906
442,444331778,0.6748806,0.30135685,-0.586112,0.3319531,9.76560115814209,1.6961288452148438,1.2856210470199585,13.391090393066406,-38.77177810668945, -20.31709098815918
443,444348445,0.67206335,0.30534115,-0.5890374,0.32883525,9.520737648010254,1.6117230653762817,1.115555763244629,4.7753472328186035,-40.135128021240234, -16.9841251373291
444,444365112,0.6692322,0.30859426,-0.59250855,0.3253175,9.11711311340332,1.4809683561325073,0.7713575959205627,-1.426867961883545,-41.91339111328125, -14.68666934967041
445,444381779,0.66658336,0.3111101,-0.59633744,0.3213392,9.344196319580078,1.3666965961456299,0.37958428263664246,-7.879391670227051,-42.156158447265625, -13.445237159729004
446,444398446,0.6640586,0.31322578,-0.6003356,0.31703818,9.372880935668945,1.1697821617126465,0.3661939203739166,-11.674468994140625,-42.23725128173828, -13.188305854797363
447,444415113,0.6616247,0.3151397,-0.60447663,0.3123266,9.30121898651123,1.3173625469207764,0.4863865375518799,-14.795820236206055,-42.96819305419922, -14.11579704284668
448,444431780,0.6592578,0.31687364,-0.609046,0.30664876,9.096949577331543,1.9661425352096558,1.482715368270874,-20.69211769104004,-46.35765838623047, -16.971847534179688
449,444448447,0.65670663,0.31817427,-0.6146007,0.29961202,8.768176078796387,2.6865828037261963,1.565980076789856,-30.018165588378906,-53.66679000854492, -18.767648696899414
450,444465114,0.6539838,0.3185309,-0.6207067,0.29251805,9.297930717468262,0.9343034029006958,-0.3118373453617096,-35.278099060058594,-55.09040451049805, -13.456148147583008
451,444481781,0.6506301,0.32048988,-0.62603575,0.2864369,9.639573097229004,-1.1931813955307007,-1.7627092599868774,-20.802000045776367,-55.30376434326172, -16.1732120513916
452,444498448,0.64625186,0.32496786,-0.6306458,0.28114134,10.416984558105469,-0.676651656627655,-1.915790319442749,-2.4777958393096924,-59.72577667236328, -23.093181610107422
453,444515115,0.6425235,0.32923406,-0.6351133,0.27459,10.731362342834473,-0.11739607155323029,-1.2744925022125244,-10.040230751037598,-58.668758392333984, -29.35282325744629
454,444531782,0.63869643,0.3334635,-0.6399044,0.26719186,10.44751262664795,0.5243133902549744,-0.8405219912528992,-14.28698444366455,-62.386722564697266, -32.031925201416016
455,444548449,0.6341881,0.33859086,-0.64478225,0.2596491,10.416659355163574,0.7732083797454834,-0.7391767501831055,-9.577313423156738,-67.7632827758789, -35.18022537231445
456,444565116,0.62895435,0.34485966,-0.6496043,0.25199723,10.746870994567871,0.8347381353378296,-0.7961455583572388,-3.29437255859375,-73.04822540283203, -39.56324768066406
457,444581783,0.62304384,0.3519773,-0.65447766,0.24410571,10.835421562194824,0.7952020764350891,-0.6113231182098389,0.8238877058029175,-78.3524398803711, -43.111793518066406
458,444598450,0.6156809,0.36062002,-0.6595505,0.23639728,11.814509391784668,0.9406111240386963,-0.2717067003250122,11.362059593200684,-87.88594818115234, -46.2866096496582
459,444615117,0.6072858,0.37044144,-0.6647212,0.228305,12.988445281982422,0.8578528761863708,0.6905511021614075,17.014402389526367,-95.88042449951172, -51.35628128051758
460,444631784,0.59642375,0.38258514,-0.67062956,0.21946144,13.39909839630127,0.26122549176216125,0.7988837361335754,28.406513214111328,-115.84268951416016, -59.380367279052734
461,444648451,0.58324903,0.39647874,-0.6774808,0.20891379,15.58260726928711,-1.105911135673523,0.23791223764419556,32.391414642333984,-137.5496826171875, -68.50135803222656
462,444665118,0.56748515,0.4112659,-0.6859061,0.19584145,20.09815216064453,-3.0553762912750244,2.0726852416992188,29.009185791015625,-164.1474609375, -74.82945251464844
463,444681785,0.5496013,0.42613986,-0.69618523,0.17795928,22.12276268005371,-4.092024803161621,5.187798976898193,10.161120414733887,-195.1959686279297, -85.98985290527344
464,444698452,0.52961475,0.44117907,-0.7077301,0.15487947,22.22955322265625,-5.964720726013184,7.774717330932617,-9.486051559448242,-225.6228485107422, -100.23690032958984
465,444715119,0.5071974,0.45725793,-0.71832216,0.13296378,21.230060577392578,-6.603835105895996,4.6808695793151855,8.3428316116333,-231.72406005859375, -101.46370697021484
466,444731786,0.47633633,0.47886539,-0.7281578,0.116525024,14.624354362487793,0.4539317488670349,-6.592518329620361,81.91954803466797,-258.78118896484375, -104.44405364990234
467,444748453,0.44540775,0.5012007,-0.734543,0.1041939,19.472068786621094,6.911609649658203,-7.683465480804443,107.8285140991211,-234.88485717773438, -105.9502944946289
468,444765120,0.43430856,0.5117021,-0.735341,0.09386561,16.634796142578125,6.288227558135986,5.932963848114014,17.35772132873535,-102.23929595947266, -73.4680404663086
469,444781787,0.4341033,0.51147133,-0.73784727,0.07438304,11.111873626708984,-1.0257134437561035,9.671900749206543,-100.33531951904297,-77.66692352294922, -47.57661819458008
470,444798454,0.43176827,0.51074845,-0.74061406,0.06483195,7.86512565612793,-7.694652557373047,4.850653648376465,-44.04282760620117,-54.1888427734375, -13.471482276916504
471,444815121,0.42985192,0.5109724,-0.7415559,0.06503426,6.515020847320557,-5.226792812347412,5.645228385925293,7.7414774894714355,-12.872800827026367, 3.995962619781494
472,444831788,0.4327689,0.50609684,-0.74279755,0.06949101,4.34446907043457,-2.438807964324951,7.263202667236328,-2.7689876556396484,28.052860260009766, 41.41896438598633
473,444848455,0.44152927,0.49504948,-0.74413174,0.079032004,4.011086940765381,-3.0338144302368164,7.57580041885376,-15.541565895080566,78.21161651611328, 85.58296203613281
474,444865122,0.45501873,0.47932822,-0.7445221,0.09428388,4.907710552215576,-2.8297860622406006,7.064591407775879,-16.093019485473633,127.21318817138672, 121.03091430664062
475,444881789,0.47331986,0.459299,-0.7429314,0.11430539,6.785501956939697,-1.8896880149841309,6.676589012145996,-19.73491668701172,176.52322387695312, 148.34637451171875
476,444898456,0.49415997,0.43658137,-0.7389649,0.13832472,8.62956428527832,-0.6075648665428162,4.771803855895996,-14.214559555053711,211.9267120361328, 165.58230590820312
477,444915123,0.514304,0.4144042,-0.7318792,0.16767089,11.165072441101074,0.9101982116699219,2.015211820602417,19.754932403564453,234.43275451660156, 172.22952270507812
478,444931790,0.5337708,0.39325863,-0.721239,0.20062634,13.265849113464355,3.0211071968078613,0.7790888547897339,47.59096145629883,252.66514587402344, 170.4740447998047
479,444948457,0.55384445,0.3720277,-0.70769763,0.23241338,14.274649620056152,5.697644233703613,-0.8016998171806335,43.856414794921875,263.2599792480469, 157.95396423339844
480,444965124,0.5769235,0.3486366,-0.69150144,0.25968838,15.666970252990723,7.411398410797119,-1.8624075651168823,10.227923393249512,279.90826416015625, 139.7440643310547
481,444981791,0.60233897,0.3211497,-0.67466056,0.28086275,14.967569351196289,5.7933478355407715,-2.268866777420044,-39.484127044677734,286.289794921875, 129.36761474609375
482,444998458,0.6245379,0.29611933,-0.6554309,0.3044281,15.471992492675781,3.472618818283081,-3.667919635772705,-6.482619762420654,281.831787109375, 128.864501953125
483,445015125,0.64263564,0.2764468,-0.63283956,0.33182952,15.83213996887207,2.548381805419922,-4.933269500732422,49.21920394897461,274.43670654296875, 122.97917175292969
484,445031792,0.6578587,0.26156136,-0.6071204,0.3608497,15.344392776489258,2.6715946197509766,-5.99843692779541,90.02275848388672,267.982421875, 109.96736145019531
485,445048459,0.6710754,0.24945408,-0.58075696,0.3874944,15.41565227508545,4.069756984710693,-7.680577278137207,97.89067840576172,251.44163513183594, 91.500732421875
486,445065126,0.6836199,0.23708695,-0.5558801,0.40920764,15.014698028564453,5.482242584228516,-8.948762893676758,74.15772247314453,234.24508666992188, 74.18376922607422
487,445081793,0.6944908,0.22373524,-0.5353839,0.42542836,13.650786399841309,6.413971424102783,-10.594879150390625,38.91292190551758,201.19911193847656, 64.04573822021484
488,445098460,0.7036506,0.21117522,-0.51868093,0.43732253,12.224101066589355,6.179410457611084,-12.261473655700684,18.280853271484375,167.9600372314453, 51.37837600708008
489,445115127,0.7109178,0.20184043,-0.50495577,0.44595528,10.483283996582031,6.6797685623168945,-12.854582786560059,16.031723022460938,132.52761840820312, 34.1718864440918
490,445131794,0.716131,0.19641005,-0.49615768,0.44989678,9.075328826904297,6.3841552734375,-13.99503231048584,6.543035507202148,82.98597717285156, 10.873584747314453
491,445148461,0.7198128,0.1939771,-0.49139026,0.450309,8.112645149230957,5.441973686218262,-14.557014465332031,-1.1272867918014526,44.026634216308594, -6.484323024749756
492,445165128,0.7217463,0.19354516,-0.49108684,0.44772378,8.387020111083984,4.8220438957214355,-13.574172973632812,-12.849899291992188,5.982899188995361, -16.67101287841797
493,445181795,0.7229885,0.19347309,-0.49396446,0.44255495,8.200711250305176,4.524959087371826,-11.720300674438477,-28.65713119506836,-16.55226707458496, -24.302114486694336
494,445198462,0.7211642,0.19550768,-0.50351334,0.43378943,7.905272006988525,5.5120038986206055,-13.517354965209961,-46.61958312988281,-71.21868133544922, -31.08878517150879
495,445215129,0.71949023,0.19615377,-0.51595813,0.42147928,24.904062271118164,3.5177063941955566,-3.7161691188812256,-74.61358642578125,-85.57154846191406, -40.35793685913086
496,445231796,0.72400427,0.17644687,-0.5351867,0.3978189,22.237409591674805,-8.68217658996582,14.139140129089355,-243.61566162109375,-53.44302749633789, -33.00681686401367
497,445248463,0.7190692,0.17679721,-0.55230653,0.38293576,7.368348121643066,-16.232898712158203,-7.309920310974121,-94.18263244628906,-122.03253173828125, -39.85274887084961
498,445265130,0.7071106,0.20139319,-0.5638924,0.37611294,12.881231307983398,0.6409922242164612,-8.78060531616211,79.48113250732422,-175.34263610839844, -80.46253204345703
499,445281797,0.706285,0.21649522,-0.563942,0.3691354,17.084957122802734,-0.008537566289305687,-3.190918207168579,47.12788009643555,-51.64122772216797, -89.16838836669922
500,445298464,0.706822,0.22504428,-0.5675729,0.35723788,7.375740051269531,4.2515950202941895,4.488557815551758,-14.904751777648926,-54.40031814575195, -85.77787780761719
501,445315131,0.7030152,0.23293467,-0.5748894,0.34786993,6.697381973266602,4.380714416503906,3.0385451316833496,-10.584403038024902,-83.79190826416016, -54.50972366333008
502,445331798,0.6986018,0.23948862,-0.5822228,0.3400256,9.31386661529541,2.7925803661346436,0.917206346988678,-10.09717845916748,-80.68172454833984, -40.3539924621582
503,445348465,0.6960683,0.24437085,-0.5874818,0.33262166,10.36276912689209,1.6420286893844604,0.8432827591896057,-14.61322021484375,-58.579978942871094, -39.339942932128906
504,445365132,0.6928344,0.24832691,-0.5934541,0.3257707,11.55997085571289,0.5410245060920715,0.11366826295852661,-17.26604461669922,-61.79671096801758, -30.145273208618164
505,445381799,0.69031876,0.25178224,-0.598413,0.319324,10.602441787719727,-0.9959755539894104,-0.345699667930603,-16.955503463745117,-52.23814392089844, -29.5187931060791
506,445398466,0.68775314,0.25552964,-0.60283154,0.31351978,10.460217475891113,-0.758531391620636,0.3133552074432373,-11.651009559631348,-49.41786575317383, -28.515336990356445
507,445415133,0.6852934,0.25916666,-0.6068628,0.30809668,11.097594261169434,-0.9184941053390503,0.2838035225868225,-9.942543983459473,-46.257137298583984, -27.18198013305664
508,445431800,0.6827247,0.2639043,-0.60984105,0.30386767,10.491166114807129,-0.387704998254776,0.15919369459152222,2.6525323390960693,-41.968994140625, -27.81386947631836
509,445448467,0.68023837,0.2689107,-0.61213493,0.30042258,9.651270866394043,0.6427097916603088,0.7849709391593933,8.481127738952637,-37.563899993896484, -26.692068099975586
510,445465134,0.6773004,0.27430797,-0.6144543,0.2974318,9.593509674072266,0.8452779054641724,0.8357439637184143,13.003439903259277,-39.57179641723633, -25.242280960083008
511,445481801,0.6736309,0.27999032,-0.61727065,0.29462522,9.686062812805176,1.0518925189971924,0.5007900595664978,15.474993705749512,-45.233055114746094, -23.16435432434082
512,445498468,0.6698499,0.2850333,-0.6205139,0.29158157,9.609990119934082,1.1731220483779907,0.09611959010362625,10.85951042175293,-46.86465072631836, -20.50802993774414
513,445515135,0.6664846,0.288674,-0.62438333,0.28742152,9.228261947631836,1.2487741708755493,0.011488504707813263,-2.4290924072265625,-47.36833190917969, -19.279369354248047
514,445531802,0.66338027,0.29136527,-0.6288086,0.28219298,9.33735466003418,1.4415463209152222,0.10457533597946167,-12.981420516967773,-49.05874252319336, -19.514596939086914
515,445548469,0.6603542,0.29371953,-0.6334489,0.2764127,9.174500465393066,1.2676242589950562,-0.3389188051223755,-17.474218368530273,-50.17470932006836, -20.295795440673828
516,445565136,0.65716374,0.29634634,-0.6379799,0.27073345,9.247709274291992,1.3959300518035889,-0.3491222858428955,-15.254725456237793,-50.72605514526367, -20.934650421142578
517,445581803,0.6538359,0.2988754,-0.6427004,0.26478034,9.527321815490723,1.446738600730896,-0.324505090713501,-16.966842651367188,-52.579254150390625, -21.10311508178711
518,445598470,0.65024674,0.3016796,-0.64754134,0.2585706,9.848685264587402,1.2233846187591553,-0.4933582842350006,-16.543058395385742,-55.323429107666016, -22.751890182495117
519,445615137,0.6462267,0.30527934,-0.6522139,0.25261205,9.868560791015625,0.6742871403694153,-0.8018048405647278,-10.67165756225586,-57.399898529052734, -24.75986671447754
520,445631804,0.6412119,0.3108663,-0.65632427,0.24788737,10.019051551818848,-0.10907788574695587,-1.1814571619033813,6.7555131912231445,-60.23929214477539, -27.65367317199707
521,445648471,0.6349855,0.3187477,-0.66008276,0.24389397,10.334507942199707,0.5317457318305969,-1.1049308776855469,23.36311912536621,-66.51400756835938, -33.493614196777344
522,445665138,0.6299464,0.32521352,-0.66409284,0.23745435,10.77874755859375,0.7577171921730042,-1.3495222330093384,3.0574569702148438,-65.22463989257812, -39.204341888427734
523,445681805,0.6241057,0.3330256,-0.66767997,0.23192641,10.510749816894531,0.5964729189872742,-1.0535943508148193,15.533823013305664,-67.22541809082031, -41.05427169799805
524,445698472,0.61666185,0.34224507,-0.67181766,0.22640185,10.900520324707031,1.0834535360336304,-0.8123171329498291,24.38212776184082,-79.20075988769531, -43.70145797729492
525,445715139,0.6084297,0.3520567,-0.6764416,0.219764,11.371766090393066,1.2348682880401611,-0.972920298576355,22.850032806396484,-88.46583557128906, -48.800167083740234
526,445731806,0.59946126,0.36172068,-0.6818621,0.21182263,11.666839599609375,1.3003547191619873,-1.1400461196899414,16.75138282775879,-98.17670440673828, -50.539772033691406
527,445748473,0.5900236,0.37099323,-0.6880411,0.20207931,12.493284225463867,1.0528573989868164,-1.016335129737854,6.754072666168213,-107.43798065185547, -53.57503890991211
528,445765140,0.5787272,0.38173267,-0.6946764,0.19178028,13.321512222290039,-0.0706721842288971,-0.5068312883377075,14.185317993164062,-121.56851959228516, -59.04111862182617
529,445781807,0.5656835,0.39462098,-0.7009481,0.18151613,14.755340576171875,-0.3232448697090149,1.100939393043518,27.970212936401367,-131.2494354248047, -67.84874725341797
530,445798474,0.5510023,0.4074431,-0.7082962,0.1694205,19.005353927612305,-1.5658224821090698,2.829890012741089,21.988283157348633,-148.2764892578125, -69.72821807861328
531,445815141,0.53866804,0.41760477,-0.71468186,0.15707704,22.433338165283203,-2.6411774158477783,5.807580471038818,5.2486443519592285,-130.8870391845703, -63.19486999511719
532,445831808,0.52218115,0.4280265,-0.72425044,0.13993414,21.11618423461914,-5.349087238311768,7.231239318847656,-8.882645606994629,-177.28839111328125, -68.70336151123047
533,445848475,0.49781963,0.4442512,-0.73452353,0.12366082,18.495914459228516,-4.223973274230957,1.310514211654663,38.781593322753906,-222.22280883789062, -84.93132781982422
534,445865142,0.46560887,0.46698615,-0.7436832,0.10985313,18.062175750732422,4.035293102264404,-5.7848005294799805,98.44157409667969,-256.1802062988281, -106.18411254882812
535,445881809,0.43928674,0.48580492,-0.7492654,0.098092645,19.054248809814453,6.757199287414551,-4.820257186889648,80.15628814697266,-205.09249877929688, -95.52750396728516
536,445898476,0.42852888,0.4941254,-0.75195026,0.08230487,15.214223861694336,3.5877978801727295,7.644680500030518,-22.321691513061523,-122.5633316040039, -73.76365661621094
537,445915143,0.4259902,0.4955363,-0.7539064,0.06783402,10.322288513183594,-2.961183786392212,11.379694938659668,-63.33517837524414,-69.66574096679688, -41.30961227416992
538,445931810,0.42308277,0.49648017,-0.7554257,0.06197178,9.0999116897583,-7.017737865447998,8.403011322021484,-18.604265213012695,-40.875423431396484, -15.046208381652832
539,445948477,0.42734474,0.49504364,-0.7539943,0.061650738,6.267165660858154,-2.4631004333496094,8.482563018798828,-19.979475021362305,24.776695251464844, 0.23283949494361877
540,445965144,0.43951154,0.48642248,-0.7524937,0.06305799,5.37186336517334,-0.6687431931495667,7.224767208099365,-58.99401092529297,74.81609344482422, 38.932674407958984
541,445981811,0.45826617,0.47206107,-0.7499902,0.06830174,5.608433723449707,-2.2726399898529053,5.4738664627075195,-78.0811767578125,127.20227813720703, 73.99365997314453
542,445998478,0.47815096,0.4556419,-0.74645656,0.08102313,6.654808044433594,-3.4575185775756836,3.9004323482513428,-49.188316345214844,161.4798126220703, 104.25759887695312
543,446015145,0.49799186,0.438923,-0.74091923,0.10192888,7.505807876586914,-3.3610432147979736,2.97391414642334,-6.925199031829834,193.62098693847656, 126.41875457763672
544,446031812,0.5174483,0.42234644,-0.7329554,0.12902355,8.287125587463379,-3.2537155151367188,2.0681769847869873,27.94170379638672,218.5232696533203, 139.8102569580078
545,446048479,0.5360129,0.40676257,-0.7218288,0.16185722,9.793436050415039,-1.763971209526062,0.9039764404296875,65.7881851196289,241.04595947265625, 146.82139587402344
546,446065146,0.55531275,0.38984555,-0.7077157,0.19694369,11.842423439025879,0.49466440081596375,0.5331124663352966,73.31804656982422,263.4729919433594, 152.57659912109375
547,446081813,0.57676876,0.36995506,-0.6904929,0.2317127,14.582965850830078,1.9116069078445435,-0.07728475332260132,58.8390007019043,289.0043640136719, 154.60693359375
548,446098480,0.59867316,0.3482086,-0.67088675,0.26505116,16.270042419433594,3.252718925476074,-1.3945691585540771,47.34193420410156,299.8929748535156, 150.99827575683594
549,446115147,0.61975205,0.32635298,-0.64886916,0.29727092,17.536523818969727,2.3559138774871826,-3.2985737323760986,48.10194396972656,303.5390930175781, 142.6707763671875
550,446131814,0.6376477,0.30779094,-0.6243787,0.32988122,17.93920135498047,2.214935064315796,-5.136670112609863,76.07713317871094,294.0480651855469, 130.63894653320312
551,446148481,0.65251607,0.29289135,-0.59754735,0.3624566,18.159833908081055,2.6653895378112793,-8.102864265441895,103.70095825195312,282.99725341796875, 116.72577667236328
552,446165148,0.66617185,0.2784305,-0.5706393,0.3912317,17.56522560119629,3.6704955101013184,-10.322640419006348,92.67402648925781,269.71484375, 100.79725646972656
553,446181815,0.6799128,0.26076353,-0.54704046,0.41287747,15.404261589050293,4.76533842086792,-11.458202362060547,40.9305305480957,250.0017547607422, 86.88704681396484
554,446198482,0.6917887,0.24107991,-0.5290858,0.42822558,13.316790580749512,4.564461708068848,-12.960561752319336,-4.879751682281494,211.18878173828125, 80.50601196289062
555,446215149,0.70141506,0.22131912,-0.5156435,0.43948478,12.125358581542969,5.105147361755371,-13.21652603149414,-29.682756423950195,175.1691436767578, 75.4998550415039
556,446231816,0.70916134,0.20309861,-0.50611657,0.44686398,10.584726333618164,5.8781304359436035,-12.290038108825684,-44.98591613769531,139.2418670654297, 63.029518127441406
557,446248483,0.7148743,0.18997377,-0.49913445,0.45136404,9.934965133666992,6.389974594116211,-12.05742073059082,-35.1418571472168,100.2458267211914, 41.13056182861328
558,446265150,0.71909696,0.1829853,-0.49386278,0.4533382,8.735044479370117,7.477591037750244,-12.178916931152344,-17.01441192626953,64.53892517089844, 14.59404182434082
559,446281817,0.7225395,0.18030992,-0.49087033,0.4521853,7.902434349060059,8.8212251663208,-11.803916931152344,-12.444476127624512,33.39509201049805, -10.130369186401367
560,446298484,0.72469443,0.18102284,-0.4909561,0.44834253,8.466446876525879,8.389205932617188,-11.426607131958008,-12.683831214904785,0.027552945539355278, -27.017253875732422
561,446315151,0.72312236,0.1857646,-0.4970779,0.4421528,8.47794246673584,6.969335556030273,-13.408835411071777,-14.515684127807617,-57.83644485473633, -33.22311782836914
562,446331818,0.71926785,0.19320428,-0.5091124,0.4314287,17.731258392333984,5.181009292602539,-12.172800064086914,-31.662212371826172,-108.88639068603516, -50.424381256103516
563,446348485,0.7234067,0.18277939,-0.5212773,0.41417933,23.896947860717773,-4.59504508972168,15.253267288208008,-153.8634796142578,-37.070533752441406, -43.60590362548828
564,446365152,0.72118765,0.17808235,-0.54261047,0.39210856,11.41512393951416,-15.955440521240234,-0.9575954079627991,-160.78672790527344,-127.95287322998047, -58.47775650024414
565,446381819,0.7102436,0.19910945,-0.553961,0.38605288,7.917847156524658,-2.8535866737365723,-7.048927307128906,64.19964599609375,-160.7283477783203, -63.8760871887207
566,446398486,0.7022495,0.22000368,-0.5654342,0.3724625,17.667789459228516,5.243404865264893,-7.3556013107299805,30.50357437133789,-159.98147583007812, -107.87397003173828
567,446415153,0.7066335,0.22298282,-0.5655129,0.36213696,15.17861270904541,3.7081830501556396,1.9057708978652954,-32.87204360961914,-5.910041332244873, -71.3206558227539
568,446431820,0.70559895,0.22486658,-0.57505727,0.3476704,2.648510456085205,2.489731788635254,3.0436367988586426,-69.57825469970703,-76.61131286621094, -59.127166748046875
569,446448487,0.7002988,0.23278064,-0.58286965,0.34008518,8.779534339904785,1.8556605577468872,0.208888977766037,-2.3825488090515137,-88.91417694091797, -42.0479850769043
570,446465154,0.69723207,0.23891045,-0.5881326,0.33300066,11.407879829406738,0.9560489654541016,-0.3823632597923279,-6.581225872039795,-62.7292366027832, -41.78001022338867
571,446481821,0.69456595,0.24361269,-0.59301716,0.3264382,11.920814514160156,-0.02518528886139393,0.03794954717159271,-11.105979919433594,-55.174285888671875, -35.04200744628906
572,446498488,0.6930811,0.24680534,-0.59692806,0.3200044,11.168262481689453,-1.1809886693954468,0.38576802611351013,-17.58237648010254,-42.11504364013672, -32.563411712646484
573,446515155,0.691601,0.2501633,-0.60041714,0.3140158,11.032917022705078,-1.4095604419708252,0.8217385411262512,-14.045900344848633,-39.71234130859375, -31.86825942993164
574,446531822,0.69025314,0.25418192,-0.6028243,0.30910403,10.93848705291748,-1.1564357280731201,0.6417176723480225,-4.351207733154297,-33.61747360229492, -31.648033142089844
575,446548489,0.68816954,0.26077223,-0.6038627,0.30621985,10.198244094848633,-0.6213640570640564,0.05007079988718033,20.451213836669922,-32.1118278503418, -33.540733337402344
576,446565156,0.6854621,0.2685722,-0.60443175,0.3044225,9.778207778930664,0.8551622629165649,0.5195136666297913,32.79267883300781,-33.08921813964844, -32.97602081298828
577,446581823,0.6823987,0.27573177,-0.60562867,0.30251953,9.645816802978516,0.7459738850593567,0.284211128950119,28.676782608032227,-36.397098541259766, -28.920650482177734
578,446598490,0.6791038,0.2829178,-0.60687625,0.30079374,9.831493377685547,1.156594157218933,0.30437755584716797,29.8708553314209,-37.33221435546875, -27.635541915893555
579,446615157,0.6756169,0.2892442,-0.6087196,0.2988982,9.867328643798828,1.4462944269180298,0.17532917857170105,24.290605545043945,-39.481380462646484, -23.294588088989258
580,446631824,0.672341,0.29445276,-0.6110476,0.296439,9.419672012329102,1.4332971572875977,0.32434502243995667,15.323833465576172,-39.68797302246094, -20.707990646362305
581,446648491,0.6693618,0.29831603,-0.61403054,0.29313648,9.356627464294434,1.5547488927841187,0.32104429602622986,3.628377914428711,-40.45110321044922, -18.23626708984375
582,446665158,0.6664143,0.3015539,-0.61751246,0.28919837,9.55157470703125,1.3796650171279907,0.32212868332862854,-3.0007805824279785,-42.6768913269043, -17.561145782470703
583,446681825,0.6632161,0.30520093,-0.62114143,0.28492102,9.350737571716309,1.3769123554229736,0.45835691690444946,-2.3365395069122314,-45.95063018798828, -20.051172256469727
584,446698492,0.6596288,0.30930904,-0.62504405,0.28024602,9.425568580627441,1.3757100105285645,0.31582316756248474,-1.6493604183197021,-50.620765686035156, -22.49887466430664
585,446715159,0.6554373,0.31440243,-0.6289991,0.27552363,9.253517150878906,0.7711589932441711,0.02441319078207016,3.8017489910125732,-55.47631072998047, -25.6756591796875
586,446731826,0.6505183,0.32074627,-0.6330141,0.27063087,9.666864395141602,1.3491255044937134,-0.04853200167417526,10.163105964660645,-61.64917755126953, -30.355587005615234
587,446748493,0.6451607,0.32764825,-0.6371991,0.2653145,9.67628002166748,1.9554263353347778,0.12065094709396362,11.469435691833496,-66.31135559082031, -33.49654769897461
588,446765160,0.6397656,0.33387676,-0.6419952,0.25897607,9.645242691040039,2.455225706100464,-0.20503273606300354,2.9789681434631348,-70.28302001953125, -33.636165618896484
589,446781827,0.6343816,0.33959523,-0.646933,0.2524138,9.808871269226074,1.6260610818862915,-0.8360176086425781,-0.5263264179229736,-70.4859848022461, -32.05908966064453
590,446798494,0.62912923,0.34502408,-0.651965,0.2451464,10.088911056518555,1.274273157119751,-1.2616702318191528,-5.392988681793213,-71.47159576416016, -33.861175537109375
591,446815161,0.6230837,0.3518253,-0.6567046,0.23816991,10.50751781463623,-0.007818358950316906,-1.9544864892959595,4.2241597175598145,-75.3995590209961, -38.12258529663086
592,446831828,0.6160682,0.36015317,-0.6611409,0.23160833,10.879693031311035,0.4833948612213135,-1.5851163864135742,15.480501174926758,-79.98576354980469, -42.41034698486328
593,446848495,0.60821635,0.3690546,-0.6661005,0.22401284,11.62372875213623,0.17882123589515686,-1.610041856765747,14.4486083984375,-89.49352264404297, -46.79346466064453
594,446865162,0.59966344,0.37831002,-0.67154133,0.21521561,12.525738716125488,-0.07443831861019135,-1.6040011644363403,11.461524963378906,-98.33123016357422, -51.1679573059082
595,446881829,0.58965117,0.38942403,-0.6768102,0.20637046,13.81157112121582,-0.3508893847465515,-0.05363275110721588,22.952077865600586,-107.26054382324219, -58.26844787597656
596,446898496,0.57748,0.40219036,-0.6827587,0.1964696,16.13974952697754,-1.30495023727417,1.458282709121704,29.554800033569336,-125.28267669677734, -65.3962173461914
597,446915163,0.562163,0.4169778,-0.68954194,0.18610312,20.129152297973633,-2.4492194652557373,3.9498860836029053,42.9675178527832,-147.4605712890625, -70.2328109741211
598,446931830,0.5431013,0.43326733,-0.6985844,0.17117372,20.868661880493164,-2.5977280139923096,5.956992149353027,34.989036560058594,-189.07994079589844, -83.80277252197266
599,446948497,0.52054393,0.44946247,-0.7099752,0.1515016,22.06120491027832,-4.772014141082764,8.01208782196045,19.51219367980957,-228.8182373046875, -90.03850555419922
600,446965164,0.4979837,0.46544507,-0.71901625,0.13560525,20.773334503173828,-5.745296955108643,4.12308406829834,39.637725830078125,-208.70216369628906, -82.84278106689453
601,446981831,0.46716055,0.4867472,-0.7279245,0.12232727,13.82171630859375,5.792168140411377,-7.567491054534912,97.35986328125,-245.8494415283203, -93.00861358642578
602,446998498,0.4399352,0.5041067,-0.7357562,0.10486432,21.570741653442383,9.907320976257324,-10.379666328430176,52.608070373535156,-235.0657501220703, -93.3196029663086
603,447015165,0.4378055,0.5067188,-0.73742145,0.0881591,16.12939453125,5.962525844573975,8.558096885681152,-70.6853256225586,-76.1910629272461, -55.853248596191406
604,447031832,0.43963003,0.5024417,-0.7414344,0.06747419,7.704226016998291,-4.58098840713501,9.673078536987305,-126.73763275146484,-73.0640640258789, -27.139230728149414
605,447048499,0.4336373,0.50257164,-0.7452433,0.06319004,8.258380889892578,-11.340226173400879,6.595882892608643,-2.703336715698242,-57.79249954223633, 2.821176052093506
606,447065166,0.4284711,0.50586486,-0.7453467,0.07051058,7.281598091125488,-3.622835636138916,8.050827026367188,64.88799285888672,-3.8829050064086914, 7.943954944610596
607,447081833,0.4326905,0.50201714,-0.74476147,0.07802765,5.017725944519043,-0.28060153126716614,8.784226417541504,12.550004005432129,50.288299560546875, 38.13686752319336
608,447098500,0.44684035,0.49058792,-0.7429842,0.08736012,4.695395469665527,-1.5512131452560425,7.863630294799805,-34.31545639038086,114.9450912475586, 72.90286254882812
609,447115167,0.46614873,0.47430086,-0.7399136,0.10135163,6.027611255645752,-2.206465244293213,6.221245765686035,-42.06117248535156,163.847412109375, 104.55750274658203
610,447131834,0.48831445,0.45474845,-0.7348561,0.12140614,7.966031551361084,-2.8561060428619385,4.20475435256958,-29.614362716674805,206.75831604003906, 132.10626220703125
611,447148501,0.51030755,0.43452284,-0.727389,0.14724639,9.626738548278809,-2.289463520050049,2.917297124862671,-0.10035177320241928,232.58782958984375, 147.5149688720703
612,447165168,0.5311268,0.41480213,-0.7170869,0.1778481,11.286696434020996,-0.9947887659072876,1.0896854400634766,31.85856819152832,250.3400421142578, 154.39385986328125
613,447181835,0.55172044,0.39473933,-0.70394313,0.21035604,12.663810729980469,1.0751328468322754,-0.09851548075675964,44.12005615234375,265.4332275390625, 155.20980834960938
614,447198502,0.57408005,0.37227967,-0.68816876,0.24137914,13.875811576843262,2.502476692199707,-0.22914588451385498,26.84319496154785,283.3868408203125, 151.50247192382812
615,447215169,0.5970158,0.34790108,-0.6696832,0.27214253,15.67800521850586,2.9108622074127197,-0.5777628421783447,21.063230514526367,299.3389587402344, 151.6959686279297
616,447231836,0.6188408,0.32377234,-0.6482478,0.30328625,16.71980094909668,0.9207649827003479,-1.885704755783081,32.01850128173828,306.78515625, 147.16966247558594
617,447248503,0.6363533,0.30453795,-0.623176,0.33758378,17.765111923217773,-0.7955052852630615,-4.585229873657227,84.10596466064453,299.8765563964844, 139.70465087890625
618,447265170,0.6490451,0.29185423,-0.5942412,0.374752,18.488567352294922,-0.1649959683418274,-7.767578601837158,144.15542602539062,286.9963684082031, 127.33528900146484
619,447281837,0.6597804,0.28114107,-0.56401724,0.40930924,18.470176696777344,2.2988736629486084,-10.134406089782715,149.49342346191406,274.55133056640625, 110.13009643554688
620,447298504,0.6712688,0.26599154,-0.5374515,0.43565187,17.78765106201172,5.354979038238525,-10.940058708190918,85.73904418945312,257.6239318847656, 95.08450317382812
621,447315171,0.6828273,0.24488945,-0.5183748,0.4528397,15.448562622070312,6.317867755889893,-12.307881355285645,1.8745492696762085,224.5731964111328, 88.40824890136719
622,447331838,0.69303226,0.22121899,-0.505673,0.46374944,12.537355422973633,7.291145324707031,-13.597970962524414,-50.16383743286133,187.44883728027344, 83.11625671386719
623,447348505,0.70175654,0.19914536,-0.49717283,0.46978515,10.654796600341797,7.880871772766113,-13.87907600402832,-70.66146087646484,149.98245239257812, 65.54419708251953
624,447365172,0.7077864,0.18313785,-0.49269825,0.4719612,9.185735702514648,8.3627290725708,-14.929461479187012,-63.892539978027344,96.66520690917969, 40.5100212097168
625,447381839,0.7121585,0.17633253,-0.4886241,0.47221154,8.630890846252441,6.974958419799805,-15.756120681762695,-24.857515335083008,57.02070999145508, 5.9559245109558105
626,447398506,0.7140515,0.17823775,-0.48571417,0.47163954,7.790903568267822,7.352542400360107,-15.49183464050293,14.248028755187988,13.92663860321045, -17.78473472595215
627,447415173,0.7142728,0.18407167,-0.48538974,0.46939206,8.680445671081543,8.071516036987305,-13.508461952209473,21.608226776123047,-18.940898895263672, -30.449766159057617
628,447431840,0.71270734,0.19003114,-0.49248496,0.46194714,8.848038673400879,9.170906066894531,-12.7120361328125,-16.82196617126465,-68.14208984375, -41.1414794921875
629,447448507,0.7143454,0.18791272,-0.50099933,0.45099804,25.051984786987305,2.396122694015503,1.4272691011428833,-76.98213195800781,-43.0102424621582, -39.1557731628418
630,447465174,0.71733475,0.17317097,-0.5230595,0.42644075,18.981111526489258,-8.217344284057617,12.566575050354004,-229.66366577148438,-83.2756118774414, -49.08528518676758
631,447481841,0.7128308,0.17530845,-0.5410568,0.41036177,9.176855087280273,-15.147910118103027,-3.0252199172973633,-95.03164672851562,-129.6827392578125, -50.84572982788086
632,447498508,0.70297986,0.19508983,-0.5515851,0.40436772,8.63937759399414,-1.285628080368042,-6.770319938659668,56.56758117675781,-150.5444793701172, -61.12882614135742
633,447515175,0.6977812,0.21488968,-0.5591322,0.3928042,16.277973175048828,4.4483723640441895,-7.316229820251465,37.590885162353516,-125.906982421875, -105.07706451416016
634,447531842,0.7008024,0.22184578,-0.5591097,0.38348028,15.643778800964355,2.539883613586426,1.734831690788269,-7.144380569458008,-19.85080337524414, -78.26203155517578
635,447548509,0.7003142,0.2257309,-0.5665822,0.37093177,4.31012487411499,3.1809487342834473,4.571298599243164,-48.77366256713867,-66.27476501464844, -61.25533676147461
636,447565176,0.69545525,0.2327938,-0.5751115,0.36248586,7.652562618255615,2.135693073272705,1.0519522428512573,-13.419273376464844,-90.20435333251953, -41.05215072631836
637,447581843,0.69239956,0.23896253,-0.5806196,0.35547292,9.580997467041016,1.6430907249450684,-0.09338677674531937,-7.384008407592773,-64.12002563476562, -39.967044830322266
638,447598510,0.6901938,0.2429868,-0.5859327,0.34824273,11.022191047668457,1.0644173622131348,0.8040640354156494,-19.383071899414062,-54.91124725341797, -34.81580352783203
639,447615177,0.68829185,0.24495213,-0.5919614,0.34034485,11.377266883850098,-0.7580929398536682,0.09581355005502701,-34.064727783203125,-53.279075622558594, -29.202009201049805
640,447631844,0.68662435,0.24696179,-0.5973974,0.332676,10.475444793701172,-1.556793212890625,0.5716444253921509,-31.926565170288086,-49.242435455322266, -29.847347259521484
641,447648511,0.6845874,0.25010812,-0.6023975,0.32542783,10.644030570983887,-1.345725178718567,0.8706338405609131,-23.203584671020508,-50.599849700927734, -32.44174575805664
642,447665178,0.6816822,0.25522512,-0.6068426,0.31923637,10.374741554260254,-0.9717314839363098,0.33257827162742615,-6.815525054931641,-54.191368103027344, -34.66008758544922
643,447681845,0.6784985,0.26155716,-0.61021644,0.31442615,10.03764533996582,0.2806451618671417,0.32565486431121826,7.485034465789795,-50.58222961425781, -34.54417419433594
644,447698512,0.67549515,0.2674745,-0.6132097,0.31006062,9.454113006591797,0.8755238652229309,0.5167989134788513,7.914022445678711,-46.359928131103516, -31.81084442138672
645,447715179,0.6723155,0.27304232,-0.61631775,0.30592865,10.05372142791748,0.7721371054649353,0.39167720079421997,7.353926658630371,-46.47163772583008, -28.6664981842041
646,447731846,0.66879123,0.27818283,-0.619719,0.30212775,9.830925941467285,1.0391837358474731,0.0546889454126358,6.813206672668457,-47.77622604370117, -24.052400588989258
647,447748513,0.6654609,0.2820596,-0.62357616,0.29792115,9.405036926269531,1.372630000114441,-0.11838307976722717,-2.0390968322753906,-47.204803466796875, -20.060420989990234
648,447765180,0.66289407,0.28410932,-0.6276673,0.29306546,9.501212120056152,1.159627914428711,-0.3185994327068329,-15.138060569763184,-42.526798248291016, -16.29738998413086
649,447781847,0.6605154,0.28561166,-0.6319536,0.28771523,9.579191207885742,0.8524154424667358,-0.2934437096118927,-20.525068283081055,-42.47689437866211, -16.17755699157715
650,447798514,0.65778863,0.287603,-0.6362847,0.28238398,9.751334190368652,0.5836547017097473,-0.22875744104385376,-17.622047424316406,-45.134559631347656, -17.43416404724121
651,447815181,0.6546679,0.29030073,-0.64054596,0.27719387,9.85468864440918,0.5520418286323547,-0.15746614336967468,-12.891522407531738,-47.645999908447266, -19.260757446289062
652,447831848,0.6508373,0.2943908,-0.64449906,0.2727011,9.899784088134766,0.24965906143188477,-0.4564627408981323,-1.5424518585205078,-50.65999221801758, -21.52072525024414
653,447848515,0.6462187,0.30033067,-0.647995,0.2688975,9.471651077270508,-0.22600167989730835,-0.7936533689498901,12.243013381958008,-54.18919372558594, -26.095767974853516
654,447865182,0.64098126,0.30771416,-0.65115565,0.2654274,9.89974594116211,0.8475819230079651,-1.0029535293579102,22.04239273071289,-57.442935943603516, -30.620670318603516
655,447881849,0.6353999,0.3149634,-0.6547721,0.26141685,10.06520938873291,1.601847529411316,-0.9691899418830872,18.93109130859375,-61.896541595458984, -30.8243408203125
656,447898516,0.6302915,0.32128432,-0.65866125,0.25627053,10.137853622436523,1.321313500404358,-1.0276654958724976,8.25130558013916,-61.76258087158203, -31.870393753051758
657,447915183,0.6246602,0.327657,-0.6630712,0.25055477,10.184359550476074,1.3067706823349,-0.8752108812332153,6.139351844787598,-67.75504302978516, -32.509403228759766
658,447931850,0.6191365,0.3341733,-0.6673255,0.2442849,10.342435836791992,1.2366538047790527,-1.1391185522079468,4.261959552764893,-68.11516571044922, -36.09134292602539
659,447948517,0.6124825,0.34178054,-0.6717829,0.23824207,10.023368835449219,0.8567827343940735,-1.2562081813812256,12.206421852111816,-75.50154876708984, -37.78030014038086
660,447965184,0.6046838,0.35030514,-0.6766926,0.23179959,10.429123878479004,0.813805103302002,-1.6110867261886597,16.17735481262207,-85.1597900390625, -40.78745651245117
661,447981851,0.59590226,0.3594293,-0.68206596,0.22471578,11.087121963500977,0.989469051361084,-1.77627432346344,17.317224502563477,-94.18574523925781, -43.58738327026367
662,447998518,0.58604485,0.369227,-0.68770707,0.21744451,11.782779693603516,1.0338393449783325,-1.5252971649169922,21.447940826416016,-101.86080169677734, -45.21877670288086
663,448015185,0.57498276,0.37960786,-0.69391495,0.20922463,13.079058647155762,1.096237063407898,-1.1695523262023926,21.52836036682129,-113.15938568115234, -48.591060638427734
664,448031852,0.5632419,0.39055184,-0.7001835,0.19992793,15.033209800720215,0.4121088981628418,-0.16245076060295105,20.308349609375,-120.31363677978516, -54.435394287109375
665,448048519,0.55094534,0.40016463,-0.7077559,0.18817334,19.318538665771484,-0.6236175298690796,2.5169808864593506,3.026711940765381,-132.89410400390625, -53.33147430419922
666,448065186,0.5418855,0.40688163,-0.71411335,0.17564136,20.194766998291016,-2.0230016708374023,3.3805389404296875,-19.051475524902344,-111.08322143554688, -49.78902816772461
667,448081853,0.5284429,0.41623306,-0.7221489,0.16124305,19.611417770385742,-4.363620281219482,5.943845748901367,-8.16386890411377,-147.4381103515625, -59.79175567626953
668,448098520,0.50869995,0.43069226,-0.73083794,0.14698477,18.111867904663086,-6.191579818725586,4.007992744445801,28.396020889282227,-186.5802001953125, -75.92810821533203
669,448115187,0.48121822,0.45154482,-0.73885775,0.13647546,15.701021194458008,-2.695821523666382,-0.7499412298202515,93.1788558959961,-218.68800354003906, -89.25933837890625
670,448131854,0.45024174,0.47505346,-0.7452247,0.12746342,16.190750122070312,5.7905097007751465,-6.773993968963623,121.96209716796875,-228.9376678466797, -99.74187469482422
671,448148521,0.42698312,0.49312103,-0.7486958,0.11820314,17.883676528930664,8.124956130981445,-6.677146911621094,81.17887878417969,-176.48211669921875, -88.82042694091797
672,448165188,0.42332295,0.49925113,-0.74864453,0.105251186,15.702835083007812,3.5527899265289307,7.864026069641113,-36.41286087036133,-68.1187515258789, -66.04065704345703
673,448181855,0.42410308,0.49950075,-0.7499123,0.09092444,9.058959007263184,-3.258084535598755,9.385554313659668,-76.73646545410156,-49.79404830932617, -38.49428176879883
674,448198522,0.42171335,0.50093246,-0.7508776,0.08606791,8.89356803894043,-6.986767292022705,7.080921649932861,-13.37817668914795,-33.64606857299805, -16.11505126953125
675,448215189,0.42362347,0.50153923,-0.7490918,0.08867467,7.228708744049072,-2.2620630264282227,7.975733757019043,9.544676780700684,22.577739715576172, -2.3492915630340576
676,448231856,0.43360922,0.49566212,-0.7467565,0.09304284,5.776793003082275,-0.9854048490524292,7.652338027954102,-27.77105712890625,75.66590118408203, 29.30849266052246
677,448248523,0.4499589,0.4845091,-0.7432678,0.10169109,5.477670192718506,-2.8030829429626465,6.298463344573975,-42.45864486694336,129.64016723632812, 61.120643615722656
678,448265190,0.46872464,0.47054404,-0.73852754,0.116029434,6.451494216918945,-3.2194435596466064,4.5027642250061035,-29.262285232543945,166.70335388183594, 87.19039154052734
679,448281857,0.48888502,0.45465314,-0.7319637,0.13605592,8.124232292175293,-3.1667377948760986,2.8269145488739014,-9.664176940917969,199.54095458984375, 108.2437973022461
680,448298524,0.5094207,0.43759957,-0.7234126,0.16022328,9.243799209594727,-2.6601037979125977,1.6056387424468994,7.9389729499816895,222.09280395507812, 121.40255737304688
681,448315191,0.529687,0.41970387,-0.712672,0.1880934,10.018159866333008,-1.567476511001587,0.743584394454956,26.59735107421875,240.4503631591797, 132.24252319335938
682,448331858,0.5495091,0.40051696,-0.6999382,0.21843258,11.273082733154297,0.3218822777271271,-0.23614922165870667,37.8442268371582,254.3048858642578, 142.3701934814453
683,448348525,0.5697254,0.38014558,-0.68448794,0.24975757,12.799233436584473,0.9132029414176941,-0.5013554096221924,41.087196350097656,270.95294189453125, 143.74366760253906
684,448365192,0.588942,0.3593138,-0.6666744,0.28211018,14.229920387268066,1.5884568691253662,-1.295686960220337,50.788330078125,278.981689453125, 145.5046844482422
685,448381859,0.6063288,0.34020257,-0.64617544,0.31477764,15.947708129882812,2.2780489921569824,-2.31937837600708,68.92169952392578,278.92236328125, 135.85140991210938
686,448398526,0.6222602,0.32293364,-0.6235591,0.34594837,17.322416305541992,3.318406343460083,-4.374881744384766,77.93521881103516,273.83270263671875, 119.6856918334961
687,448415193,0.63800573,0.3064328,-0.59834695,0.3755379,16.924772262573242,3.672478675842285,-5.559811115264893,81.02041625976562,278.9012451171875, 104.3923110961914
688,448431860,0.65221566,0.2907501,-0.5727818,0.40249258,16.414756774902344,3.8953287601470947,-7.567595958709717,77.89899444580078,266.5906982421875, 92.78115844726562
689,448448527,0.66524434,0.27446887,-0.5488514,0.42529845,16.171417236328125,4.560047149658203,-9.505082130432129,56.694854736328125,248.13717651367188, 83.16116333007812
690,448465194,0.6779498,0.25525165,-0.5291467,0.44185334,14.71966552734375,5.912384033203125,-10.627105712890625,7.906314373016357,224.58822631835938, 74.65992736816406
691,448481861,0.6897955,0.23340136,-0.51474166,0.4524897,12.868060111999512,6.410385608673096,-11.285369873046875,-40.51179885864258,194.60116577148438, 68.6675796508789
692,448498528,0.6997408,0.21214716,-0.50480634,0.4588322,11.375314712524414,6.478863716125488,-11.563223838806152,-63.75814437866211,158.16720581054688, 59.38429641723633
693,448515195,0.7078458,0.19582196,-0.49628955,0.46293077,10.279060363769531,6.3636555671691895,-12.040016174316406,-49.63599395751953,126.3617935180664, 39.46281051635742
694,448531862,0.7130017,0.18787983,-0.4895248,0.46550542,8.959159851074219,5.968563079833984,-12.91168212890625,-15.653804779052734,79.26659393310547, 15.293574333190918
695,448548529,0.7158445,0.18926592,-0.4836953,0.46667337,8.587294578552246,6.6908111572265625,-13.638418197631836,25.327566146850586,35.45949935913086, -14.292156219482422
696,448565196,0.7173018,0.1961017,-0.47964212,0.46579626,8.785033226013184,7.400146007537842,-12.97818374633789,41.44090270996094,2.2051165103912354, -35.62666320800781
697,448581863,0.716987,0.20390037,-0.48143563,0.4610578,7.9125237464904785,6.700854778289795,-13.009034156799316,17.10317039489746,-40.53278732299805, -44.184234619140625
